{
  "resourceType": "Bundle",
  "id": "Instance-Bundle-97d07404-3023-42e9-b77d-456b3e0139f5",
  "meta": {
    "profile": [
      "http://hl7.eu/fhir/laboratory/StructureDefinition/Bundle-eu-lab"
    ]
  },
  "identifier": {
    "assigner": {
      "display": "HL7 Europe"
    },
    "system": "urn:oid:2.16.840.1.113883.2.51.999",
    "value": "42cc2d10-6155-43c7-ae4f-3f13133f5c59"
  },
  "entry": [
    {
      "fullUrl": "urn:uuid:3f8c58e3-44c8-468d-9eb1-7fcf9359f938",
      "resource": {
        "resourceType": "Composition",
        "id": "3f8c58e3-44c8-468d-9eb1-7fcf9359f938",
        "meta": {
          "profile": [
            "http://hl7.eu/fhir/laboratory/StructureDefinition/Composition-eu-lab"
          ]
        },
        "identifier": {
          "assigner": {
            "display": "HL7 Europe"
          },
          "system": "urn:oid:2.16.840.1.113883.2.51.999",
          "value": "f9ec2b60-118b-41a8-ad63-b02fdaab6c58"
        },
        "author": [
          {
            "reference": "urn:uuid:52719916-5eae-4ecd-b2cc-ce932c904631"
          }
        ],
        "category": [
          {
            "coding": [
              {
                "code": "26436-6",
                "system": "http://loinc.org",
                "display": "Laboratory studies (set)"
              }
            ]
          }
        ],
        "type": {
          "text": "Laboratory Report"
        },
        "section": [
          {
            "code": {
              "coding": [
                {
                  "code": "26436-6",
                  "system": "http://loinc.org",
                  "display": "Laboratory studies (set)"
                }
              ],
              "text": "Laboratory studies"
            },
            "section": [
              {
                "code": {
                  "coding": [
                    {
                      "code": "18719-5",
                      "system": "http://loinc.org",
                      "display": "Chemistry studies (set)"
                    }
                  ],
                  "text": "Chemistry"
                },
                "entry": [
                  {
                    "reference": "urn:uuid:5ae35669-b5b3-4ddd-8e98-46bb69a8638a"
                  }
                ],
                "text": {
                  "status": "generated",
                  "div": "<div xmlns=\"http://www.w3.org/1999/xhtml\"><h3 id=\"section-1\">Chemistry</h3><table class=\"hl7__eu__lab__report\"><thead><tr><th>Test</th><th>18 Nov 2024</th><th>Reference Range</th><th>Unit</th></tr></thead><tbody><tr><td>Oxygen saturation in Arterial blood</td><td><strong>76.9 L</strong></td><td>95 - 100</td><td>%</td></tr></tbody></table></div>"
                },
                "title": "Chemistry"
              },
              {
                "code": {
                  "coding": [
                    {
                      "code": "18725-2",
                      "system": "http://loinc.org",
                      "display": "Microbiology studies"
                    }
                  ],
                  "text": "Microbiology"
                },
                "entry": [
                  {
                    "reference": "urn:uuid:6f61142d-002e-4f67-9923-f5c27d9871c0"
                  },
                  {
                    "reference": "urn:uuid:6674ea33-8937-4fcf-ba98-2aca54f28d6d"
                  }
                ],
                "text": {
                  "status": "generated",
                  "div": "<div xmlns=\"http://www.w3.org/1999/xhtml\"><h3 id=\"section-2\">Microbiology</h3><table class=\"hl7__eu__lab__report\"><thead><tr><th>Test</th><th>18 Nov 2024</th><th>Reference Range</th><th>Unit</th></tr></thead><tbody><tr><td>Influenza virus A Ag [Presence] in Upper respiratory specimen by Rapid immunoassay</td><td>Not detected</td><td></td><td></td></tr><tr><td>Influenza virus B Ag [Presence] in Upper respiratory specimen by Rapid immunoassay</td><td>Not detected</td><td></td><td></td></tr></tbody></table></div>"
                },
                "title": "Microbiology"
              },
              {
                "code": {
                  "coding": [
                    {
                      "code": "18725-2",
                      "system": "http://loinc.org",
                      "display": "Microbiology studies"
                    }
                  ],
                  "text": "Microbiology Panel"
                },
                "entry": [
                  {
                    "reference": "urn:uuid:c3be4e04-5e27-4d39-babb-a88ac7d4b31a"
                  }
                ],
                "text": {
                  "status": "generated",
                  "div": "<div xmlns=\"http://www.w3.org/1999/xhtml\"><h3 id=\"section-3\">Microbiology Panel</h3><table class=\"hl7__eu__lab__report\"><thead><tr><th>Test</th><th>18 Nov 2024</th><th>Reference Range</th><th>Unit</th></tr></thead><tbody><tr><td>SARS-CoV-2 (COVID-19) RNA panel - Respiratory system specimen by NAA with probe detection</td><td>Detected</td><td></td><td></td></tr></tbody></table></div>"
                },
                "title": "Microbiology Panel"
              }
            ],
            "title": "Laboratory Report"
          }
        ],
        "status": "final",
        "subject": {
          "reference": "urn:uuid:6e1e8f2d-2008-417d-a8f3-3b61f8d48f13"
        },
        "date": "2024-11-19T18:41:30Z",
        "title": "Laboratory Report",
        "confidentiality": "N"
      }
    },
    {
      "fullUrl": "urn:uuid:1dedc323-d547-4149-af9d-fc12b3d11c05",
      "resource": {
        "resourceType": "DiagnosticReport",
        "id": "1dedc323-d547-4149-af9d-fc12b3d11c05",
        "meta": {
          "profile": [
            "http://hl7.eu/fhir/laboratory/StructureDefinition/DiagnosticReport-eu-lab"
          ]
        },
        "identifier": [
          {
            "assigner": {
              "display": "HL7 Europe"
            },
            "system": "urn:oid:2.16.840.1.113883.2.51.999",
            "value": "67041ef4-c8f0-4cec-b081-0ad4bd6023ff"
          }
        ],
        "extension": [
          {
            "url": "http://hl7.org/fhir/5.0/StructureDefinition/extension-DiagnosticReport.composition",
            "valueReference": {
              "reference": "urn:uuid:3f8c58e3-44c8-468d-9eb1-7fcf9359f938"
            }
          }
        ],
        "category": [
          {
            "coding": [
              {
                "code": "18719-5",
                "system": "http://loinc.org",
                "display": "Chemistry studies (set)"
              }
            ]
          }
        ],
        "specimen": [
          {
            "reference": "urn:uuid:ebb92b7d-8179-4ce1-93c5-3b71b6347d1f"
          },
          {
            "reference": "urn:uuid:f78e1553-a71e-451e-becb-c9188d66d0fd"
          },
          {
            "reference": "urn:uuid:8d813dd6-f97c-4cf2-b0f7-db98120b0663"
          }
        ],
        "result": [
          {
            "reference": "urn:uuid:5ae35669-b5b3-4ddd-8e98-46bb69a8638a"
          },
          {
            "reference": "urn:uuid:6f61142d-002e-4f67-9923-f5c27d9871c0"
          },
          {
            "reference": "urn:uuid:6674ea33-8937-4fcf-ba98-2aca54f28d6d"
          },
          {
            "reference": "urn:uuid:c3be4e04-5e27-4d39-babb-a88ac7d4b31a"
          }
        ],
        "status": "registered",
        "code": {
          "coding": [
            {
              "code": "11502-2",
              "system": "http://loinc.org",
              "display": "Laboratory report"
            }
          ]
        },
        "subject": {
          "reference": "urn:uuid:6e1e8f2d-2008-417d-a8f3-3b61f8d48f13"
        }
      }
    },
    {
      "fullUrl": "urn:uuid:6e1e8f2d-2008-417d-a8f3-3b61f8d48f13",
      "resource": {
        "resourceType": "Patient",
        "id": "6e1e8f2d-2008-417d-a8f3-3b61f8d48f13",
        "meta": {
          "profile": [
            "http://hl7.eu/fhir/laboratory/StructureDefinition/Patient-eu-lab"
          ]
        },
        "identifier": [
          {
            "type": {
              "coding": [
                {
                  "code": "NI",
                  "system": "http://terminology.hl7.org/CodeSystem/v2-0203"
                }
              ]
            },
            "system": "http://ec.europa.eu/identifier/eci",
            "value": "8473-253210-0"
          },
          {
            "type": {
              "coding": [
                {
                  "code": "MR",
                  "system": "http://terminology.hl7.org/CodeSystem/v2-0203"
                }
              ]
            },
            "system": "http://local.setting.eu/identifier",
            "value": "1eac6d4d-f1c7-44dc-ab32-0f5c14fb840b"
          }
        ],
        "name": [
          {
            "given": [
              "Juliane"
            ],
            "family": "Freytag",
            "text": "Juliane Freytag"
          }
        ],
        "address": [
          {
            "line": [
              "An Der Urania 53"
            ],
            "use": "home",
            "type": "physical",
            "city": "Wilster",
            "postalCode": "25552",
            "country": "Germany"
          }
        ],
        "telecom": [
          {
            "system": "phone",
            "value": "+49 04823 50 26 28"
          }
        ],
        "gender": "female",
        "birthDate": "2001-05-08"
      }
    },
    {
      "fullUrl": "urn:uuid:03ec6dd6-caed-4f5b-9da2-d37668cdfe3e",
      "resource": {
        "resourceType": "ServiceRequest",
        "id": "03ec6dd6-caed-4f5b-9da2-d37668cdfe3e",
        "meta": {
          "profile": [
            "http://hl7.eu/fhir/laboratory/StructureDefinition/ServiceRequest-eu-lab"
          ]
        },
        "identifier": [
          {
            "system": "http://example.org",
            "value": "ba5b3198-eefa-41c2-a7c1-1ececdc97064"
          }
        ],
        "specimen": [
          {
            "reference": "urn:uuid:ebb92b7d-8179-4ce1-93c5-3b71b6347d1f"
          },
          {
            "reference": "urn:uuid:f78e1553-a71e-451e-becb-c9188d66d0fd"
          },
          {
            "reference": "urn:uuid:8d813dd6-f97c-4cf2-b0f7-db98120b0663"
          }
        ],
        "status": "active",
        "intent": "order",
        "code": {
          "coding": [
            {
              "code": "108252007",
              "system": "http://snomed.info/sct",
              "display": "Laboratory procedure"
            }
          ]
        },
        "subject": {
          "reference": "urn:uuid:6e1e8f2d-2008-417d-a8f3-3b61f8d48f13"
        },
        "requester": {
          "reference": "urn:uuid:4b10de24-ad97-43dd-bf3f-fa1e41748bc1"
        }
      }
    },
    {
      "fullUrl": "urn:uuid:4b10de24-ad97-43dd-bf3f-fa1e41748bc1",
      "resource": {
        "resourceType": "PractitionerRole",
        "id": "4b10de24-ad97-43dd-bf3f-fa1e41748bc1",
        "meta": {
          "profile": [
            "http://hl7.eu/fhir/laboratory/StructureDefinition/PractitionerRole-eu-lab"
          ]
        },
        "organization": {
          "reference": "urn:uuid:64d0f5af-121f-437e-b755-7cfc649225cc"
        }
      }
    },
    {
      "fullUrl": "urn:uuid:64d0f5af-121f-437e-b755-7cfc649225cc",
      "resource": {
        "resourceType": "Organization",
        "id": "64d0f5af-121f-437e-b755-7cfc649225cc",
        "meta": {
          "profile": [
            "http://hl7.org/fhir/uv/ips/StructureDefinition/Organization-uv-ips"
          ]
        },
        "identifier": [
          {
            "assigner": {
              "display": "HL7 Europe"
            },
            "system": "urn:oid:2.16.840.1.113883.2.51.999",
            "value": "6e3e51b2-59af-49c2-877e-d726b3952163"
          }
        ],
        "address": [
          {
            "line": [
              "Lübscher Kamp 18"
            ],
            "city": "Itzehoe",
            "postalCode": "25524",
            "country": "de"
          }
        ],
        "name": "Mecke"
      }
    },
    {
      "fullUrl": "urn:uuid:52719916-5eae-4ecd-b2cc-ce932c904631",
      "resource": {
        "resourceType": "PractitionerRole",
        "id": "52719916-5eae-4ecd-b2cc-ce932c904631",
        "meta": {
          "profile": [
            "http://hl7.eu/fhir/laboratory/StructureDefinition/PractitionerRole-eu-lab"
          ]
        },
        "practitioner": {
          "reference": "urn:uuid:51044fbf-d2ad-44ba-9956-d8cbb2aa224c"
        }
      }
    },
    {
      "fullUrl": "urn:uuid:51044fbf-d2ad-44ba-9956-d8cbb2aa224c",
      "resource": {
        "resourceType": "Practitioner",
        "id": "51044fbf-d2ad-44ba-9956-d8cbb2aa224c",
        "meta": {
          "profile": [
            "http://hl7.eu/fhir/laboratory/StructureDefinition/Practitioner-eu-lab"
          ]
        },
        "identifier": [
          {
            "assigner": {
              "display": "HL7 Europe"
            },
            "system": "urn:oid:2.16.840.1.113883.2.51.999",
            "value": "ef3bcc45-e9d4-4390-9e14-468b9ee0ff8e"
          }
        ],
        "name": [
          {
            "prefix": [
              "dr"
            ],
            "given": [
              "Ex"
            ],
            "family": "Ample"
          }
        ],
        "address": [
          {
            "line": [
              "Boulevard du Jardin Botanique 32"
            ],
            "city": "Brussels",
            "postalCode": "1000"
          }
        ]
      }
    },
    {
      "fullUrl": "urn:uuid:ebb92b7d-8179-4ce1-93c5-3b71b6347d1f",
      "resource": {
        "resourceType": "Specimen",
        "id": "ebb92b7d-8179-4ce1-93c5-3b71b6347d1f",
        "meta": {
          "profile": [
            "http://hl7.eu/fhir/laboratory/StructureDefinition/Specimen-eu-lab"
          ]
        },
        "collection": {
          "collectedDateTime": "2024-11-18"
        },
        "status": "available",
        "type": {
          "coding": [
            {
              "code": "122552005",
              "system": "http://snomed.info/sct",
              "display": "Arterial blood specimen (specimen)"
            }
          ]
        }
      }
    },
    {
      "fullUrl": "urn:uuid:f78e1553-a71e-451e-becb-c9188d66d0fd",
      "resource": {
        "resourceType": "Specimen",
        "id": "f78e1553-a71e-451e-becb-c9188d66d0fd",
        "meta": {
          "profile": [
            "http://hl7.eu/fhir/laboratory/StructureDefinition/Specimen-eu-lab"
          ]
        },
        "collection": {
          "collectedDateTime": "2024-11-18"
        },
        "status": "available",
        "type": {
          "coding": [
            {
              "code": "258604001",
              "system": "http://snomed.info/sct",
              "display": "Upper respiratory specimen (specimen)"
            }
          ]
        }
      }
    },
    {
      "fullUrl": "urn:uuid:8d813dd6-f97c-4cf2-b0f7-db98120b0663",
      "resource": {
        "resourceType": "Specimen",
        "id": "8d813dd6-f97c-4cf2-b0f7-db98120b0663",
        "meta": {
          "profile": [
            "http://hl7.eu/fhir/laboratory/StructureDefinition/Specimen-eu-lab"
          ]
        },
        "collection": {
          "collectedDateTime": "2024-11-18"
        },
        "status": "available",
        "type": {
          "coding": [
            {
              "code": "258603007",
              "system": "http://snomed.info/sct",
              "display": "Respiratory specimen (specimen)"
            }
          ]
        }
      }
    },
    {
      "fullUrl": "urn:uuid:5ae35669-b5b3-4ddd-8e98-46bb69a8638a",
      "resource": {
        "resourceType": "Observation",
        "id": "5ae35669-b5b3-4ddd-8e98-46bb69a8638a",
        "meta": {
          "profile": [
            "http://hl7.eu/fhir/laboratory/StructureDefinition/Observation-resultslab-eu-lab"
          ]
        },
        "performer": [
          {
            "display": "The Central European Lab"
          }
        ],
        "category": [
          {
            "coding": [
              {
                "code": "laboratory",
                "system": "http://terminology.hl7.org/CodeSystem/observation-category"
              }
            ]
          }
        ],
        "code": {
          "coding": [
            {
              "code": "2708-6",
              "system": "http://loinc.org",
              "display": "Oxygen saturation in Arterial blood"
            }
          ],
          "text": "Oxygen saturation in Arterial blood"
        },
        "valueQuantity": {
          "system": "http://unitsofmeasure.org",
          "value": 76.9,
          "unit": "%",
          "code": "%"
        },
        "referenceRange": [
          {
            "low": {
              "value": 95,
              "code": "%",
              "system": "http://unitsofmeasure.org"
            }
          },
          {
            "high": {
              "value": 100,
              "code": "%",
              "system": "http://unitsofmeasure.org"
            }
          }
        ],
        "interpretation": [
          {
            "coding": [
              {
                "code": "L",
                "system": "http://terminology.hl7.org/CodeSystem/v3-ObservationInterpretation",
                "display": "Low"
              }
            ]
          }
        ],
        "status": "final",
        "subject": {
          "reference": "urn:uuid:6e1e8f2d-2008-417d-a8f3-3b61f8d48f13"
        },
        "effectiveDateTime": "2024-11-18",
        "specimen": {
          "reference": "urn:uuid:ebb92b7d-8179-4ce1-93c5-3b71b6347d1f"
        }
      }
    },
    {
      "fullUrl": "urn:uuid:6f61142d-002e-4f67-9923-f5c27d9871c0",
      "resource": {
        "resourceType": "Observation",
        "id": "6f61142d-002e-4f67-9923-f5c27d9871c0",
        "meta": {
          "profile": [
            "http://hl7.eu/fhir/laboratory/StructureDefinition/Observation-resultslab-eu-lab"
          ]
        },
        "performer": [
          {
            "display": "The Central European Lab"
          }
        ],
        "category": [
          {
            "coding": [
              {
                "code": "laboratory",
                "system": "http://terminology.hl7.org/CodeSystem/observation-category"
              }
            ]
          }
        ],
        "code": {
          "coding": [
            {
              "code": "80382-5",
              "system": "http://loinc.org",
              "display": "Influenza virus A Ag [Presence] in Upper respiratory specimen by Rapid immunoassay"
            }
          ],
          "text": "Influenza virus A Ag [Presence] in Upper respiratory specimen by Rapid immunoassay"
        },
        "status": "final",
        "subject": {
          "reference": "urn:uuid:6e1e8f2d-2008-417d-a8f3-3b61f8d48f13"
        },
        "effectiveDateTime": "2024-11-18",
        "valueCodeableConcept": {
          "coding": [
            {
              "code": "260415000",
              "system": "http://snomed.info/sct",
              "display": "Not detected"
            }
          ]
        },
        "specimen": {
          "reference": "urn:uuid:f78e1553-a71e-451e-becb-c9188d66d0fd"
        }
      }
    },
    {
      "fullUrl": "urn:uuid:6674ea33-8937-4fcf-ba98-2aca54f28d6d",
      "resource": {
        "resourceType": "Observation",
        "id": "6674ea33-8937-4fcf-ba98-2aca54f28d6d",
        "meta": {
          "profile": [
            "http://hl7.eu/fhir/laboratory/StructureDefinition/Observation-resultslab-eu-lab"
          ]
        },
        "performer": [
          {
            "display": "The Central European Lab"
          }
        ],
        "category": [
          {
            "coding": [
              {
                "code": "laboratory",
                "system": "http://terminology.hl7.org/CodeSystem/observation-category"
              }
            ]
          }
        ],
        "code": {
          "coding": [
            {
              "code": "80383-3",
              "system": "http://loinc.org",
              "display": "Influenza virus B Ag [Presence] in Upper respiratory specimen by Rapid immunoassay"
            }
          ],
          "text": "Influenza virus B Ag [Presence] in Upper respiratory specimen by Rapid immunoassay"
        },
        "status": "final",
        "subject": {
          "reference": "urn:uuid:6e1e8f2d-2008-417d-a8f3-3b61f8d48f13"
        },
        "effectiveDateTime": "2024-11-18",
        "valueCodeableConcept": {
          "coding": [
            {
              "code": "260415000",
              "system": "http://snomed.info/sct",
              "display": "Not detected"
            }
          ]
        },
        "specimen": {
          "reference": "urn:uuid:f78e1553-a71e-451e-becb-c9188d66d0fd"
        }
      }
    },
    {
      "fullUrl": "urn:uuid:c3be4e04-5e27-4d39-babb-a88ac7d4b31a",
      "resource": {
        "resourceType": "Observation",
        "id": "c3be4e04-5e27-4d39-babb-a88ac7d4b31a",
        "meta": {
          "profile": [
            "http://hl7.eu/fhir/laboratory/StructureDefinition/Observation-resultslab-eu-lab"
          ]
        },
        "performer": [
          {
            "display": "The Central European Lab"
          }
        ],
        "category": [
          {
            "coding": [
              {
                "code": "laboratory",
                "system": "http://terminology.hl7.org/CodeSystem/observation-category"
              }
            ]
          }
        ],
        "code": {
          "coding": [
            {
              "code": "94531-1",
              "system": "http://loinc.org",
              "display": "SARS-CoV-2 (COVID-19) RNA panel - Respiratory system specimen by NAA with probe detection"
            }
          ],
          "text": "SARS-CoV-2 (COVID-19) RNA panel - Respiratory system specimen by NAA with probe detection"
        },
        "status": "final",
        "subject": {
          "reference": "urn:uuid:6e1e8f2d-2008-417d-a8f3-3b61f8d48f13"
        },
        "effectiveDateTime": "2024-11-18",
        "valueCodeableConcept": {
          "coding": [
            {
              "code": "260373001",
              "system": "http://snomed.info/sct",
              "display": "Detected"
            }
          ]
        },
        "specimen": {
          "reference": "urn:uuid:8d813dd6-f97c-4cf2-b0f7-db98120b0663"
        }
      }
    }
  ],
  "type": "document",
  "timestamp": "2024-11-19T18:41:30Z"
}
