<Bundle xmlns="http://hl7.org/fhir">
   <id value="Instance-Bundle-c1b901d2-5d7e-4565-89f1-4332fe3f5830"/>
   <meta>
      <profile value="http://hl7.eu/fhir/laboratory/StructureDefinition/Bundle-eu-lab"/>
   </meta>
   <identifier>
      <system value="urn:oid:2.16.840.1.113883.2.51.999"/>
      <value value="460ab457-590c-42c0-bab0-13c049e66c1b"/>
      <assigner>
         <display value="HL7 Europe"/>
      </assigner>
   </identifier>
   <type value="document"/>
   <timestamp value="2024-11-19T18:36:47Z"/>
   <entry>
      <fullUrl value="urn:uuid:fcfa2d91-b340-44f2-bd95-c26744e32052"/>
      <resource>
         <Composition>
            <id value="fcfa2d91-b340-44f2-bd95-c26744e32052"/>
            <meta>
               <profile value="http://hl7.eu/fhir/laboratory/StructureDefinition/Composition-eu-lab"/>
            </meta>
            <identifier>
               <system value="urn:oid:2.16.840.1.113883.2.51.999"/>
               <value value="eccfb9f6-249e-4e50-9ba8-717f9c9cc9c0"/>
               <assigner>
                  <display value="HL7 Europe"/>
               </assigner>
            </identifier>
            <status value="final"/>
            <type>
               <text value="Laboratory Report"/>
            </type>
            <category>
               <coding>
                  <system value="http://loinc.org"/>
                  <code value="26436-6"/>
                  <display value="Laboratory studies (set)"/>
               </coding>
            </category>
            <subject>
               <reference value="urn:uuid:75f59761-52a3-4e6c-bd55-2fc6917b5742"/>
            </subject>
            <date value="2024-11-19T18:36:47Z"/>
            <author>
               <reference value="urn:uuid:6f080f41-3f44-4318-916b-27f0ef81fcb1"/>
            </author>
            <title value="Laboratory Report"/>
            <confidentiality value="N"/>
            <section>
               <title value="Laboratory Report"/>
               <code>
                  <coding>
                     <system value="http://loinc.org"/>
                     <code value="26436-6"/>
                     <display value="Laboratory studies (set)"/>
                  </coding>
                  <text value="Laboratory studies"/>
               </code>
               <section>
                  <title value="Chemistry"/>
                  <code>
                     <coding>
                        <system value="http://loinc.org"/>
                        <code value="18719-5"/>
                        <display value="Chemistry studies (set)"/>
                     </coding>
                     <text value="Chemistry"/>
                  </code>
                  <text>
                     <status value="generated"/>
                     <div xmlns="http://www.w3.org/1999/xhtml">
                        <h3 id="section-1">Chemistry</h3>
                        <table class="hl7__eu__lab__report">
                           <thead>
                              <tr>
                                 <th>Test</th>
                                 <th>18 Nov 2024</th>
                                 <th>Reference Range</th>
                                 <th>Unit</th>
                              </tr>
                           </thead>
                           <tbody>
                              <tr>
                                 <td>Glucose [Mass/volume] in Blood</td>
                                 <td>89.0</td>
                                 <td>70 - 140</td>
                                 <td>mg/dL</td>
                              </tr>
                              <tr>
                                 <td>Urea nitrogen [Mass/volume] in Blood</td>
                                 <td>18.2</td>
                                 <td>7 - 25</td>
                                 <td>mg/dL</td>
                              </tr>
                              <tr>
                                 <td>Creatinine [Mass/volume] in Blood</td>
                                 <td>0.7</td>
                                 <td>0.6 - 1.3</td>
                                 <td>mg/dL</td>
                              </tr>
                              <tr>
                                 <td>Calcium [Mass/volume] in Blood</td>
                                 <td>9.3</td>
                                 <td>8.5 - 10.5</td>
                                 <td>mg/dL</td>
                              </tr>
                              <tr>
                                 <td>Sodium [Moles/volume] in Blood</td>
                                 <td>142.0</td>
                                 <td>135 - 145</td>
                                 <td>mmol/L</td>
                              </tr>
                              <tr>
                                 <td>Potassium [Moles/volume] in Blood</td>
                                 <td>4.7</td>
                                 <td>3.5 - 5.3</td>
                                 <td>mmol/L</td>
                              </tr>
                              <tr>
                                 <td>Chloride [Moles/volume] in Blood</td>
                                 <td>
                                    <strong>109.9 H</strong>
                                 </td>
                                 <td>101 - 107</td>
                                 <td>mmol/L</td>
                              </tr>
                              <tr>
                                 <td>Carbon dioxide, total [Moles/volume] in Blood</td>
                                 <td>27.3</td>
                                 <td>22 - 32</td>
                                 <td>mmol/L</td>
                              </tr>
                              <tr>
                                 <td>Hemoglobin A1c/Hemoglobin.total in Blood</td>
                                 <td>5.9</td>
                                 <td>4.5 - 6.4</td>
                                 <td>%</td>
                              </tr>
                           </tbody>
                        </table>
                     </div>
                  </text>
                  <entry>
                     <reference value="urn:uuid:3ab0bae0-30b8-486a-b409-3f35b36be631"/>
                  </entry>
                  <entry>
                     <reference value="urn:uuid:60173012-f272-4bf0-9a34-357c463c26e3"/>
                  </entry>
                  <entry>
                     <reference value="urn:uuid:ab9ef918-9f54-48f8-9bdf-71d1d633471b"/>
                  </entry>
                  <entry>
                     <reference value="urn:uuid:222b74bc-d80b-429f-9583-1a96da94afec"/>
                  </entry>
                  <entry>
                     <reference value="urn:uuid:83cbdc4e-7220-40f7-a14f-b59cf6a08606"/>
                  </entry>
                  <entry>
                     <reference value="urn:uuid:9565a194-2e22-405e-843f-e63d264331af"/>
                  </entry>
                  <entry>
                     <reference value="urn:uuid:d9489c55-fad4-40e7-a276-27ecd5a902b5"/>
                  </entry>
                  <entry>
                     <reference value="urn:uuid:4cc1e755-f626-400f-bca5-84ecb7f41243"/>
                  </entry>
                  <entry>
                     <reference value="urn:uuid:1dc693bb-ac38-4d0f-aefc-410e87c0f79a"/>
                  </entry>
               </section>
            </section>
         </Composition>
      </resource>
   </entry>
   <entry>
      <fullUrl value="urn:uuid:58351a40-c92c-42d9-af56-ca32b3f1cf00"/>
      <resource>
         <DiagnosticReport>
            <id value="58351a40-c92c-42d9-af56-ca32b3f1cf00"/>
            <meta>
               <profile value="http://hl7.eu/fhir/laboratory/StructureDefinition/DiagnosticReport-eu-lab"/>
            </meta>
            <extension url="http://hl7.org/fhir/5.0/StructureDefinition/extension-DiagnosticReport.composition">
               <valueReference>
                  <reference value="urn:uuid:fcfa2d91-b340-44f2-bd95-c26744e32052"/>
               </valueReference>
            </extension>
            <identifier>
               <system value="urn:oid:2.16.840.1.113883.2.51.999"/>
               <value value="25840b6d-6623-4ff8-bfa9-0fbd4aa97815"/>
               <assigner>
                  <display value="HL7 Europe"/>
               </assigner>
            </identifier>
            <status value="registered"/>
            <category>
               <coding>
                  <system value="http://loinc.org"/>
                  <code value="18719-5"/>
                  <display value="Chemistry studies (set)"/>
               </coding>
            </category>
            <code>
               <coding>
                  <system value="http://loinc.org"/>
                  <code value="11502-2"/>
                  <display value="Laboratory report"/>
               </coding>
            </code>
            <subject>
               <reference value="urn:uuid:75f59761-52a3-4e6c-bd55-2fc6917b5742"/>
            </subject>
            <specimen>
               <reference value="urn:uuid:89060e33-f879-4fcc-964f-bc8f14fd97f5"/>
            </specimen>
            <result>
               <reference value="urn:uuid:3ab0bae0-30b8-486a-b409-3f35b36be631"/>
            </result>
            <result>
               <reference value="urn:uuid:60173012-f272-4bf0-9a34-357c463c26e3"/>
            </result>
            <result>
               <reference value="urn:uuid:ab9ef918-9f54-48f8-9bdf-71d1d633471b"/>
            </result>
            <result>
               <reference value="urn:uuid:222b74bc-d80b-429f-9583-1a96da94afec"/>
            </result>
            <result>
               <reference value="urn:uuid:83cbdc4e-7220-40f7-a14f-b59cf6a08606"/>
            </result>
            <result>
               <reference value="urn:uuid:9565a194-2e22-405e-843f-e63d264331af"/>
            </result>
            <result>
               <reference value="urn:uuid:d9489c55-fad4-40e7-a276-27ecd5a902b5"/>
            </result>
            <result>
               <reference value="urn:uuid:4cc1e755-f626-400f-bca5-84ecb7f41243"/>
            </result>
            <result>
               <reference value="urn:uuid:1dc693bb-ac38-4d0f-aefc-410e87c0f79a"/>
            </result>
         </DiagnosticReport>
      </resource>
   </entry>
   <entry>
      <fullUrl value="urn:uuid:75f59761-52a3-4e6c-bd55-2fc6917b5742"/>
      <resource>
         <Patient>
            <id value="75f59761-52a3-4e6c-bd55-2fc6917b5742"/>
            <meta>
               <profile value="http://hl7.eu/fhir/laboratory/StructureDefinition/Patient-eu-lab"/>
            </meta>
            <identifier>
               <type>
                  <coding>
                     <system value="http://terminology.hl7.org/CodeSystem/v2-0203"/>
                     <code value="NI"/>
                  </coding>
               </type>
               <system value="http://ec.europa.eu/identifier/eci"/>
               <value value="1809-386903-2"/>
            </identifier>
            <identifier>
               <type>
                  <coding>
                     <system value="http://terminology.hl7.org/CodeSystem/v2-0203"/>
                     <code value="MR"/>
                  </coding>
               </type>
               <system value="http://local.setting.eu/identifier"/>
               <value value="58560b0f-4c9e-4d68-b911-37d6103c368f"/>
            </identifier>
            <name>
               <text value="Bent Petersen"/>
               <family value="Petersen"/>
               <given value="Bent"/>
            </name>
            <telecom>
               <system value="phone"/>
               <value value="+45 25-23-20-59"/>
            </telecom>
            <gender value="male"/>
            <birthDate value="1942-09-12"/>
            <address>
               <use value="home"/>
               <type value="physical"/>
               <line value="Ladbyvej 93"/>
               <city value="Outrup"/>
               <postalCode value="6855"/>
               <country value="Denmark"/>
            </address>
         </Patient>
      </resource>
   </entry>
   <entry>
      <fullUrl value="urn:uuid:e7209a2e-1a4c-40fe-b329-eaf52be68d7a"/>
      <resource>
         <ServiceRequest>
            <id value="e7209a2e-1a4c-40fe-b329-eaf52be68d7a"/>
            <meta>
               <profile value="http://hl7.eu/fhir/laboratory/StructureDefinition/ServiceRequest-eu-lab"/>
            </meta>
            <identifier>
               <system value="http://example.org"/>
               <value value="7ad135c5-0324-4be9-986f-86472130060a"/>
            </identifier>
            <status value="active"/>
            <intent value="order"/>
            <code>
               <coding>
                  <system value="http://snomed.info/sct"/>
                  <code value="108252007"/>
                  <display value="Laboratory procedure"/>
               </coding>
            </code>
            <subject>
               <reference value="urn:uuid:75f59761-52a3-4e6c-bd55-2fc6917b5742"/>
            </subject>
            <requester>
               <reference value="urn:uuid:86a133b5-3937-4cca-9418-0bf486dd6460"/>
            </requester>
            <specimen>
               <reference value="urn:uuid:89060e33-f879-4fcc-964f-bc8f14fd97f5"/>
            </specimen>
         </ServiceRequest>
      </resource>
   </entry>
   <entry>
      <fullUrl value="urn:uuid:86a133b5-3937-4cca-9418-0bf486dd6460"/>
      <resource>
         <PractitionerRole>
            <id value="86a133b5-3937-4cca-9418-0bf486dd6460"/>
            <meta>
               <profile value="http://hl7.eu/fhir/laboratory/StructureDefinition/PractitionerRole-eu-lab"/>
            </meta>
            <organization>
               <reference value="urn:uuid:3f166095-0d05-425a-af83-f8c7f691caa6"/>
            </organization>
         </PractitionerRole>
      </resource>
   </entry>
   <entry>
      <fullUrl value="urn:uuid:3f166095-0d05-425a-af83-f8c7f691caa6"/>
      <resource>
         <Organization>
            <id value="3f166095-0d05-425a-af83-f8c7f691caa6"/>
            <meta>
               <profile value="http://hl7.org/fhir/uv/ips/StructureDefinition/Organization-uv-ips"/>
            </meta>
            <identifier>
               <system value="urn:oid:2.16.840.1.113883.2.51.999"/>
               <value value="b450b831-32d5-4191-a04b-dd0b54b8e724"/>
               <assigner>
                  <display value="HL7 Europe"/>
               </assigner>
            </identifier>
            <name value="Psykiatricenter Vest, Esbjerg"/>
            <address>
               <city value="Gjesing"/>
               <postalCode value="6715"/>
               <country value="dk"/>
            </address>
         </Organization>
      </resource>
   </entry>
   <entry>
      <fullUrl value="urn:uuid:6f080f41-3f44-4318-916b-27f0ef81fcb1"/>
      <resource>
         <PractitionerRole>
            <id value="6f080f41-3f44-4318-916b-27f0ef81fcb1"/>
            <meta>
               <profile value="http://hl7.eu/fhir/laboratory/StructureDefinition/PractitionerRole-eu-lab"/>
            </meta>
            <practitioner>
               <reference value="urn:uuid:574f3563-fb81-4803-90e3-0eb090e1cf84"/>
            </practitioner>
         </PractitionerRole>
      </resource>
   </entry>
   <entry>
      <fullUrl value="urn:uuid:574f3563-fb81-4803-90e3-0eb090e1cf84"/>
      <resource>
         <Practitioner>
            <id value="574f3563-fb81-4803-90e3-0eb090e1cf84"/>
            <meta>
               <profile value="http://hl7.eu/fhir/laboratory/StructureDefinition/Practitioner-eu-lab"/>
            </meta>
            <identifier>
               <system value="urn:oid:2.16.840.1.113883.2.51.999"/>
               <value value="6b6287bc-a325-4df4-92b2-f50e0233b30b"/>
               <assigner>
                  <display value="HL7 Europe"/>
               </assigner>
            </identifier>
            <name>
               <family value="Ample"/>
               <given value="Ex"/>
               <prefix value="dr"/>
            </name>
            <address>
               <line value="Boulevard du Jardin Botanique 32"/>
               <city value="Brussels"/>
               <postalCode value="1000"/>
            </address>
         </Practitioner>
      </resource>
   </entry>
   <entry>
      <fullUrl value="urn:uuid:89060e33-f879-4fcc-964f-bc8f14fd97f5"/>
      <resource>
         <Specimen>
            <id value="89060e33-f879-4fcc-964f-bc8f14fd97f5"/>
            <meta>
               <profile value="http://hl7.eu/fhir/laboratory/StructureDefinition/Specimen-eu-lab"/>
            </meta>
            <status value="available"/>
            <type>
               <coding>
                  <system value="http://snomed.info/sct"/>
                  <code value="258580003"/>
                  <display value="Whole blood specimen (specimen)"/>
               </coding>
            </type>
            <collection>
               <collectedDateTime value="2024-11-18"/>
            </collection>
         </Specimen>
      </resource>
   </entry>
   <entry>
      <fullUrl value="urn:uuid:3ab0bae0-30b8-486a-b409-3f35b36be631"/>
      <resource>
         <Observation>
            <id value="3ab0bae0-30b8-486a-b409-3f35b36be631"/>
            <meta>
               <profile value="http://hl7.eu/fhir/laboratory/StructureDefinition/Observation-resultslab-eu-lab"/>
            </meta>
            <status value="final"/>
            <category>
               <coding>
                  <system value="http://terminology.hl7.org/CodeSystem/observation-category"/>
                  <code value="laboratory"/>
               </coding>
            </category>
            <code>
               <coding>
                  <system value="http://loinc.org"/>
                  <code value="2339-0"/>
                  <display value="Glucose [Mass/volume] in Blood"/>
               </coding>
               <text value="Glucose [Mass/volume] in Blood"/>
            </code>
            <subject>
               <reference value="urn:uuid:75f59761-52a3-4e6c-bd55-2fc6917b5742"/>
            </subject>
            <effectiveDateTime value="2024-11-18"/>
            <performer>
               <display value="The Central European Lab"/>
            </performer>
            <valueQuantity>
               <value value="89"/>
               <unit value="mg/dL"/>
               <system value="http://unitsofmeasure.org"/>
               <code value="mg/dL"/>
            </valueQuantity>
            <specimen>
               <reference value="urn:uuid:89060e33-f879-4fcc-964f-bc8f14fd97f5"/>
            </specimen>
            <referenceRange>
               <low>
                  <value value="70"/>
                  <system value="http://unitsofmeasure.org"/>
                  <code value="mg/dL"/>
               </low>
            </referenceRange>
            <referenceRange>
               <high>
                  <value value="140"/>
                  <system value="http://unitsofmeasure.org"/>
                  <code value="mg/dL"/>
               </high>
            </referenceRange>
         </Observation>
      </resource>
   </entry>
   <entry>
      <fullUrl value="urn:uuid:60173012-f272-4bf0-9a34-357c463c26e3"/>
      <resource>
         <Observation>
            <id value="60173012-f272-4bf0-9a34-357c463c26e3"/>
            <meta>
               <profile value="http://hl7.eu/fhir/laboratory/StructureDefinition/Observation-resultslab-eu-lab"/>
            </meta>
            <status value="final"/>
            <category>
               <coding>
                  <system value="http://terminology.hl7.org/CodeSystem/observation-category"/>
                  <code value="laboratory"/>
               </coding>
            </category>
            <code>
               <coding>
                  <system value="http://loinc.org"/>
                  <code value="6299-2"/>
                  <display value="Urea nitrogen [Mass/volume] in Blood"/>
               </coding>
               <text value="Urea nitrogen [Mass/volume] in Blood"/>
            </code>
            <subject>
               <reference value="urn:uuid:75f59761-52a3-4e6c-bd55-2fc6917b5742"/>
            </subject>
            <effectiveDateTime value="2024-11-18"/>
            <performer>
               <display value="The Central European Lab"/>
            </performer>
            <valueQuantity>
               <value value="18.2"/>
               <unit value="mg/dL"/>
               <system value="http://unitsofmeasure.org"/>
               <code value="mg/dL"/>
            </valueQuantity>
            <specimen>
               <reference value="urn:uuid:89060e33-f879-4fcc-964f-bc8f14fd97f5"/>
            </specimen>
            <referenceRange>
               <low>
                  <value value="7"/>
                  <system value="http://unitsofmeasure.org"/>
                  <code value="mg/dL"/>
               </low>
            </referenceRange>
            <referenceRange>
               <high>
                  <value value="25"/>
                  <system value="http://unitsofmeasure.org"/>
                  <code value="mg/dL"/>
               </high>
            </referenceRange>
         </Observation>
      </resource>
   </entry>
   <entry>
      <fullUrl value="urn:uuid:ab9ef918-9f54-48f8-9bdf-71d1d633471b"/>
      <resource>
         <Observation>
            <id value="ab9ef918-9f54-48f8-9bdf-71d1d633471b"/>
            <meta>
               <profile value="http://hl7.eu/fhir/laboratory/StructureDefinition/Observation-resultslab-eu-lab"/>
            </meta>
            <status value="final"/>
            <category>
               <coding>
                  <system value="http://terminology.hl7.org/CodeSystem/observation-category"/>
                  <code value="laboratory"/>
               </coding>
            </category>
            <code>
               <coding>
                  <system value="http://loinc.org"/>
                  <code value="38483-4"/>
                  <display value="Creatinine [Mass/volume] in Blood"/>
               </coding>
               <text value="Creatinine [Mass/volume] in Blood"/>
            </code>
            <subject>
               <reference value="urn:uuid:75f59761-52a3-4e6c-bd55-2fc6917b5742"/>
            </subject>
            <effectiveDateTime value="2024-11-18"/>
            <performer>
               <display value="The Central European Lab"/>
            </performer>
            <valueQuantity>
               <value value="0.7"/>
               <unit value="mg/dL"/>
               <system value="http://unitsofmeasure.org"/>
               <code value="mg/dL"/>
            </valueQuantity>
            <specimen>
               <reference value="urn:uuid:89060e33-f879-4fcc-964f-bc8f14fd97f5"/>
            </specimen>
            <referenceRange>
               <low>
                  <value value="0.6"/>
                  <system value="http://unitsofmeasure.org"/>
                  <code value="mg/dL"/>
               </low>
            </referenceRange>
            <referenceRange>
               <high>
                  <value value="1.3"/>
                  <system value="http://unitsofmeasure.org"/>
                  <code value="mg/dL"/>
               </high>
            </referenceRange>
         </Observation>
      </resource>
   </entry>
   <entry>
      <fullUrl value="urn:uuid:222b74bc-d80b-429f-9583-1a96da94afec"/>
      <resource>
         <Observation>
            <id value="222b74bc-d80b-429f-9583-1a96da94afec"/>
            <meta>
               <profile value="http://hl7.eu/fhir/laboratory/StructureDefinition/Observation-resultslab-eu-lab"/>
            </meta>
            <status value="final"/>
            <category>
               <coding>
                  <system value="http://terminology.hl7.org/CodeSystem/observation-category"/>
                  <code value="laboratory"/>
               </coding>
            </category>
            <code>
               <coding>
                  <system value="http://loinc.org"/>
                  <code value="49765-1"/>
                  <display value="Calcium [Mass/volume] in Blood"/>
               </coding>
               <text value="Calcium [Mass/volume] in Blood"/>
            </code>
            <subject>
               <reference value="urn:uuid:75f59761-52a3-4e6c-bd55-2fc6917b5742"/>
            </subject>
            <effectiveDateTime value="2024-11-18"/>
            <performer>
               <display value="The Central European Lab"/>
            </performer>
            <valueQuantity>
               <value value="9.3"/>
               <unit value="mg/dL"/>
               <system value="http://unitsofmeasure.org"/>
               <code value="mg/dL"/>
            </valueQuantity>
            <specimen>
               <reference value="urn:uuid:89060e33-f879-4fcc-964f-bc8f14fd97f5"/>
            </specimen>
            <referenceRange>
               <low>
                  <value value="8.5"/>
                  <system value="http://unitsofmeasure.org"/>
                  <code value="mg/dL"/>
               </low>
            </referenceRange>
            <referenceRange>
               <high>
                  <value value="10.5"/>
                  <system value="http://unitsofmeasure.org"/>
                  <code value="mg/dL"/>
               </high>
            </referenceRange>
         </Observation>
      </resource>
   </entry>
   <entry>
      <fullUrl value="urn:uuid:83cbdc4e-7220-40f7-a14f-b59cf6a08606"/>
      <resource>
         <Observation>
            <id value="83cbdc4e-7220-40f7-a14f-b59cf6a08606"/>
            <meta>
               <profile value="http://hl7.eu/fhir/laboratory/StructureDefinition/Observation-resultslab-eu-lab"/>
            </meta>
            <status value="final"/>
            <category>
               <coding>
                  <system value="http://terminology.hl7.org/CodeSystem/observation-category"/>
                  <code value="laboratory"/>
               </coding>
            </category>
            <code>
               <coding>
                  <system value="http://loinc.org"/>
                  <code value="2947-0"/>
                  <display value="Sodium [Moles/volume] in Blood"/>
               </coding>
               <text value="Sodium [Moles/volume] in Blood"/>
            </code>
            <subject>
               <reference value="urn:uuid:75f59761-52a3-4e6c-bd55-2fc6917b5742"/>
            </subject>
            <effectiveDateTime value="2024-11-18"/>
            <performer>
               <display value="The Central European Lab"/>
            </performer>
            <valueQuantity>
               <value value="142"/>
               <unit value="mmol/L"/>
               <system value="http://unitsofmeasure.org"/>
               <code value="mmol/L"/>
            </valueQuantity>
            <specimen>
               <reference value="urn:uuid:89060e33-f879-4fcc-964f-bc8f14fd97f5"/>
            </specimen>
            <referenceRange>
               <low>
                  <value value="135"/>
                  <system value="http://unitsofmeasure.org"/>
                  <code value="mmol/L"/>
               </low>
            </referenceRange>
            <referenceRange>
               <high>
                  <value value="145"/>
                  <system value="http://unitsofmeasure.org"/>
                  <code value="mmol/L"/>
               </high>
            </referenceRange>
         </Observation>
      </resource>
   </entry>
   <entry>
      <fullUrl value="urn:uuid:9565a194-2e22-405e-843f-e63d264331af"/>
      <resource>
         <Observation>
            <id value="9565a194-2e22-405e-843f-e63d264331af"/>
            <meta>
               <profile value="http://hl7.eu/fhir/laboratory/StructureDefinition/Observation-resultslab-eu-lab"/>
            </meta>
            <status value="final"/>
            <category>
               <coding>
                  <system value="http://terminology.hl7.org/CodeSystem/observation-category"/>
                  <code value="laboratory"/>
               </coding>
            </category>
            <code>
               <coding>
                  <system value="http://loinc.org"/>
                  <code value="6298-4"/>
                  <display value="Potassium [Moles/volume] in Blood"/>
               </coding>
               <text value="Potassium [Moles/volume] in Blood"/>
            </code>
            <subject>
               <reference value="urn:uuid:75f59761-52a3-4e6c-bd55-2fc6917b5742"/>
            </subject>
            <effectiveDateTime value="2024-11-18"/>
            <performer>
               <display value="The Central European Lab"/>
            </performer>
            <valueQuantity>
               <value value="4.7"/>
               <unit value="mmol/L"/>
               <system value="http://unitsofmeasure.org"/>
               <code value="mmol/L"/>
            </valueQuantity>
            <specimen>
               <reference value="urn:uuid:89060e33-f879-4fcc-964f-bc8f14fd97f5"/>
            </specimen>
            <referenceRange>
               <low>
                  <value value="3.5"/>
                  <system value="http://unitsofmeasure.org"/>
                  <code value="mmol/L"/>
               </low>
            </referenceRange>
            <referenceRange>
               <high>
                  <value value="5.3"/>
                  <system value="http://unitsofmeasure.org"/>
                  <code value="mmol/L"/>
               </high>
            </referenceRange>
         </Observation>
      </resource>
   </entry>
   <entry>
      <fullUrl value="urn:uuid:d9489c55-fad4-40e7-a276-27ecd5a902b5"/>
      <resource>
         <Observation>
            <id value="d9489c55-fad4-40e7-a276-27ecd5a902b5"/>
            <meta>
               <profile value="http://hl7.eu/fhir/laboratory/StructureDefinition/Observation-resultslab-eu-lab"/>
            </meta>
            <status value="final"/>
            <category>
               <coding>
                  <system value="http://terminology.hl7.org/CodeSystem/observation-category"/>
                  <code value="laboratory"/>
               </coding>
            </category>
            <code>
               <coding>
                  <system value="http://loinc.org"/>
                  <code value="2069-3"/>
                  <display value="Chloride [Moles/volume] in Blood"/>
               </coding>
               <text value="Chloride [Moles/volume] in Blood"/>
            </code>
            <subject>
               <reference value="urn:uuid:75f59761-52a3-4e6c-bd55-2fc6917b5742"/>
            </subject>
            <effectiveDateTime value="2024-11-18"/>
            <performer>
               <display value="The Central European Lab"/>
            </performer>
            <valueQuantity>
               <value value="109.9"/>
               <unit value="mmol/L"/>
               <system value="http://unitsofmeasure.org"/>
               <code value="mmol/L"/>
            </valueQuantity>
            <interpretation>
               <coding>
                  <system value="http://terminology.hl7.org/CodeSystem/v3-ObservationInterpretation"/>
                  <code value="H"/>
                  <display value="High"/>
               </coding>
            </interpretation>
            <specimen>
               <reference value="urn:uuid:89060e33-f879-4fcc-964f-bc8f14fd97f5"/>
            </specimen>
            <referenceRange>
               <low>
                  <value value="101"/>
                  <system value="http://unitsofmeasure.org"/>
                  <code value="mmol/L"/>
               </low>
            </referenceRange>
            <referenceRange>
               <high>
                  <value value="107"/>
                  <system value="http://unitsofmeasure.org"/>
                  <code value="mmol/L"/>
               </high>
            </referenceRange>
         </Observation>
      </resource>
   </entry>
   <entry>
      <fullUrl value="urn:uuid:4cc1e755-f626-400f-bca5-84ecb7f41243"/>
      <resource>
         <Observation>
            <id value="4cc1e755-f626-400f-bca5-84ecb7f41243"/>
            <meta>
               <profile value="http://hl7.eu/fhir/laboratory/StructureDefinition/Observation-resultslab-eu-lab"/>
            </meta>
            <status value="final"/>
            <category>
               <coding>
                  <system value="http://terminology.hl7.org/CodeSystem/observation-category"/>
                  <code value="laboratory"/>
               </coding>
            </category>
            <code>
               <coding>
                  <system value="http://loinc.org"/>
                  <code value="20565-8"/>
                  <display value="Carbon dioxide, total [Moles/volume] in Blood"/>
               </coding>
               <text value="Carbon dioxide, total [Moles/volume] in Blood"/>
            </code>
            <subject>
               <reference value="urn:uuid:75f59761-52a3-4e6c-bd55-2fc6917b5742"/>
            </subject>
            <effectiveDateTime value="2024-11-18"/>
            <performer>
               <display value="The Central European Lab"/>
            </performer>
            <valueQuantity>
               <value value="27.3"/>
               <unit value="mmol/L"/>
               <system value="http://unitsofmeasure.org"/>
               <code value="mmol/L"/>
            </valueQuantity>
            <specimen>
               <reference value="urn:uuid:89060e33-f879-4fcc-964f-bc8f14fd97f5"/>
            </specimen>
            <referenceRange>
               <low>
                  <value value="22"/>
                  <system value="http://unitsofmeasure.org"/>
                  <code value="mmol/L"/>
               </low>
            </referenceRange>
            <referenceRange>
               <high>
                  <value value="32"/>
                  <system value="http://unitsofmeasure.org"/>
                  <code value="mmol/L"/>
               </high>
            </referenceRange>
         </Observation>
      </resource>
   </entry>
   <entry>
      <fullUrl value="urn:uuid:1dc693bb-ac38-4d0f-aefc-410e87c0f79a"/>
      <resource>
         <Observation>
            <id value="1dc693bb-ac38-4d0f-aefc-410e87c0f79a"/>
            <meta>
               <profile value="http://hl7.eu/fhir/laboratory/StructureDefinition/Observation-resultslab-eu-lab"/>
            </meta>
            <status value="final"/>
            <category>
               <coding>
                  <system value="http://terminology.hl7.org/CodeSystem/observation-category"/>
                  <code value="laboratory"/>
               </coding>
            </category>
            <code>
               <coding>
                  <system value="http://loinc.org"/>
                  <code value="4548-4"/>
                  <display value="Hemoglobin A1c/Hemoglobin.total in Blood"/>
               </coding>
               <text value="Hemoglobin A1c/Hemoglobin.total in Blood"/>
            </code>
            <subject>
               <reference value="urn:uuid:75f59761-52a3-4e6c-bd55-2fc6917b5742"/>
            </subject>
            <effectiveDateTime value="2024-11-18"/>
            <performer>
               <display value="The Central European Lab"/>
            </performer>
            <valueQuantity>
               <value value="5.9"/>
               <unit value="%"/>
               <system value="http://unitsofmeasure.org"/>
               <code value="%"/>
            </valueQuantity>
            <specimen>
               <reference value="urn:uuid:89060e33-f879-4fcc-964f-bc8f14fd97f5"/>
            </specimen>
            <referenceRange>
               <low>
                  <value value="4.5"/>
                  <system value="http://unitsofmeasure.org"/>
                  <code value="%"/>
               </low>
            </referenceRange>
            <referenceRange>
               <high>
                  <value value="6.4"/>
                  <system value="http://unitsofmeasure.org"/>
                  <code value="%"/>
               </high>
            </referenceRange>
         </Observation>
      </resource>
   </entry>
</Bundle>
