{
  "resourceType": "Bundle",
  "id": "Instance-Bundle-9a060f92-b262-4f8d-b385-6589fbef2940",
  "meta": {
    "profile": [
      "http://hl7.eu/fhir/laboratory/StructureDefinition/Bundle-eu-lab"
    ]
  },
  "identifier": {
    "assigner": {
      "display": "HL7 Europe"
    },
    "system": "urn:oid:2.16.840.1.113883.2.51.999",
    "value": "e685f63f-ea47-4f01-8e75-f5e33bf73e86"
  },
  "entry": [
    {
      "fullUrl": "urn:uuid:353ec21a-9b32-45dc-addd-16aa6cc0e77b",
      "resource": {
        "resourceType": "Composition",
        "id": "353ec21a-9b32-45dc-addd-16aa6cc0e77b",
        "meta": {
          "profile": [
            "http://hl7.eu/fhir/laboratory/StructureDefinition/Composition-eu-lab"
          ]
        },
        "identifier": {
          "assigner": {
            "display": "HL7 Europe"
          },
          "system": "urn:oid:2.16.840.1.113883.2.51.999",
          "value": "143e75aa-086f-42ac-b3e1-fc45404d1421"
        },
        "author": [
          {
            "reference": "urn:uuid:719ef5eb-a864-47d7-a31f-c80e470a799e"
          }
        ],
        "category": [
          {
            "coding": [
              {
                "code": "26436-6",
                "system": "http://loinc.org",
                "display": "Laboratory studies (set)"
              }
            ]
          }
        ],
        "type": {
          "text": "Laboratory Report"
        },
        "section": [
          {
            "code": {
              "coding": [
                {
                  "code": "26436-6",
                  "system": "http://loinc.org",
                  "display": "Laboratory studies (set)"
                }
              ],
              "text": "Laboratory studies"
            },
            "section": [
              {
                "code": {
                  "coding": [
                    {
                      "code": "18719-5",
                      "system": "http://loinc.org",
                      "display": "Chemistry studies (set)"
                    }
                  ],
                  "text": "Chemistry"
                },
                "entry": [
                  {
                    "reference": "urn:uuid:470b431b-b5ec-44f4-ae75-08f753e4e232"
                  }
                ],
                "text": {
                  "status": "generated",
                  "div": "<div xmlns=\"http://www.w3.org/1999/xhtml\"><h3 id=\"section-1\">Chemistry</h3><table class=\"hl7__eu__lab__report\"><thead><tr><th>Test</th><th>18 Nov 2024</th><th>Reference Range</th><th>Unit</th></tr></thead><tbody><tr><td>Oxygen saturation in Arterial blood</td><td><strong>84.0 L</strong></td><td>95 - 100</td><td>%</td></tr></tbody></table></div>"
                },
                "title": "Chemistry"
              },
              {
                "code": {
                  "coding": [
                    {
                      "code": "18725-2",
                      "system": "http://loinc.org",
                      "display": "Microbiology studies"
                    }
                  ],
                  "text": "Microbiology"
                },
                "entry": [
                  {
                    "reference": "urn:uuid:d7102b0d-96ab-43ba-b908-25e8ea2c80ad"
                  },
                  {
                    "reference": "urn:uuid:cd808e2a-9775-45a9-8d2e-284ab89725d3"
                  }
                ],
                "text": {
                  "status": "generated",
                  "div": "<div xmlns=\"http://www.w3.org/1999/xhtml\"><h3 id=\"section-2\">Microbiology</h3><table class=\"hl7__eu__lab__report\"><thead><tr><th>Test</th><th>18 Nov 2024</th><th>Reference Range</th><th>Unit</th></tr></thead><tbody><tr><td>Influenza virus A Ag [Presence] in Upper respiratory specimen by Rapid immunoassay</td><td>Not detected</td><td></td><td></td></tr><tr><td>Influenza virus B Ag [Presence] in Upper respiratory specimen by Rapid immunoassay</td><td>Not detected</td><td></td><td></td></tr></tbody></table></div>"
                },
                "title": "Microbiology"
              },
              {
                "code": {
                  "coding": [
                    {
                      "code": "18725-2",
                      "system": "http://loinc.org",
                      "display": "Microbiology studies"
                    }
                  ],
                  "text": "Microbiology Panel"
                },
                "entry": [
                  {
                    "reference": "urn:uuid:f1df0f84-0de2-481b-805f-9d4bbd2b6292"
                  }
                ],
                "text": {
                  "status": "generated",
                  "div": "<div xmlns=\"http://www.w3.org/1999/xhtml\"><h3 id=\"section-3\">Microbiology Panel</h3><table class=\"hl7__eu__lab__report\"><thead><tr><th>Test</th><th>18 Nov 2024</th><th>Reference Range</th><th>Unit</th></tr></thead><tbody><tr><td>SARS-CoV-2 (COVID-19) RNA panel - Respiratory system specimen by NAA with probe detection</td><td>Not detected</td><td></td><td></td></tr></tbody></table></div>"
                },
                "title": "Microbiology Panel"
              }
            ],
            "title": "Laboratory Report"
          }
        ],
        "status": "final",
        "subject": {
          "reference": "urn:uuid:d4b0e5fe-faf5-4cd6-a2f7-64218a33ac97"
        },
        "date": "2024-11-19T18:40:59Z",
        "title": "Laboratory Report",
        "confidentiality": "N"
      }
    },
    {
      "fullUrl": "urn:uuid:d5194eb5-ce4b-4826-98f2-0e4f516ac69f",
      "resource": {
        "resourceType": "DiagnosticReport",
        "id": "d5194eb5-ce4b-4826-98f2-0e4f516ac69f",
        "meta": {
          "profile": [
            "http://hl7.eu/fhir/laboratory/StructureDefinition/DiagnosticReport-eu-lab"
          ]
        },
        "identifier": [
          {
            "assigner": {
              "display": "HL7 Europe"
            },
            "system": "urn:oid:2.16.840.1.113883.2.51.999",
            "value": "7aa0ea7e-11ee-4d42-9eb2-4b9459b277aa"
          }
        ],
        "extension": [
          {
            "url": "http://hl7.org/fhir/5.0/StructureDefinition/extension-DiagnosticReport.composition",
            "valueReference": {
              "reference": "urn:uuid:353ec21a-9b32-45dc-addd-16aa6cc0e77b"
            }
          }
        ],
        "category": [
          {
            "coding": [
              {
                "code": "18719-5",
                "system": "http://loinc.org",
                "display": "Chemistry studies (set)"
              }
            ]
          }
        ],
        "specimen": [
          {
            "reference": "urn:uuid:9f4b4896-a780-4f03-bb19-c5e1219c7aac"
          },
          {
            "reference": "urn:uuid:bf1adb8f-2fd7-4289-8f82-057f8d7588db"
          },
          {
            "reference": "urn:uuid:56f9e7f1-ee5b-48f6-ab6e-b6c02e10caa5"
          }
        ],
        "result": [
          {
            "reference": "urn:uuid:470b431b-b5ec-44f4-ae75-08f753e4e232"
          },
          {
            "reference": "urn:uuid:d7102b0d-96ab-43ba-b908-25e8ea2c80ad"
          },
          {
            "reference": "urn:uuid:cd808e2a-9775-45a9-8d2e-284ab89725d3"
          },
          {
            "reference": "urn:uuid:f1df0f84-0de2-481b-805f-9d4bbd2b6292"
          }
        ],
        "status": "registered",
        "code": {
          "coding": [
            {
              "code": "11502-2",
              "system": "http://loinc.org",
              "display": "Laboratory report"
            }
          ]
        },
        "subject": {
          "reference": "urn:uuid:d4b0e5fe-faf5-4cd6-a2f7-64218a33ac97"
        }
      }
    },
    {
      "fullUrl": "urn:uuid:d4b0e5fe-faf5-4cd6-a2f7-64218a33ac97",
      "resource": {
        "resourceType": "Patient",
        "id": "d4b0e5fe-faf5-4cd6-a2f7-64218a33ac97",
        "meta": {
          "profile": [
            "http://hl7.eu/fhir/laboratory/StructureDefinition/Patient-eu-lab"
          ]
        },
        "identifier": [
          {
            "type": {
              "coding": [
                {
                  "code": "NI",
                  "system": "http://terminology.hl7.org/CodeSystem/v2-0203"
                }
              ]
            },
            "system": "http://ec.europa.eu/identifier/eci",
            "value": "4967-228670-2"
          },
          {
            "type": {
              "coding": [
                {
                  "code": "MR",
                  "system": "http://terminology.hl7.org/CodeSystem/v2-0203"
                }
              ]
            },
            "system": "http://local.setting.eu/identifier",
            "value": "30dbd712-971b-44aa-83ae-b67d6e1290e9"
          }
        ],
        "name": [
          {
            "given": [
              "Celina"
            ],
            "family": "Laursen",
            "text": "Celina Laursen"
          }
        ],
        "address": [
          {
            "line": [
              "Hovbanken 30"
            ],
            "use": "home",
            "type": "physical",
            "city": "Tinglev",
            "postalCode": "6360",
            "country": "Denmark"
          }
        ],
        "telecom": [
          {
            "system": "phone",
            "value": "+45 23-90-62-36"
          }
        ],
        "gender": "female",
        "birthDate": "1996-04-06"
      }
    },
    {
      "fullUrl": "urn:uuid:57b08af5-4e5f-41ff-965b-07ed88e9d11c",
      "resource": {
        "resourceType": "ServiceRequest",
        "id": "57b08af5-4e5f-41ff-965b-07ed88e9d11c",
        "meta": {
          "profile": [
            "http://hl7.eu/fhir/laboratory/StructureDefinition/ServiceRequest-eu-lab"
          ]
        },
        "identifier": [
          {
            "system": "http://example.org",
            "value": "46d7c2d5-44d7-44bd-bfb5-accd21a014b4"
          }
        ],
        "specimen": [
          {
            "reference": "urn:uuid:9f4b4896-a780-4f03-bb19-c5e1219c7aac"
          },
          {
            "reference": "urn:uuid:bf1adb8f-2fd7-4289-8f82-057f8d7588db"
          },
          {
            "reference": "urn:uuid:56f9e7f1-ee5b-48f6-ab6e-b6c02e10caa5"
          }
        ],
        "status": "active",
        "intent": "order",
        "code": {
          "coding": [
            {
              "code": "108252007",
              "system": "http://snomed.info/sct",
              "display": "Laboratory procedure"
            }
          ]
        },
        "subject": {
          "reference": "urn:uuid:d4b0e5fe-faf5-4cd6-a2f7-64218a33ac97"
        },
        "requester": {
          "reference": "urn:uuid:94824aec-b836-433c-b1b3-add9a3d48456"
        }
      }
    },
    {
      "fullUrl": "urn:uuid:94824aec-b836-433c-b1b3-add9a3d48456",
      "resource": {
        "resourceType": "PractitionerRole",
        "id": "94824aec-b836-433c-b1b3-add9a3d48456",
        "meta": {
          "profile": [
            "http://hl7.eu/fhir/laboratory/StructureDefinition/PractitionerRole-eu-lab"
          ]
        },
        "organization": {
          "reference": "urn:uuid:d001ffff-f611-4f2b-afd3-00df4633a5e0"
        }
      }
    },
    {
      "fullUrl": "urn:uuid:d001ffff-f611-4f2b-afd3-00df4633a5e0",
      "resource": {
        "resourceType": "Organization",
        "id": "d001ffff-f611-4f2b-afd3-00df4633a5e0",
        "meta": {
          "profile": [
            "http://hl7.org/fhir/uv/ips/StructureDefinition/Organization-uv-ips"
          ]
        },
        "identifier": [
          {
            "assigner": {
              "display": "HL7 Europe"
            },
            "system": "urn:oid:2.16.840.1.113883.2.51.999",
            "value": "59bf86ef-b433-4bbe-a701-a4c502632bbb"
          }
        ],
        "address": [
          {
            "city": "Padborg",
            "postalCode": "6330",
            "country": "dk"
          }
        ],
        "name": "Lægehuset"
      }
    },
    {
      "fullUrl": "urn:uuid:719ef5eb-a864-47d7-a31f-c80e470a799e",
      "resource": {
        "resourceType": "PractitionerRole",
        "id": "719ef5eb-a864-47d7-a31f-c80e470a799e",
        "meta": {
          "profile": [
            "http://hl7.eu/fhir/laboratory/StructureDefinition/PractitionerRole-eu-lab"
          ]
        },
        "practitioner": {
          "reference": "urn:uuid:59da6e83-4c70-4bdf-b9ec-8a30093d6be7"
        }
      }
    },
    {
      "fullUrl": "urn:uuid:59da6e83-4c70-4bdf-b9ec-8a30093d6be7",
      "resource": {
        "resourceType": "Practitioner",
        "id": "59da6e83-4c70-4bdf-b9ec-8a30093d6be7",
        "meta": {
          "profile": [
            "http://hl7.eu/fhir/laboratory/StructureDefinition/Practitioner-eu-lab"
          ]
        },
        "identifier": [
          {
            "assigner": {
              "display": "HL7 Europe"
            },
            "system": "urn:oid:2.16.840.1.113883.2.51.999",
            "value": "c4f829c6-6c83-4407-9f34-c5dd02fd5e82"
          }
        ],
        "name": [
          {
            "prefix": [
              "dr"
            ],
            "given": [
              "Ex"
            ],
            "family": "Ample"
          }
        ],
        "address": [
          {
            "line": [
              "Boulevard du Jardin Botanique 32"
            ],
            "city": "Brussels",
            "postalCode": "1000"
          }
        ]
      }
    },
    {
      "fullUrl": "urn:uuid:9f4b4896-a780-4f03-bb19-c5e1219c7aac",
      "resource": {
        "resourceType": "Specimen",
        "id": "9f4b4896-a780-4f03-bb19-c5e1219c7aac",
        "meta": {
          "profile": [
            "http://hl7.eu/fhir/laboratory/StructureDefinition/Specimen-eu-lab"
          ]
        },
        "collection": {
          "collectedDateTime": "2024-11-18"
        },
        "status": "available",
        "type": {
          "coding": [
            {
              "code": "122552005",
              "system": "http://snomed.info/sct",
              "display": "Arterial blood specimen (specimen)"
            }
          ]
        }
      }
    },
    {
      "fullUrl": "urn:uuid:bf1adb8f-2fd7-4289-8f82-057f8d7588db",
      "resource": {
        "resourceType": "Specimen",
        "id": "bf1adb8f-2fd7-4289-8f82-057f8d7588db",
        "meta": {
          "profile": [
            "http://hl7.eu/fhir/laboratory/StructureDefinition/Specimen-eu-lab"
          ]
        },
        "collection": {
          "collectedDateTime": "2024-11-18"
        },
        "status": "available",
        "type": {
          "coding": [
            {
              "code": "258604001",
              "system": "http://snomed.info/sct",
              "display": "Upper respiratory specimen (specimen)"
            }
          ]
        }
      }
    },
    {
      "fullUrl": "urn:uuid:56f9e7f1-ee5b-48f6-ab6e-b6c02e10caa5",
      "resource": {
        "resourceType": "Specimen",
        "id": "56f9e7f1-ee5b-48f6-ab6e-b6c02e10caa5",
        "meta": {
          "profile": [
            "http://hl7.eu/fhir/laboratory/StructureDefinition/Specimen-eu-lab"
          ]
        },
        "collection": {
          "collectedDateTime": "2024-11-18"
        },
        "status": "available",
        "type": {
          "coding": [
            {
              "code": "258603007",
              "system": "http://snomed.info/sct",
              "display": "Respiratory specimen (specimen)"
            }
          ]
        }
      }
    },
    {
      "fullUrl": "urn:uuid:470b431b-b5ec-44f4-ae75-08f753e4e232",
      "resource": {
        "resourceType": "Observation",
        "id": "470b431b-b5ec-44f4-ae75-08f753e4e232",
        "meta": {
          "profile": [
            "http://hl7.eu/fhir/laboratory/StructureDefinition/Observation-resultslab-eu-lab"
          ]
        },
        "performer": [
          {
            "display": "The Central European Lab"
          }
        ],
        "category": [
          {
            "coding": [
              {
                "code": "laboratory",
                "system": "http://terminology.hl7.org/CodeSystem/observation-category"
              }
            ]
          }
        ],
        "code": {
          "coding": [
            {
              "code": "2708-6",
              "system": "http://loinc.org",
              "display": "Oxygen saturation in Arterial blood"
            }
          ],
          "text": "Oxygen saturation in Arterial blood"
        },
        "valueQuantity": {
          "system": "http://unitsofmeasure.org",
          "value": 84,
          "unit": "%",
          "code": "%"
        },
        "referenceRange": [
          {
            "low": {
              "value": 95,
              "code": "%",
              "system": "http://unitsofmeasure.org"
            }
          },
          {
            "high": {
              "value": 100,
              "code": "%",
              "system": "http://unitsofmeasure.org"
            }
          }
        ],
        "interpretation": [
          {
            "coding": [
              {
                "code": "L",
                "system": "http://terminology.hl7.org/CodeSystem/v3-ObservationInterpretation",
                "display": "Low"
              }
            ]
          }
        ],
        "status": "final",
        "subject": {
          "reference": "urn:uuid:d4b0e5fe-faf5-4cd6-a2f7-64218a33ac97"
        },
        "effectiveDateTime": "2024-11-18",
        "specimen": {
          "reference": "urn:uuid:9f4b4896-a780-4f03-bb19-c5e1219c7aac"
        }
      }
    },
    {
      "fullUrl": "urn:uuid:d7102b0d-96ab-43ba-b908-25e8ea2c80ad",
      "resource": {
        "resourceType": "Observation",
        "id": "d7102b0d-96ab-43ba-b908-25e8ea2c80ad",
        "meta": {
          "profile": [
            "http://hl7.eu/fhir/laboratory/StructureDefinition/Observation-resultslab-eu-lab"
          ]
        },
        "performer": [
          {
            "display": "The Central European Lab"
          }
        ],
        "category": [
          {
            "coding": [
              {
                "code": "laboratory",
                "system": "http://terminology.hl7.org/CodeSystem/observation-category"
              }
            ]
          }
        ],
        "code": {
          "coding": [
            {
              "code": "80382-5",
              "system": "http://loinc.org",
              "display": "Influenza virus A Ag [Presence] in Upper respiratory specimen by Rapid immunoassay"
            }
          ],
          "text": "Influenza virus A Ag [Presence] in Upper respiratory specimen by Rapid immunoassay"
        },
        "status": "final",
        "subject": {
          "reference": "urn:uuid:d4b0e5fe-faf5-4cd6-a2f7-64218a33ac97"
        },
        "effectiveDateTime": "2024-11-18",
        "valueCodeableConcept": {
          "coding": [
            {
              "code": "260415000",
              "system": "http://snomed.info/sct",
              "display": "Not detected"
            }
          ]
        },
        "specimen": {
          "reference": "urn:uuid:bf1adb8f-2fd7-4289-8f82-057f8d7588db"
        }
      }
    },
    {
      "fullUrl": "urn:uuid:cd808e2a-9775-45a9-8d2e-284ab89725d3",
      "resource": {
        "resourceType": "Observation",
        "id": "cd808e2a-9775-45a9-8d2e-284ab89725d3",
        "meta": {
          "profile": [
            "http://hl7.eu/fhir/laboratory/StructureDefinition/Observation-resultslab-eu-lab"
          ]
        },
        "performer": [
          {
            "display": "The Central European Lab"
          }
        ],
        "category": [
          {
            "coding": [
              {
                "code": "laboratory",
                "system": "http://terminology.hl7.org/CodeSystem/observation-category"
              }
            ]
          }
        ],
        "code": {
          "coding": [
            {
              "code": "80383-3",
              "system": "http://loinc.org",
              "display": "Influenza virus B Ag [Presence] in Upper respiratory specimen by Rapid immunoassay"
            }
          ],
          "text": "Influenza virus B Ag [Presence] in Upper respiratory specimen by Rapid immunoassay"
        },
        "status": "final",
        "subject": {
          "reference": "urn:uuid:d4b0e5fe-faf5-4cd6-a2f7-64218a33ac97"
        },
        "effectiveDateTime": "2024-11-18",
        "valueCodeableConcept": {
          "coding": [
            {
              "code": "260415000",
              "system": "http://snomed.info/sct",
              "display": "Not detected"
            }
          ]
        },
        "specimen": {
          "reference": "urn:uuid:bf1adb8f-2fd7-4289-8f82-057f8d7588db"
        }
      }
    },
    {
      "fullUrl": "urn:uuid:f1df0f84-0de2-481b-805f-9d4bbd2b6292",
      "resource": {
        "resourceType": "Observation",
        "id": "f1df0f84-0de2-481b-805f-9d4bbd2b6292",
        "meta": {
          "profile": [
            "http://hl7.eu/fhir/laboratory/StructureDefinition/Observation-resultslab-eu-lab"
          ]
        },
        "performer": [
          {
            "display": "The Central European Lab"
          }
        ],
        "category": [
          {
            "coding": [
              {
                "code": "laboratory",
                "system": "http://terminology.hl7.org/CodeSystem/observation-category"
              }
            ]
          }
        ],
        "code": {
          "coding": [
            {
              "code": "94531-1",
              "system": "http://loinc.org",
              "display": "SARS-CoV-2 (COVID-19) RNA panel - Respiratory system specimen by NAA with probe detection"
            }
          ],
          "text": "SARS-CoV-2 (COVID-19) RNA panel - Respiratory system specimen by NAA with probe detection"
        },
        "status": "final",
        "subject": {
          "reference": "urn:uuid:d4b0e5fe-faf5-4cd6-a2f7-64218a33ac97"
        },
        "effectiveDateTime": "2024-11-18",
        "valueCodeableConcept": {
          "coding": [
            {
              "code": "260415000",
              "system": "http://snomed.info/sct",
              "display": "Not detected"
            }
          ]
        },
        "specimen": {
          "reference": "urn:uuid:56f9e7f1-ee5b-48f6-ab6e-b6c02e10caa5"
        }
      }
    }
  ],
  "type": "document",
  "timestamp": "2024-11-19T18:40:59Z"
}
