{
  "resourceType": "Bundle",
  "id": "Instance-Bundle-be1f3950-23a5-45aa-8862-a9314b7ced92",
  "meta": {
    "profile": [
      "http://hl7.eu/fhir/laboratory/StructureDefinition/Bundle-eu-lab"
    ]
  },
  "identifier": {
    "assigner": {
      "display": "HL7 Europe"
    },
    "system": "urn:oid:2.16.840.1.113883.2.51.999",
    "value": "45db1262-5b53-4b4a-bd55-ac66698ba9af"
  },
  "entry": [
    {
      "fullUrl": "urn:uuid:4be0f3d8-8047-49e1-8ecd-5c275527f75d",
      "resource": {
        "resourceType": "Composition",
        "id": "4be0f3d8-8047-49e1-8ecd-5c275527f75d",
        "meta": {
          "profile": [
            "http://hl7.eu/fhir/laboratory/StructureDefinition/Composition-eu-lab"
          ]
        },
        "identifier": {
          "assigner": {
            "display": "HL7 Europe"
          },
          "system": "urn:oid:2.16.840.1.113883.2.51.999",
          "value": "3bacbf50-2429-4e54-bbaf-2358e59a6502"
        },
        "author": [
          {
            "reference": "urn:uuid:846aa369-0550-441d-99fb-6bc3d4b7a343"
          }
        ],
        "category": [
          {
            "coding": [
              {
                "code": "26436-6",
                "system": "http://loinc.org",
                "display": "Laboratory studies (set)"
              }
            ]
          }
        ],
        "type": {
          "text": "Laboratory Report"
        },
        "section": [
          {
            "code": {
              "coding": [
                {
                  "code": "26436-6",
                  "system": "http://loinc.org",
                  "display": "Laboratory studies (set)"
                }
              ],
              "text": "Laboratory studies"
            },
            "section": [
              {
                "code": {
                  "coding": [
                    {
                      "code": "18723-7",
                      "system": "http://loinc.org",
                      "display": "Hematology studies (set)"
                    }
                  ],
                  "text": "Hematology"
                },
                "entry": [
                  {
                    "reference": "urn:uuid:05274a01-927a-4688-b028-c3ba757eb17d"
                  },
                  {
                    "reference": "urn:uuid:a5fdc0e4-fa04-4123-9475-caf9b606fb8a"
                  },
                  {
                    "reference": "urn:uuid:7578c786-822f-4d42-997d-b1825cd598e7"
                  },
                  {
                    "reference": "urn:uuid:86a33e3d-2d8d-40f8-84ee-3964ead39037"
                  },
                  {
                    "reference": "urn:uuid:9006391d-399d-46e8-b3a6-017cc21d47f3"
                  },
                  {
                    "reference": "urn:uuid:6ceb3c27-f498-4810-a9d6-8fb308229b14"
                  },
                  {
                    "reference": "urn:uuid:fc6acf37-b9e1-4827-ab47-564c97f4db2f"
                  },
                  {
                    "reference": "urn:uuid:308624f9-385a-4291-a464-4403e6747da4"
                  },
                  {
                    "reference": "urn:uuid:6619a410-e369-4f1b-b60c-373255098a0c"
                  },
                  {
                    "reference": "urn:uuid:e923023a-4074-4bfc-8f92-2c73c9a9f3f2"
                  },
                  {
                    "reference": "urn:uuid:411275c7-e80a-463d-824f-14908d67a294"
                  }
                ],
                "text": {
                  "status": "generated",
                  "div": "<div xmlns=\"http://www.w3.org/1999/xhtml\"><h3 id=\"section-1\">Hematology</h3><table class=\"hl7__eu__lab__report\"><thead><tr><th>Test</th><th>18 Nov 2024</th><th>Reference Range</th><th>Unit</th></tr></thead><tbody><tr><td>Leukocytes [#/volume] in Blood by Automated count</td><td>9.0</td><td>4 - 11</td><td>10*3/uL</td></tr><tr><td>Erythrocytes [#/volume] in Blood by Automated count</td><td>4.7</td><td>4.1 - 5.2</td><td>10*6/uL</td></tr><tr><td>Hemoglobin [Mass/volume] in Blood</td><td>13.9</td><td>12 - 16</td><td>g/dL</td></tr><tr><td>Hematocrit [Volume Fraction] of Blood by Automated count</td><td>40.6</td><td>38 - 54</td><td>%</td></tr><tr><td>MCV [Entitic volume] by Automated count</td><td><strong>80.3 L</strong></td><td>82 - 98</td><td>fL</td></tr><tr><td>MCH [Entitic mass] by Automated count</td><td>27.3</td><td>27 - 33.5</td><td>pg</td></tr><tr><td>MCHC [Mass/volume] by Automated count</td><td>33.9</td><td>31 - 35</td><td>g/dL</td></tr><tr><td>Erythrocyte distribution width [Entitic volume] by Automated count</td><td>45.3</td><td>36 - 55</td><td>fL</td></tr><tr><td>Platelets [#/volume] in Blood by Automated count</td><td>150.3</td><td>150 - 450</td><td>10*3/uL</td></tr><tr><td>Platelet distribution width [Entitic volume] in Blood by Automated count</td><td>345.5</td><td>150 - 450</td><td>fL</td></tr><tr><td>Platelet mean volume [Entitic volume] in Blood by Automated count</td><td>12.0</td><td>7.2 - 13.5</td><td>fL</td></tr></tbody></table></div>"
                },
                "title": "Hematology"
              }
            ],
            "title": "Laboratory Report"
          }
        ],
        "status": "final",
        "subject": {
          "reference": "urn:uuid:202d6a71-184e-4435-9853-e608837c18bb"
        },
        "date": "2024-11-19T18:39:52Z",
        "title": "Laboratory Report",
        "confidentiality": "N"
      }
    },
    {
      "fullUrl": "urn:uuid:b84807f1-25ef-4c78-9585-58d35b975b99",
      "resource": {
        "resourceType": "DiagnosticReport",
        "id": "b84807f1-25ef-4c78-9585-58d35b975b99",
        "meta": {
          "profile": [
            "http://hl7.eu/fhir/laboratory/StructureDefinition/DiagnosticReport-eu-lab"
          ]
        },
        "identifier": [
          {
            "assigner": {
              "display": "HL7 Europe"
            },
            "system": "urn:oid:2.16.840.1.113883.2.51.999",
            "value": "c34fd451-b001-4ee3-aedb-4b5300a7ae3f"
          }
        ],
        "extension": [
          {
            "url": "http://hl7.org/fhir/5.0/StructureDefinition/extension-DiagnosticReport.composition",
            "valueReference": {
              "reference": "urn:uuid:4be0f3d8-8047-49e1-8ecd-5c275527f75d"
            }
          }
        ],
        "category": [
          {
            "coding": [
              {
                "code": "18719-5",
                "system": "http://loinc.org",
                "display": "Chemistry studies (set)"
              }
            ]
          }
        ],
        "specimen": [
          {
            "reference": "urn:uuid:e527c06e-a26d-4afa-a876-bdb4dab43a67"
          },
          {
            "reference": "urn:uuid:77e73bbd-6500-41f3-96cf-d62c9d96a172"
          }
        ],
        "result": [
          {
            "reference": "urn:uuid:05274a01-927a-4688-b028-c3ba757eb17d"
          },
          {
            "reference": "urn:uuid:a5fdc0e4-fa04-4123-9475-caf9b606fb8a"
          },
          {
            "reference": "urn:uuid:7578c786-822f-4d42-997d-b1825cd598e7"
          },
          {
            "reference": "urn:uuid:86a33e3d-2d8d-40f8-84ee-3964ead39037"
          },
          {
            "reference": "urn:uuid:9006391d-399d-46e8-b3a6-017cc21d47f3"
          },
          {
            "reference": "urn:uuid:6ceb3c27-f498-4810-a9d6-8fb308229b14"
          },
          {
            "reference": "urn:uuid:fc6acf37-b9e1-4827-ab47-564c97f4db2f"
          },
          {
            "reference": "urn:uuid:308624f9-385a-4291-a464-4403e6747da4"
          },
          {
            "reference": "urn:uuid:6619a410-e369-4f1b-b60c-373255098a0c"
          },
          {
            "reference": "urn:uuid:e923023a-4074-4bfc-8f92-2c73c9a9f3f2"
          },
          {
            "reference": "urn:uuid:411275c7-e80a-463d-824f-14908d67a294"
          }
        ],
        "status": "registered",
        "code": {
          "coding": [
            {
              "code": "11502-2",
              "system": "http://loinc.org",
              "display": "Laboratory report"
            }
          ]
        },
        "subject": {
          "reference": "urn:uuid:202d6a71-184e-4435-9853-e608837c18bb"
        }
      }
    },
    {
      "fullUrl": "urn:uuid:202d6a71-184e-4435-9853-e608837c18bb",
      "resource": {
        "resourceType": "Patient",
        "id": "202d6a71-184e-4435-9853-e608837c18bb",
        "meta": {
          "profile": [
            "http://hl7.eu/fhir/laboratory/StructureDefinition/Patient-eu-lab"
          ]
        },
        "identifier": [
          {
            "type": {
              "coding": [
                {
                  "code": "NI",
                  "system": "http://terminology.hl7.org/CodeSystem/v2-0203"
                }
              ]
            },
            "system": "http://ec.europa.eu/identifier/eci",
            "value": "1270-586036-4"
          },
          {
            "type": {
              "coding": [
                {
                  "code": "MR",
                  "system": "http://terminology.hl7.org/CodeSystem/v2-0203"
                }
              ]
            },
            "system": "http://local.setting.eu/identifier",
            "value": "b52c63c1-617a-442c-b733-14600d1e6119"
          }
        ],
        "name": [
          {
            "given": [
              "Eduarda"
            ],
            "family": "Campos",
            "text": "Eduarda Campos"
          }
        ],
        "address": [
          {
            "line": [
              "Cartagena 11"
            ],
            "use": "home",
            "type": "physical",
            "city": "Cieza",
            "postalCode": "30530",
            "country": "Spain"
          }
        ],
        "telecom": [
          {
            "system": "phone",
            "value": "+34 660 239 114"
          }
        ],
        "gender": "female",
        "birthDate": "1970-12-14"
      }
    },
    {
      "fullUrl": "urn:uuid:22e967b2-c2b9-475e-b9f3-101a25c39a97",
      "resource": {
        "resourceType": "ServiceRequest",
        "id": "22e967b2-c2b9-475e-b9f3-101a25c39a97",
        "meta": {
          "profile": [
            "http://hl7.eu/fhir/laboratory/StructureDefinition/ServiceRequest-eu-lab"
          ]
        },
        "identifier": [
          {
            "system": "http://example.org",
            "value": "a2a4eae2-23b1-462d-8627-6e3e64eb2cd2"
          }
        ],
        "specimen": [
          {
            "reference": "urn:uuid:e527c06e-a26d-4afa-a876-bdb4dab43a67"
          },
          {
            "reference": "urn:uuid:77e73bbd-6500-41f3-96cf-d62c9d96a172"
          }
        ],
        "status": "active",
        "intent": "order",
        "code": {
          "coding": [
            {
              "code": "108252007",
              "system": "http://snomed.info/sct",
              "display": "Laboratory procedure"
            }
          ]
        },
        "subject": {
          "reference": "urn:uuid:202d6a71-184e-4435-9853-e608837c18bb"
        },
        "requester": {
          "reference": "urn:uuid:ec0dff97-353f-4229-8b97-6d9e749c3d43"
        }
      }
    },
    {
      "fullUrl": "urn:uuid:ec0dff97-353f-4229-8b97-6d9e749c3d43",
      "resource": {
        "resourceType": "PractitionerRole",
        "id": "ec0dff97-353f-4229-8b97-6d9e749c3d43",
        "meta": {
          "profile": [
            "http://hl7.eu/fhir/laboratory/StructureDefinition/PractitionerRole-eu-lab"
          ]
        },
        "organization": {
          "reference": "urn:uuid:63204e28-4e21-4164-b1a6-a900d0e6c831"
        }
      }
    },
    {
      "fullUrl": "urn:uuid:63204e28-4e21-4164-b1a6-a900d0e6c831",
      "resource": {
        "resourceType": "Organization",
        "id": "63204e28-4e21-4164-b1a6-a900d0e6c831",
        "meta": {
          "profile": [
            "http://hl7.org/fhir/uv/ips/StructureDefinition/Organization-uv-ips"
          ]
        },
        "identifier": [
          {
            "assigner": {
              "display": "HL7 Europe"
            },
            "system": "urn:oid:2.16.840.1.113883.2.51.999",
            "value": "b72d6282-65cb-4885-a5c6-cadb36d0b3f5"
          }
        ],
        "address": [
          {
            "city": "Cieza",
            "postalCode": "30530",
            "country": "es"
          }
        ],
        "name": "Hospital de la Vega Lorenzo Guirao"
      }
    },
    {
      "fullUrl": "urn:uuid:846aa369-0550-441d-99fb-6bc3d4b7a343",
      "resource": {
        "resourceType": "PractitionerRole",
        "id": "846aa369-0550-441d-99fb-6bc3d4b7a343",
        "meta": {
          "profile": [
            "http://hl7.eu/fhir/laboratory/StructureDefinition/PractitionerRole-eu-lab"
          ]
        },
        "practitioner": {
          "reference": "urn:uuid:67d35d60-a51a-4689-9375-befb323eeda6"
        }
      }
    },
    {
      "fullUrl": "urn:uuid:67d35d60-a51a-4689-9375-befb323eeda6",
      "resource": {
        "resourceType": "Practitioner",
        "id": "67d35d60-a51a-4689-9375-befb323eeda6",
        "meta": {
          "profile": [
            "http://hl7.eu/fhir/laboratory/StructureDefinition/Practitioner-eu-lab"
          ]
        },
        "identifier": [
          {
            "assigner": {
              "display": "HL7 Europe"
            },
            "system": "urn:oid:2.16.840.1.113883.2.51.999",
            "value": "185bf276-f35d-4c23-8561-5c815a42648d"
          }
        ],
        "name": [
          {
            "prefix": [
              "dr"
            ],
            "given": [
              "Ex"
            ],
            "family": "Ample"
          }
        ],
        "address": [
          {
            "line": [
              "Boulevard du Jardin Botanique 32"
            ],
            "city": "Brussels",
            "postalCode": "1000"
          }
        ]
      }
    },
    {
      "fullUrl": "urn:uuid:e527c06e-a26d-4afa-a876-bdb4dab43a67",
      "resource": {
        "resourceType": "Specimen",
        "id": "e527c06e-a26d-4afa-a876-bdb4dab43a67",
        "meta": {
          "profile": [
            "http://hl7.eu/fhir/laboratory/StructureDefinition/Specimen-eu-lab"
          ]
        },
        "collection": {
          "collectedDateTime": "2024-11-18"
        },
        "status": "available",
        "type": {
          "coding": [
            {
              "code": "258580003",
              "system": "http://snomed.info/sct",
              "display": "Whole blood specimen (specimen)"
            }
          ]
        }
      }
    },
    {
      "fullUrl": "urn:uuid:77e73bbd-6500-41f3-96cf-d62c9d96a172",
      "resource": {
        "resourceType": "Specimen",
        "id": "77e73bbd-6500-41f3-96cf-d62c9d96a172",
        "meta": {
          "profile": [
            "http://hl7.eu/fhir/laboratory/StructureDefinition/Specimen-eu-lab"
          ]
        },
        "collection": {
          "collectedDateTime": "2024-11-18"
        },
        "status": "available",
        "type": {
          "coding": [
            {
              "code": "258580003",
              "system": "http://snomed.info/sct",
              "display": "Whole blood specimen (specimen)"
            }
          ]
        }
      }
    },
    {
      "fullUrl": "urn:uuid:05274a01-927a-4688-b028-c3ba757eb17d",
      "resource": {
        "resourceType": "Observation",
        "id": "05274a01-927a-4688-b028-c3ba757eb17d",
        "meta": {
          "profile": [
            "http://hl7.eu/fhir/laboratory/StructureDefinition/Observation-resultslab-eu-lab"
          ]
        },
        "performer": [
          {
            "display": "The Central European Lab"
          }
        ],
        "category": [
          {
            "coding": [
              {
                "code": "laboratory",
                "system": "http://terminology.hl7.org/CodeSystem/observation-category"
              }
            ]
          }
        ],
        "code": {
          "coding": [
            {
              "code": "6690-2",
              "system": "http://loinc.org",
              "display": "Leukocytes [#/volume] in Blood by Automated count"
            }
          ],
          "text": "Leukocytes [#/volume] in Blood by Automated count"
        },
        "valueQuantity": {
          "system": "http://unitsofmeasure.org",
          "value": 9,
          "unit": "10*3/uL",
          "code": "10*3/uL"
        },
        "referenceRange": [
          {
            "low": {
              "value": 4,
              "code": "10*3/uL",
              "system": "http://unitsofmeasure.org"
            }
          },
          {
            "high": {
              "value": 11,
              "code": "10*3/uL",
              "system": "http://unitsofmeasure.org"
            }
          }
        ],
        "status": "final",
        "subject": {
          "reference": "urn:uuid:202d6a71-184e-4435-9853-e608837c18bb"
        },
        "effectiveDateTime": "2024-11-18",
        "specimen": {
          "reference": "urn:uuid:e527c06e-a26d-4afa-a876-bdb4dab43a67"
        }
      }
    },
    {
      "fullUrl": "urn:uuid:a5fdc0e4-fa04-4123-9475-caf9b606fb8a",
      "resource": {
        "resourceType": "Observation",
        "id": "a5fdc0e4-fa04-4123-9475-caf9b606fb8a",
        "meta": {
          "profile": [
            "http://hl7.eu/fhir/laboratory/StructureDefinition/Observation-resultslab-eu-lab"
          ]
        },
        "performer": [
          {
            "display": "The Central European Lab"
          }
        ],
        "category": [
          {
            "coding": [
              {
                "code": "laboratory",
                "system": "http://terminology.hl7.org/CodeSystem/observation-category"
              }
            ]
          }
        ],
        "code": {
          "coding": [
            {
              "code": "789-8",
              "system": "http://loinc.org",
              "display": "Erythrocytes [#/volume] in Blood by Automated count"
            }
          ],
          "text": "Erythrocytes [#/volume] in Blood by Automated count"
        },
        "valueQuantity": {
          "system": "http://unitsofmeasure.org",
          "value": 4.7,
          "unit": "10*6/uL",
          "code": "10*6/uL"
        },
        "referenceRange": [
          {
            "low": {
              "value": 4.1,
              "code": "10*6/uL",
              "system": "http://unitsofmeasure.org"
            }
          },
          {
            "high": {
              "value": 5.2,
              "code": "10*6/uL",
              "system": "http://unitsofmeasure.org"
            }
          }
        ],
        "status": "final",
        "subject": {
          "reference": "urn:uuid:202d6a71-184e-4435-9853-e608837c18bb"
        },
        "effectiveDateTime": "2024-11-18",
        "specimen": {
          "reference": "urn:uuid:e527c06e-a26d-4afa-a876-bdb4dab43a67"
        }
      }
    },
    {
      "fullUrl": "urn:uuid:7578c786-822f-4d42-997d-b1825cd598e7",
      "resource": {
        "resourceType": "Observation",
        "id": "7578c786-822f-4d42-997d-b1825cd598e7",
        "meta": {
          "profile": [
            "http://hl7.eu/fhir/laboratory/StructureDefinition/Observation-resultslab-eu-lab"
          ]
        },
        "performer": [
          {
            "display": "The Central European Lab"
          }
        ],
        "category": [
          {
            "coding": [
              {
                "code": "laboratory",
                "system": "http://terminology.hl7.org/CodeSystem/observation-category"
              }
            ]
          }
        ],
        "code": {
          "coding": [
            {
              "code": "718-7",
              "system": "http://loinc.org",
              "display": "Hemoglobin [Mass/volume] in Blood"
            }
          ],
          "text": "Hemoglobin [Mass/volume] in Blood"
        },
        "valueQuantity": {
          "system": "http://unitsofmeasure.org",
          "value": 13.9,
          "unit": "g/dL",
          "code": "g/dL"
        },
        "referenceRange": [
          {
            "low": {
              "value": 12,
              "code": "g/dL",
              "system": "http://unitsofmeasure.org"
            }
          },
          {
            "high": {
              "value": 16,
              "code": "g/dL",
              "system": "http://unitsofmeasure.org"
            }
          }
        ],
        "status": "final",
        "subject": {
          "reference": "urn:uuid:202d6a71-184e-4435-9853-e608837c18bb"
        },
        "effectiveDateTime": "2024-11-18",
        "specimen": {
          "reference": "urn:uuid:e527c06e-a26d-4afa-a876-bdb4dab43a67"
        }
      }
    },
    {
      "fullUrl": "urn:uuid:86a33e3d-2d8d-40f8-84ee-3964ead39037",
      "resource": {
        "resourceType": "Observation",
        "id": "86a33e3d-2d8d-40f8-84ee-3964ead39037",
        "meta": {
          "profile": [
            "http://hl7.eu/fhir/laboratory/StructureDefinition/Observation-resultslab-eu-lab"
          ]
        },
        "performer": [
          {
            "display": "The Central European Lab"
          }
        ],
        "category": [
          {
            "coding": [
              {
                "code": "laboratory",
                "system": "http://terminology.hl7.org/CodeSystem/observation-category"
              }
            ]
          }
        ],
        "code": {
          "coding": [
            {
              "code": "4544-3",
              "system": "http://loinc.org",
              "display": "Hematocrit [Volume Fraction] of Blood by Automated count"
            }
          ],
          "text": "Hematocrit [Volume Fraction] of Blood by Automated count"
        },
        "valueQuantity": {
          "system": "http://unitsofmeasure.org",
          "value": 40.6,
          "unit": "%",
          "code": "%"
        },
        "referenceRange": [
          {
            "low": {
              "value": 38,
              "code": "%",
              "system": "http://unitsofmeasure.org"
            }
          },
          {
            "high": {
              "value": 54,
              "code": "%",
              "system": "http://unitsofmeasure.org"
            }
          }
        ],
        "status": "final",
        "subject": {
          "reference": "urn:uuid:202d6a71-184e-4435-9853-e608837c18bb"
        },
        "effectiveDateTime": "2024-11-18",
        "specimen": {
          "reference": "urn:uuid:e527c06e-a26d-4afa-a876-bdb4dab43a67"
        }
      }
    },
    {
      "fullUrl": "urn:uuid:9006391d-399d-46e8-b3a6-017cc21d47f3",
      "resource": {
        "resourceType": "Observation",
        "id": "9006391d-399d-46e8-b3a6-017cc21d47f3",
        "meta": {
          "profile": [
            "http://hl7.eu/fhir/laboratory/StructureDefinition/Observation-resultslab-eu-lab"
          ]
        },
        "performer": [
          {
            "display": "The Central European Lab"
          }
        ],
        "category": [
          {
            "coding": [
              {
                "code": "laboratory",
                "system": "http://terminology.hl7.org/CodeSystem/observation-category"
              }
            ]
          }
        ],
        "code": {
          "coding": [
            {
              "code": "787-2",
              "system": "http://loinc.org",
              "display": "MCV [Entitic volume] by Automated count"
            }
          ],
          "text": "MCV [Entitic volume] by Automated count"
        },
        "valueQuantity": {
          "system": "http://unitsofmeasure.org",
          "value": 80.3,
          "unit": "fL",
          "code": "fL"
        },
        "referenceRange": [
          {
            "low": {
              "value": 82,
              "code": "fL",
              "system": "http://unitsofmeasure.org"
            }
          },
          {
            "high": {
              "value": 98,
              "code": "fL",
              "system": "http://unitsofmeasure.org"
            }
          }
        ],
        "interpretation": [
          {
            "coding": [
              {
                "code": "L",
                "system": "http://terminology.hl7.org/CodeSystem/v3-ObservationInterpretation",
                "display": "Low"
              }
            ]
          }
        ],
        "status": "final",
        "subject": {
          "reference": "urn:uuid:202d6a71-184e-4435-9853-e608837c18bb"
        },
        "effectiveDateTime": "2024-11-18",
        "specimen": {
          "reference": "urn:uuid:77e73bbd-6500-41f3-96cf-d62c9d96a172"
        }
      }
    },
    {
      "fullUrl": "urn:uuid:6ceb3c27-f498-4810-a9d6-8fb308229b14",
      "resource": {
        "resourceType": "Observation",
        "id": "6ceb3c27-f498-4810-a9d6-8fb308229b14",
        "meta": {
          "profile": [
            "http://hl7.eu/fhir/laboratory/StructureDefinition/Observation-resultslab-eu-lab"
          ]
        },
        "performer": [
          {
            "display": "The Central European Lab"
          }
        ],
        "category": [
          {
            "coding": [
              {
                "code": "laboratory",
                "system": "http://terminology.hl7.org/CodeSystem/observation-category"
              }
            ]
          }
        ],
        "code": {
          "coding": [
            {
              "code": "785-6",
              "system": "http://loinc.org",
              "display": "MCH [Entitic mass] by Automated count"
            }
          ],
          "text": "MCH [Entitic mass] by Automated count"
        },
        "valueQuantity": {
          "system": "http://unitsofmeasure.org",
          "value": 27.3,
          "unit": "pg",
          "code": "pg"
        },
        "referenceRange": [
          {
            "low": {
              "value": 27,
              "code": "pg",
              "system": "http://unitsofmeasure.org"
            }
          },
          {
            "high": {
              "value": 33.5,
              "code": "pg",
              "system": "http://unitsofmeasure.org"
            }
          }
        ],
        "status": "final",
        "subject": {
          "reference": "urn:uuid:202d6a71-184e-4435-9853-e608837c18bb"
        },
        "effectiveDateTime": "2024-11-18",
        "specimen": {
          "reference": "urn:uuid:77e73bbd-6500-41f3-96cf-d62c9d96a172"
        }
      }
    },
    {
      "fullUrl": "urn:uuid:fc6acf37-b9e1-4827-ab47-564c97f4db2f",
      "resource": {
        "resourceType": "Observation",
        "id": "fc6acf37-b9e1-4827-ab47-564c97f4db2f",
        "meta": {
          "profile": [
            "http://hl7.eu/fhir/laboratory/StructureDefinition/Observation-resultslab-eu-lab"
          ]
        },
        "performer": [
          {
            "display": "The Central European Lab"
          }
        ],
        "category": [
          {
            "coding": [
              {
                "code": "laboratory",
                "system": "http://terminology.hl7.org/CodeSystem/observation-category"
              }
            ]
          }
        ],
        "code": {
          "coding": [
            {
              "code": "786-4",
              "system": "http://loinc.org",
              "display": "MCHC [Mass/volume] by Automated count"
            }
          ],
          "text": "MCHC [Mass/volume] by Automated count"
        },
        "valueQuantity": {
          "system": "http://unitsofmeasure.org",
          "value": 33.9,
          "unit": "g/dL",
          "code": "g/dL"
        },
        "referenceRange": [
          {
            "low": {
              "value": 31,
              "code": "g/dL",
              "system": "http://unitsofmeasure.org"
            }
          },
          {
            "high": {
              "value": 35,
              "code": "g/dL",
              "system": "http://unitsofmeasure.org"
            }
          }
        ],
        "status": "final",
        "subject": {
          "reference": "urn:uuid:202d6a71-184e-4435-9853-e608837c18bb"
        },
        "effectiveDateTime": "2024-11-18",
        "specimen": {
          "reference": "urn:uuid:77e73bbd-6500-41f3-96cf-d62c9d96a172"
        }
      }
    },
    {
      "fullUrl": "urn:uuid:308624f9-385a-4291-a464-4403e6747da4",
      "resource": {
        "resourceType": "Observation",
        "id": "308624f9-385a-4291-a464-4403e6747da4",
        "meta": {
          "profile": [
            "http://hl7.eu/fhir/laboratory/StructureDefinition/Observation-resultslab-eu-lab"
          ]
        },
        "performer": [
          {
            "display": "The Central European Lab"
          }
        ],
        "category": [
          {
            "coding": [
              {
                "code": "laboratory",
                "system": "http://terminology.hl7.org/CodeSystem/observation-category"
              }
            ]
          }
        ],
        "code": {
          "coding": [
            {
              "code": "21000-5",
              "system": "http://loinc.org",
              "display": "Erythrocyte distribution width [Entitic volume] by Automated count"
            }
          ],
          "text": "Erythrocyte distribution width [Entitic volume] by Automated count"
        },
        "valueQuantity": {
          "system": "http://unitsofmeasure.org",
          "value": 45.3,
          "unit": "fL",
          "code": "fL"
        },
        "referenceRange": [
          {
            "low": {
              "value": 36,
              "code": "fL",
              "system": "http://unitsofmeasure.org"
            }
          },
          {
            "high": {
              "value": 55,
              "code": "fL",
              "system": "http://unitsofmeasure.org"
            }
          }
        ],
        "status": "final",
        "subject": {
          "reference": "urn:uuid:202d6a71-184e-4435-9853-e608837c18bb"
        },
        "effectiveDateTime": "2024-11-18",
        "specimen": {
          "reference": "urn:uuid:77e73bbd-6500-41f3-96cf-d62c9d96a172"
        }
      }
    },
    {
      "fullUrl": "urn:uuid:6619a410-e369-4f1b-b60c-373255098a0c",
      "resource": {
        "resourceType": "Observation",
        "id": "6619a410-e369-4f1b-b60c-373255098a0c",
        "meta": {
          "profile": [
            "http://hl7.eu/fhir/laboratory/StructureDefinition/Observation-resultslab-eu-lab"
          ]
        },
        "performer": [
          {
            "display": "The Central European Lab"
          }
        ],
        "category": [
          {
            "coding": [
              {
                "code": "laboratory",
                "system": "http://terminology.hl7.org/CodeSystem/observation-category"
              }
            ]
          }
        ],
        "code": {
          "coding": [
            {
              "code": "777-3",
              "system": "http://loinc.org",
              "display": "Platelets [#/volume] in Blood by Automated count"
            }
          ],
          "text": "Platelets [#/volume] in Blood by Automated count"
        },
        "valueQuantity": {
          "system": "http://unitsofmeasure.org",
          "value": 150.3,
          "unit": "10*3/uL",
          "code": "10*3/uL"
        },
        "referenceRange": [
          {
            "low": {
              "value": 150,
              "code": "10*3/uL",
              "system": "http://unitsofmeasure.org"
            }
          },
          {
            "high": {
              "value": 450,
              "code": "10*3/uL",
              "system": "http://unitsofmeasure.org"
            }
          }
        ],
        "status": "final",
        "subject": {
          "reference": "urn:uuid:202d6a71-184e-4435-9853-e608837c18bb"
        },
        "effectiveDateTime": "2024-11-18",
        "specimen": {
          "reference": "urn:uuid:e527c06e-a26d-4afa-a876-bdb4dab43a67"
        }
      }
    },
    {
      "fullUrl": "urn:uuid:e923023a-4074-4bfc-8f92-2c73c9a9f3f2",
      "resource": {
        "resourceType": "Observation",
        "id": "e923023a-4074-4bfc-8f92-2c73c9a9f3f2",
        "meta": {
          "profile": [
            "http://hl7.eu/fhir/laboratory/StructureDefinition/Observation-resultslab-eu-lab"
          ]
        },
        "performer": [
          {
            "display": "The Central European Lab"
          }
        ],
        "category": [
          {
            "coding": [
              {
                "code": "laboratory",
                "system": "http://terminology.hl7.org/CodeSystem/observation-category"
              }
            ]
          }
        ],
        "code": {
          "coding": [
            {
              "code": "32207-3",
              "system": "http://loinc.org",
              "display": "Platelet distribution width [Entitic volume] in Blood by Automated count"
            }
          ],
          "text": "Platelet distribution width [Entitic volume] in Blood by Automated count"
        },
        "valueQuantity": {
          "system": "http://unitsofmeasure.org",
          "value": 345.5,
          "unit": "fL",
          "code": "fL"
        },
        "referenceRange": [
          {
            "low": {
              "value": 150,
              "code": "fL",
              "system": "http://unitsofmeasure.org"
            }
          },
          {
            "high": {
              "value": 450,
              "code": "fL",
              "system": "http://unitsofmeasure.org"
            }
          }
        ],
        "status": "final",
        "subject": {
          "reference": "urn:uuid:202d6a71-184e-4435-9853-e608837c18bb"
        },
        "effectiveDateTime": "2024-11-18",
        "specimen": {
          "reference": "urn:uuid:e527c06e-a26d-4afa-a876-bdb4dab43a67"
        }
      }
    },
    {
      "fullUrl": "urn:uuid:411275c7-e80a-463d-824f-14908d67a294",
      "resource": {
        "resourceType": "Observation",
        "id": "411275c7-e80a-463d-824f-14908d67a294",
        "meta": {
          "profile": [
            "http://hl7.eu/fhir/laboratory/StructureDefinition/Observation-resultslab-eu-lab"
          ]
        },
        "performer": [
          {
            "display": "The Central European Lab"
          }
        ],
        "category": [
          {
            "coding": [
              {
                "code": "laboratory",
                "system": "http://terminology.hl7.org/CodeSystem/observation-category"
              }
            ]
          }
        ],
        "code": {
          "coding": [
            {
              "code": "32623-1",
              "system": "http://loinc.org",
              "display": "Platelet mean volume [Entitic volume] in Blood by Automated count"
            }
          ],
          "text": "Platelet mean volume [Entitic volume] in Blood by Automated count"
        },
        "valueQuantity": {
          "system": "http://unitsofmeasure.org",
          "value": 12,
          "unit": "fL",
          "code": "fL"
        },
        "referenceRange": [
          {
            "low": {
              "value": 7.2,
              "code": "fL",
              "system": "http://unitsofmeasure.org"
            }
          },
          {
            "high": {
              "value": 13.5,
              "code": "fL",
              "system": "http://unitsofmeasure.org"
            }
          }
        ],
        "status": "final",
        "subject": {
          "reference": "urn:uuid:202d6a71-184e-4435-9853-e608837c18bb"
        },
        "effectiveDateTime": "2024-11-18",
        "specimen": {
          "reference": "urn:uuid:e527c06e-a26d-4afa-a876-bdb4dab43a67"
        }
      }
    }
  ],
  "type": "document",
  "timestamp": "2024-11-19T18:39:52Z"
}
