{
  "resourceType": "Bundle",
  "id": "Instance-Bundle-949c6da7-dd03-4b4d-97fa-12462fcd5c04",
  "meta": {
    "profile": [
      "http://hl7.eu/fhir/laboratory/StructureDefinition/Bundle-eu-lab"
    ]
  },
  "identifier": {
    "assigner": {
      "display": "HL7 Europe"
    },
    "system": "urn:oid:2.16.840.1.113883.2.51.999",
    "value": "be0a7989-eaba-4038-9898-9975428d35e5"
  },
  "entry": [
    {
      "fullUrl": "urn:uuid:0b00abc8-54a1-4ff2-839c-97b3ed04e2a9",
      "resource": {
        "resourceType": "Composition",
        "id": "0b00abc8-54a1-4ff2-839c-97b3ed04e2a9",
        "meta": {
          "profile": [
            "http://hl7.eu/fhir/laboratory/StructureDefinition/Composition-eu-lab"
          ]
        },
        "identifier": {
          "assigner": {
            "display": "HL7 Europe"
          },
          "system": "urn:oid:2.16.840.1.113883.2.51.999",
          "value": "0b5d3ba1-ef64-4e24-ba79-6a0e4c5f9925"
        },
        "author": [
          {
            "reference": "urn:uuid:7ac1b107-67fc-4bfc-8e77-c5f8c35e0b5b"
          }
        ],
        "category": [
          {
            "coding": [
              {
                "code": "26436-6",
                "system": "http://loinc.org",
                "display": "Laboratory studies (set)"
              }
            ]
          }
        ],
        "type": {
          "text": "Laboratory Report"
        },
        "section": [
          {
            "code": {
              "coding": [
                {
                  "code": "26436-6",
                  "system": "http://loinc.org",
                  "display": "Laboratory studies (set)"
                }
              ],
              "text": "Laboratory studies"
            },
            "section": [
              {
                "code": {
                  "coding": [
                    {
                      "code": "18719-5",
                      "system": "http://loinc.org",
                      "display": "Chemistry studies (set)"
                    }
                  ],
                  "text": "Chemistry"
                },
                "entry": [
                  {
                    "reference": "urn:uuid:5352bd1e-e7aa-4f6a-b56c-b6f5c4c1f3c9"
                  },
                  {
                    "reference": "urn:uuid:fa28ebad-b777-46b9-b3ca-7e05d8612b7f"
                  },
                  {
                    "reference": "urn:uuid:b0e542a2-f6ad-4ae4-b7f0-c85a0224ec0a"
                  },
                  {
                    "reference": "urn:uuid:dea09279-3c05-4413-b091-f81508d679f2"
                  },
                  {
                    "reference": "urn:uuid:a360401f-09e3-4d34-969f-a2283217752e"
                  },
                  {
                    "reference": "urn:uuid:12307663-0dad-45a4-8ad4-4fb60ea044f6"
                  },
                  {
                    "reference": "urn:uuid:318d2bfa-3336-49da-8caf-922db3e543ac"
                  },
                  {
                    "reference": "urn:uuid:1c73a200-2e79-4f1d-ba14-883af1e2d027"
                  },
                  {
                    "reference": "urn:uuid:c28bd23d-abe9-47a8-b4a3-aa8dd8538c66"
                  },
                  {
                    "reference": "urn:uuid:70d3ef9c-0ddd-4f21-b086-3dad24e931d1"
                  },
                  {
                    "reference": "urn:uuid:171f030e-6d93-4ac7-b87d-cd20719c9361"
                  },
                  {
                    "reference": "urn:uuid:57dd787e-328c-4a17-86e4-9363bee72c10"
                  },
                  {
                    "reference": "urn:uuid:0b6b282a-85b9-4728-a300-3cd505c02205"
                  },
                  {
                    "reference": "urn:uuid:2d148578-ab5e-4b14-9d8d-632c4169902c"
                  }
                ],
                "text": {
                  "status": "generated",
                  "div": "<div xmlns=\"http://www.w3.org/1999/xhtml\"><h3 id=\"section-1\">Chemistry</h3><table class=\"hl7__eu__lab__report\"><thead><tr><th>Test</th><th>18 Nov 2024</th><th>Reference Range</th><th>Unit</th></tr></thead><tbody><tr><td>Glucose [Mass/volume] in Blood</td><td>71.9</td><td>70 - 99</td><td>mg/dL</td></tr><tr><td>Urea nitrogen [Mass/volume] in Blood</td><td>10.7</td><td>7 - 20</td><td>mg/dL</td></tr><tr><td>Creatinine [Mass/volume] in Blood</td><td>1.2</td><td>0.7 - 1.3</td><td>mg/dL</td></tr><tr><td>Calcium [Mass/volume] in Blood</td><td>9.1</td><td>8.5 - 10.5</td><td>mg/dL</td></tr><tr><td>Sodium [Moles/volume] in Blood</td><td>139.7</td><td>135 - 145</td><td>mmol/L</td></tr><tr><td>Potassium [Moles/volume] in Blood</td><td>4.9</td><td>3.5 - 5.3</td><td>mmol/L</td></tr><tr><td>Chloride [Moles/volume] in Blood</td><td>101.1</td><td>98 - 108</td><td>mmol/L</td></tr><tr><td>Carbon dioxide, total [Moles/volume] in Blood</td><td>27.1</td><td>24 - 29</td><td>mmol/L</td></tr><tr><td>Cholesterol [Mass/volume] in Serum or Plasma</td><td>170.5</td><td>125 - 200</td><td>mg/dL</td></tr><tr><td>Triglyceride [Mass/volume] in Serum or Plasma</td><td>136.7</td><td>0 - 150</td><td>mg/dL</td></tr><tr><td>Cholesterol in LDL [Mass/volume] in Serum or Plasma by Direct assay</td><td>80.0</td><td>0 - 130</td><td>mg/dL</td></tr><tr><td>Cholesterol in HDL [Mass/volume] in Serum or Plasma</td><td>63.1</td><td>40 - 100</td><td>mg/dL</td></tr><tr><td>Microalbumin/Creatinine [Mass Ratio] in Urine</td><td>3.8</td><td>0 - 30</td><td>mg/g</td></tr><tr><td>Hemoglobin A1c/Hemoglobin.total in Blood</td><td>5.7</td><td>4.3 - 6.4</td><td>%</td></tr></tbody></table></div>"
                },
                "title": "Chemistry"
              }
            ],
            "title": "Laboratory Report"
          }
        ],
        "status": "final",
        "subject": {
          "reference": "urn:uuid:58f7901c-4aa2-4839-8b17-a53608a6a77c"
        },
        "date": "2024-11-19T18:43:24Z",
        "title": "Laboratory Report",
        "confidentiality": "N"
      }
    },
    {
      "fullUrl": "urn:uuid:047b4f08-f857-4af1-acb4-fd2241026584",
      "resource": {
        "resourceType": "DiagnosticReport",
        "id": "047b4f08-f857-4af1-acb4-fd2241026584",
        "meta": {
          "profile": [
            "http://hl7.eu/fhir/laboratory/StructureDefinition/DiagnosticReport-eu-lab"
          ]
        },
        "identifier": [
          {
            "assigner": {
              "display": "HL7 Europe"
            },
            "system": "urn:oid:2.16.840.1.113883.2.51.999",
            "value": "aa920023-e712-4315-bc39-205e2f0c79f1"
          }
        ],
        "extension": [
          {
            "url": "http://hl7.org/fhir/5.0/StructureDefinition/extension-DiagnosticReport.composition",
            "valueReference": {
              "reference": "urn:uuid:0b00abc8-54a1-4ff2-839c-97b3ed04e2a9"
            }
          }
        ],
        "category": [
          {
            "coding": [
              {
                "code": "18719-5",
                "system": "http://loinc.org",
                "display": "Chemistry studies (set)"
              }
            ]
          }
        ],
        "specimen": [
          {
            "reference": "urn:uuid:f689f6bf-dcb5-4a96-9f07-203b68ebe31e"
          },
          {
            "reference": "urn:uuid:8428a227-b02c-4e93-a598-e5d471d58e9e"
          },
          {
            "reference": "urn:uuid:28bc2bd4-07a5-4052-8c2c-036176142029"
          }
        ],
        "result": [
          {
            "reference": "urn:uuid:5352bd1e-e7aa-4f6a-b56c-b6f5c4c1f3c9"
          },
          {
            "reference": "urn:uuid:fa28ebad-b777-46b9-b3ca-7e05d8612b7f"
          },
          {
            "reference": "urn:uuid:b0e542a2-f6ad-4ae4-b7f0-c85a0224ec0a"
          },
          {
            "reference": "urn:uuid:dea09279-3c05-4413-b091-f81508d679f2"
          },
          {
            "reference": "urn:uuid:a360401f-09e3-4d34-969f-a2283217752e"
          },
          {
            "reference": "urn:uuid:12307663-0dad-45a4-8ad4-4fb60ea044f6"
          },
          {
            "reference": "urn:uuid:318d2bfa-3336-49da-8caf-922db3e543ac"
          },
          {
            "reference": "urn:uuid:1c73a200-2e79-4f1d-ba14-883af1e2d027"
          },
          {
            "reference": "urn:uuid:c28bd23d-abe9-47a8-b4a3-aa8dd8538c66"
          },
          {
            "reference": "urn:uuid:70d3ef9c-0ddd-4f21-b086-3dad24e931d1"
          },
          {
            "reference": "urn:uuid:171f030e-6d93-4ac7-b87d-cd20719c9361"
          },
          {
            "reference": "urn:uuid:57dd787e-328c-4a17-86e4-9363bee72c10"
          },
          {
            "reference": "urn:uuid:0b6b282a-85b9-4728-a300-3cd505c02205"
          },
          {
            "reference": "urn:uuid:2d148578-ab5e-4b14-9d8d-632c4169902c"
          }
        ],
        "status": "registered",
        "code": {
          "coding": [
            {
              "code": "11502-2",
              "system": "http://loinc.org",
              "display": "Laboratory report"
            }
          ]
        },
        "subject": {
          "reference": "urn:uuid:58f7901c-4aa2-4839-8b17-a53608a6a77c"
        }
      }
    },
    {
      "fullUrl": "urn:uuid:58f7901c-4aa2-4839-8b17-a53608a6a77c",
      "resource": {
        "resourceType": "Patient",
        "id": "58f7901c-4aa2-4839-8b17-a53608a6a77c",
        "meta": {
          "profile": [
            "http://hl7.eu/fhir/laboratory/StructureDefinition/Patient-eu-lab"
          ]
        },
        "identifier": [
          {
            "type": {
              "coding": [
                {
                  "code": "NI",
                  "system": "http://terminology.hl7.org/CodeSystem/v2-0203"
                }
              ]
            },
            "system": "http://ec.europa.eu/identifier/eci",
            "value": "6639-710247-7"
          },
          {
            "type": {
              "coding": [
                {
                  "code": "MR",
                  "system": "http://terminology.hl7.org/CodeSystem/v2-0203"
                }
              ]
            },
            "system": "http://local.setting.eu/identifier",
            "value": "679b15d5-03d3-48bc-a4a4-c55a04c752c9"
          }
        ],
        "name": [
          {
            "given": [
              "Željko"
            ],
            "family": "Tkalčić",
            "text": "Željko Tkalčić"
          }
        ],
        "address": [
          {
            "line": [
              "Trg revolucije 59"
            ],
            "use": "home",
            "type": "physical",
            "city": "Celje",
            "postalCode": "3505",
            "country": "Slovenia"
          }
        ],
        "telecom": [
          {
            "system": "phone",
            "value": "+386 041-973-053"
          }
        ],
        "gender": "male",
        "birthDate": "1972-03-01"
      }
    },
    {
      "fullUrl": "urn:uuid:da4c5b67-39a9-4f9f-9c94-9c56659e9e9e",
      "resource": {
        "resourceType": "ServiceRequest",
        "id": "da4c5b67-39a9-4f9f-9c94-9c56659e9e9e",
        "meta": {
          "profile": [
            "http://hl7.eu/fhir/laboratory/StructureDefinition/ServiceRequest-eu-lab"
          ]
        },
        "identifier": [
          {
            "system": "http://example.org",
            "value": "731516ae-4d6e-4bc5-a86a-0f1d79d53791"
          }
        ],
        "specimen": [
          {
            "reference": "urn:uuid:f689f6bf-dcb5-4a96-9f07-203b68ebe31e"
          },
          {
            "reference": "urn:uuid:8428a227-b02c-4e93-a598-e5d471d58e9e"
          },
          {
            "reference": "urn:uuid:28bc2bd4-07a5-4052-8c2c-036176142029"
          }
        ],
        "status": "active",
        "intent": "order",
        "code": {
          "coding": [
            {
              "code": "108252007",
              "system": "http://snomed.info/sct",
              "display": "Laboratory procedure"
            }
          ]
        },
        "subject": {
          "reference": "urn:uuid:58f7901c-4aa2-4839-8b17-a53608a6a77c"
        },
        "requester": {
          "reference": "urn:uuid:7104e926-e65a-4512-a7fc-64542d584036"
        }
      }
    },
    {
      "fullUrl": "urn:uuid:7104e926-e65a-4512-a7fc-64542d584036",
      "resource": {
        "resourceType": "PractitionerRole",
        "id": "7104e926-e65a-4512-a7fc-64542d584036",
        "meta": {
          "profile": [
            "http://hl7.eu/fhir/laboratory/StructureDefinition/PractitionerRole-eu-lab"
          ]
        },
        "organization": {
          "reference": "urn:uuid:98ebe0e0-ebba-4d07-b209-64f208c0ffb0"
        }
      }
    },
    {
      "fullUrl": "urn:uuid:98ebe0e0-ebba-4d07-b209-64f208c0ffb0",
      "resource": {
        "resourceType": "Organization",
        "id": "98ebe0e0-ebba-4d07-b209-64f208c0ffb0",
        "meta": {
          "profile": [
            "http://hl7.org/fhir/uv/ips/StructureDefinition/Organization-uv-ips"
          ]
        },
        "identifier": [
          {
            "assigner": {
              "display": "HL7 Europe"
            },
            "system": "urn:oid:2.16.840.1.113883.2.51.999",
            "value": "b6ca9671-e92b-4a48-89ab-b455ed765d8f"
          }
        ],
        "address": [
          {
            "city": "Celje",
            "postalCode": "3000",
            "country": "si"
          }
        ],
        "name": "Urgentni Center Celje"
      }
    },
    {
      "fullUrl": "urn:uuid:7ac1b107-67fc-4bfc-8e77-c5f8c35e0b5b",
      "resource": {
        "resourceType": "PractitionerRole",
        "id": "7ac1b107-67fc-4bfc-8e77-c5f8c35e0b5b",
        "meta": {
          "profile": [
            "http://hl7.eu/fhir/laboratory/StructureDefinition/PractitionerRole-eu-lab"
          ]
        },
        "practitioner": {
          "reference": "urn:uuid:a49d05d8-e69d-43cc-aea8-2efdee263f0c"
        }
      }
    },
    {
      "fullUrl": "urn:uuid:a49d05d8-e69d-43cc-aea8-2efdee263f0c",
      "resource": {
        "resourceType": "Practitioner",
        "id": "a49d05d8-e69d-43cc-aea8-2efdee263f0c",
        "meta": {
          "profile": [
            "http://hl7.eu/fhir/laboratory/StructureDefinition/Practitioner-eu-lab"
          ]
        },
        "identifier": [
          {
            "assigner": {
              "display": "HL7 Europe"
            },
            "system": "urn:oid:2.16.840.1.113883.2.51.999",
            "value": "cd208f65-3028-4721-a897-b4ede75109d4"
          }
        ],
        "name": [
          {
            "prefix": [
              "dr"
            ],
            "given": [
              "Ex"
            ],
            "family": "Ample"
          }
        ],
        "address": [
          {
            "line": [
              "Boulevard du Jardin Botanique 32"
            ],
            "city": "Brussels",
            "postalCode": "1000"
          }
        ]
      }
    },
    {
      "fullUrl": "urn:uuid:f689f6bf-dcb5-4a96-9f07-203b68ebe31e",
      "resource": {
        "resourceType": "Specimen",
        "id": "f689f6bf-dcb5-4a96-9f07-203b68ebe31e",
        "meta": {
          "profile": [
            "http://hl7.eu/fhir/laboratory/StructureDefinition/Specimen-eu-lab"
          ]
        },
        "collection": {
          "collectedDateTime": "2024-11-18"
        },
        "status": "available",
        "type": {
          "coding": [
            {
              "code": "258580003",
              "system": "http://snomed.info/sct",
              "display": "Whole blood specimen (specimen)"
            }
          ]
        }
      }
    },
    {
      "fullUrl": "urn:uuid:8428a227-b02c-4e93-a598-e5d471d58e9e",
      "resource": {
        "resourceType": "Specimen",
        "id": "8428a227-b02c-4e93-a598-e5d471d58e9e",
        "meta": {
          "profile": [
            "http://hl7.eu/fhir/laboratory/StructureDefinition/Specimen-eu-lab"
          ]
        },
        "collection": {
          "collectedDateTime": "2024-11-18"
        },
        "status": "available",
        "type": {
          "coding": [
            {
              "code": "122592007",
              "system": "http://snomed.info/sct",
              "display": "Acellular blood (serum or plasma) specimen (specimen)"
            }
          ]
        }
      }
    },
    {
      "fullUrl": "urn:uuid:28bc2bd4-07a5-4052-8c2c-036176142029",
      "resource": {
        "resourceType": "Specimen",
        "id": "28bc2bd4-07a5-4052-8c2c-036176142029",
        "meta": {
          "profile": [
            "http://hl7.eu/fhir/laboratory/StructureDefinition/Specimen-eu-lab"
          ]
        },
        "collection": {
          "collectedDateTime": "2024-11-18"
        },
        "status": "available",
        "type": {
          "coding": [
            {
              "code": "122575003",
              "system": "http://snomed.info/sct",
              "display": "Urine specimen (specimen)"
            }
          ]
        }
      }
    },
    {
      "fullUrl": "urn:uuid:5352bd1e-e7aa-4f6a-b56c-b6f5c4c1f3c9",
      "resource": {
        "resourceType": "Observation",
        "id": "5352bd1e-e7aa-4f6a-b56c-b6f5c4c1f3c9",
        "meta": {
          "profile": [
            "http://hl7.eu/fhir/laboratory/StructureDefinition/Observation-resultslab-eu-lab"
          ]
        },
        "performer": [
          {
            "display": "The Central European Lab"
          }
        ],
        "category": [
          {
            "coding": [
              {
                "code": "laboratory",
                "system": "http://terminology.hl7.org/CodeSystem/observation-category"
              }
            ]
          }
        ],
        "code": {
          "coding": [
            {
              "code": "2339-0",
              "system": "http://loinc.org",
              "display": "Glucose [Mass/volume] in Blood"
            }
          ],
          "text": "Glucose [Mass/volume] in Blood"
        },
        "valueQuantity": {
          "system": "http://unitsofmeasure.org",
          "value": 71.9,
          "unit": "mg/dL",
          "code": "mg/dL"
        },
        "referenceRange": [
          {
            "low": {
              "value": 70,
              "code": "mg/dL",
              "system": "http://unitsofmeasure.org"
            }
          },
          {
            "high": {
              "value": 99,
              "code": "mg/dL",
              "system": "http://unitsofmeasure.org"
            }
          }
        ],
        "status": "final",
        "subject": {
          "reference": "urn:uuid:58f7901c-4aa2-4839-8b17-a53608a6a77c"
        },
        "effectiveDateTime": "2024-11-18",
        "specimen": {
          "reference": "urn:uuid:f689f6bf-dcb5-4a96-9f07-203b68ebe31e"
        }
      }
    },
    {
      "fullUrl": "urn:uuid:fa28ebad-b777-46b9-b3ca-7e05d8612b7f",
      "resource": {
        "resourceType": "Observation",
        "id": "fa28ebad-b777-46b9-b3ca-7e05d8612b7f",
        "meta": {
          "profile": [
            "http://hl7.eu/fhir/laboratory/StructureDefinition/Observation-resultslab-eu-lab"
          ]
        },
        "performer": [
          {
            "display": "The Central European Lab"
          }
        ],
        "category": [
          {
            "coding": [
              {
                "code": "laboratory",
                "system": "http://terminology.hl7.org/CodeSystem/observation-category"
              }
            ]
          }
        ],
        "code": {
          "coding": [
            {
              "code": "6299-2",
              "system": "http://loinc.org",
              "display": "Urea nitrogen [Mass/volume] in Blood"
            }
          ],
          "text": "Urea nitrogen [Mass/volume] in Blood"
        },
        "valueQuantity": {
          "system": "http://unitsofmeasure.org",
          "value": 10.7,
          "unit": "mg/dL",
          "code": "mg/dL"
        },
        "referenceRange": [
          {
            "low": {
              "value": 7,
              "code": "mg/dL",
              "system": "http://unitsofmeasure.org"
            }
          },
          {
            "high": {
              "value": 20,
              "code": "mg/dL",
              "system": "http://unitsofmeasure.org"
            }
          }
        ],
        "status": "final",
        "subject": {
          "reference": "urn:uuid:58f7901c-4aa2-4839-8b17-a53608a6a77c"
        },
        "effectiveDateTime": "2024-11-18",
        "specimen": {
          "reference": "urn:uuid:f689f6bf-dcb5-4a96-9f07-203b68ebe31e"
        }
      }
    },
    {
      "fullUrl": "urn:uuid:b0e542a2-f6ad-4ae4-b7f0-c85a0224ec0a",
      "resource": {
        "resourceType": "Observation",
        "id": "b0e542a2-f6ad-4ae4-b7f0-c85a0224ec0a",
        "meta": {
          "profile": [
            "http://hl7.eu/fhir/laboratory/StructureDefinition/Observation-resultslab-eu-lab"
          ]
        },
        "performer": [
          {
            "display": "The Central European Lab"
          }
        ],
        "category": [
          {
            "coding": [
              {
                "code": "laboratory",
                "system": "http://terminology.hl7.org/CodeSystem/observation-category"
              }
            ]
          }
        ],
        "code": {
          "coding": [
            {
              "code": "38483-4",
              "system": "http://loinc.org",
              "display": "Creatinine [Mass/volume] in Blood"
            }
          ],
          "text": "Creatinine [Mass/volume] in Blood"
        },
        "valueQuantity": {
          "system": "http://unitsofmeasure.org",
          "value": 1.2,
          "unit": "mg/dL",
          "code": "mg/dL"
        },
        "referenceRange": [
          {
            "low": {
              "value": 0.7,
              "code": "mg/dL",
              "system": "http://unitsofmeasure.org"
            }
          },
          {
            "high": {
              "value": 1.3,
              "code": "mg/dL",
              "system": "http://unitsofmeasure.org"
            }
          }
        ],
        "status": "final",
        "subject": {
          "reference": "urn:uuid:58f7901c-4aa2-4839-8b17-a53608a6a77c"
        },
        "effectiveDateTime": "2024-11-18",
        "specimen": {
          "reference": "urn:uuid:f689f6bf-dcb5-4a96-9f07-203b68ebe31e"
        }
      }
    },
    {
      "fullUrl": "urn:uuid:dea09279-3c05-4413-b091-f81508d679f2",
      "resource": {
        "resourceType": "Observation",
        "id": "dea09279-3c05-4413-b091-f81508d679f2",
        "meta": {
          "profile": [
            "http://hl7.eu/fhir/laboratory/StructureDefinition/Observation-resultslab-eu-lab"
          ]
        },
        "performer": [
          {
            "display": "The Central European Lab"
          }
        ],
        "category": [
          {
            "coding": [
              {
                "code": "laboratory",
                "system": "http://terminology.hl7.org/CodeSystem/observation-category"
              }
            ]
          }
        ],
        "code": {
          "coding": [
            {
              "code": "49765-1",
              "system": "http://loinc.org",
              "display": "Calcium [Mass/volume] in Blood"
            }
          ],
          "text": "Calcium [Mass/volume] in Blood"
        },
        "valueQuantity": {
          "system": "http://unitsofmeasure.org",
          "value": 9.1,
          "unit": "mg/dL",
          "code": "mg/dL"
        },
        "referenceRange": [
          {
            "low": {
              "value": 8.5,
              "code": "mg/dL",
              "system": "http://unitsofmeasure.org"
            }
          },
          {
            "high": {
              "value": 10.5,
              "code": "mg/dL",
              "system": "http://unitsofmeasure.org"
            }
          }
        ],
        "status": "final",
        "subject": {
          "reference": "urn:uuid:58f7901c-4aa2-4839-8b17-a53608a6a77c"
        },
        "effectiveDateTime": "2024-11-18",
        "specimen": {
          "reference": "urn:uuid:f689f6bf-dcb5-4a96-9f07-203b68ebe31e"
        }
      }
    },
    {
      "fullUrl": "urn:uuid:a360401f-09e3-4d34-969f-a2283217752e",
      "resource": {
        "resourceType": "Observation",
        "id": "a360401f-09e3-4d34-969f-a2283217752e",
        "meta": {
          "profile": [
            "http://hl7.eu/fhir/laboratory/StructureDefinition/Observation-resultslab-eu-lab"
          ]
        },
        "performer": [
          {
            "display": "The Central European Lab"
          }
        ],
        "category": [
          {
            "coding": [
              {
                "code": "laboratory",
                "system": "http://terminology.hl7.org/CodeSystem/observation-category"
              }
            ]
          }
        ],
        "code": {
          "coding": [
            {
              "code": "2947-0",
              "system": "http://loinc.org",
              "display": "Sodium [Moles/volume] in Blood"
            }
          ],
          "text": "Sodium [Moles/volume] in Blood"
        },
        "valueQuantity": {
          "system": "http://unitsofmeasure.org",
          "value": 139.7,
          "unit": "mmol/L",
          "code": "mmol/L"
        },
        "referenceRange": [
          {
            "low": {
              "value": 135,
              "code": "mmol/L",
              "system": "http://unitsofmeasure.org"
            }
          },
          {
            "high": {
              "value": 145,
              "code": "mmol/L",
              "system": "http://unitsofmeasure.org"
            }
          }
        ],
        "status": "final",
        "subject": {
          "reference": "urn:uuid:58f7901c-4aa2-4839-8b17-a53608a6a77c"
        },
        "effectiveDateTime": "2024-11-18",
        "specimen": {
          "reference": "urn:uuid:f689f6bf-dcb5-4a96-9f07-203b68ebe31e"
        }
      }
    },
    {
      "fullUrl": "urn:uuid:12307663-0dad-45a4-8ad4-4fb60ea044f6",
      "resource": {
        "resourceType": "Observation",
        "id": "12307663-0dad-45a4-8ad4-4fb60ea044f6",
        "meta": {
          "profile": [
            "http://hl7.eu/fhir/laboratory/StructureDefinition/Observation-resultslab-eu-lab"
          ]
        },
        "performer": [
          {
            "display": "The Central European Lab"
          }
        ],
        "category": [
          {
            "coding": [
              {
                "code": "laboratory",
                "system": "http://terminology.hl7.org/CodeSystem/observation-category"
              }
            ]
          }
        ],
        "code": {
          "coding": [
            {
              "code": "6298-4",
              "system": "http://loinc.org",
              "display": "Potassium [Moles/volume] in Blood"
            }
          ],
          "text": "Potassium [Moles/volume] in Blood"
        },
        "valueQuantity": {
          "system": "http://unitsofmeasure.org",
          "value": 4.9,
          "unit": "mmol/L",
          "code": "mmol/L"
        },
        "referenceRange": [
          {
            "low": {
              "value": 3.5,
              "code": "mmol/L",
              "system": "http://unitsofmeasure.org"
            }
          },
          {
            "high": {
              "value": 5.3,
              "code": "mmol/L",
              "system": "http://unitsofmeasure.org"
            }
          }
        ],
        "status": "final",
        "subject": {
          "reference": "urn:uuid:58f7901c-4aa2-4839-8b17-a53608a6a77c"
        },
        "effectiveDateTime": "2024-11-18",
        "specimen": {
          "reference": "urn:uuid:f689f6bf-dcb5-4a96-9f07-203b68ebe31e"
        }
      }
    },
    {
      "fullUrl": "urn:uuid:318d2bfa-3336-49da-8caf-922db3e543ac",
      "resource": {
        "resourceType": "Observation",
        "id": "318d2bfa-3336-49da-8caf-922db3e543ac",
        "meta": {
          "profile": [
            "http://hl7.eu/fhir/laboratory/StructureDefinition/Observation-resultslab-eu-lab"
          ]
        },
        "performer": [
          {
            "display": "The Central European Lab"
          }
        ],
        "category": [
          {
            "coding": [
              {
                "code": "laboratory",
                "system": "http://terminology.hl7.org/CodeSystem/observation-category"
              }
            ]
          }
        ],
        "code": {
          "coding": [
            {
              "code": "2069-3",
              "system": "http://loinc.org",
              "display": "Chloride [Moles/volume] in Blood"
            }
          ],
          "text": "Chloride [Moles/volume] in Blood"
        },
        "valueQuantity": {
          "system": "http://unitsofmeasure.org",
          "value": 101.1,
          "unit": "mmol/L",
          "code": "mmol/L"
        },
        "referenceRange": [
          {
            "low": {
              "value": 98,
              "code": "mmol/L",
              "system": "http://unitsofmeasure.org"
            }
          },
          {
            "high": {
              "value": 108,
              "code": "mmol/L",
              "system": "http://unitsofmeasure.org"
            }
          }
        ],
        "status": "final",
        "subject": {
          "reference": "urn:uuid:58f7901c-4aa2-4839-8b17-a53608a6a77c"
        },
        "effectiveDateTime": "2024-11-18",
        "specimen": {
          "reference": "urn:uuid:f689f6bf-dcb5-4a96-9f07-203b68ebe31e"
        }
      }
    },
    {
      "fullUrl": "urn:uuid:1c73a200-2e79-4f1d-ba14-883af1e2d027",
      "resource": {
        "resourceType": "Observation",
        "id": "1c73a200-2e79-4f1d-ba14-883af1e2d027",
        "meta": {
          "profile": [
            "http://hl7.eu/fhir/laboratory/StructureDefinition/Observation-resultslab-eu-lab"
          ]
        },
        "performer": [
          {
            "display": "The Central European Lab"
          }
        ],
        "category": [
          {
            "coding": [
              {
                "code": "laboratory",
                "system": "http://terminology.hl7.org/CodeSystem/observation-category"
              }
            ]
          }
        ],
        "code": {
          "coding": [
            {
              "code": "20565-8",
              "system": "http://loinc.org",
              "display": "Carbon dioxide, total [Moles/volume] in Blood"
            }
          ],
          "text": "Carbon dioxide, total [Moles/volume] in Blood"
        },
        "valueQuantity": {
          "system": "http://unitsofmeasure.org",
          "value": 27.1,
          "unit": "mmol/L",
          "code": "mmol/L"
        },
        "referenceRange": [
          {
            "low": {
              "value": 24,
              "code": "mmol/L",
              "system": "http://unitsofmeasure.org"
            }
          },
          {
            "high": {
              "value": 29,
              "code": "mmol/L",
              "system": "http://unitsofmeasure.org"
            }
          }
        ],
        "status": "final",
        "subject": {
          "reference": "urn:uuid:58f7901c-4aa2-4839-8b17-a53608a6a77c"
        },
        "effectiveDateTime": "2024-11-18",
        "specimen": {
          "reference": "urn:uuid:f689f6bf-dcb5-4a96-9f07-203b68ebe31e"
        }
      }
    },
    {
      "fullUrl": "urn:uuid:c28bd23d-abe9-47a8-b4a3-aa8dd8538c66",
      "resource": {
        "resourceType": "Observation",
        "id": "c28bd23d-abe9-47a8-b4a3-aa8dd8538c66",
        "meta": {
          "profile": [
            "http://hl7.eu/fhir/laboratory/StructureDefinition/Observation-resultslab-eu-lab"
          ]
        },
        "performer": [
          {
            "display": "The Central European Lab"
          }
        ],
        "category": [
          {
            "coding": [
              {
                "code": "laboratory",
                "system": "http://terminology.hl7.org/CodeSystem/observation-category"
              }
            ]
          }
        ],
        "code": {
          "coding": [
            {
              "code": "2093-3",
              "system": "http://loinc.org",
              "display": "Cholesterol [Mass/volume] in Serum or Plasma"
            }
          ],
          "text": "Cholesterol [Mass/volume] in Serum or Plasma"
        },
        "valueQuantity": {
          "system": "http://unitsofmeasure.org",
          "value": 170.5,
          "unit": "mg/dL",
          "code": "mg/dL"
        },
        "referenceRange": [
          {
            "low": {
              "value": 125,
              "code": "mg/dL",
              "system": "http://unitsofmeasure.org"
            }
          },
          {
            "high": {
              "value": 200,
              "code": "mg/dL",
              "system": "http://unitsofmeasure.org"
            }
          }
        ],
        "status": "final",
        "subject": {
          "reference": "urn:uuid:58f7901c-4aa2-4839-8b17-a53608a6a77c"
        },
        "effectiveDateTime": "2024-11-18",
        "specimen": {
          "reference": "urn:uuid:8428a227-b02c-4e93-a598-e5d471d58e9e"
        }
      }
    },
    {
      "fullUrl": "urn:uuid:70d3ef9c-0ddd-4f21-b086-3dad24e931d1",
      "resource": {
        "resourceType": "Observation",
        "id": "70d3ef9c-0ddd-4f21-b086-3dad24e931d1",
        "meta": {
          "profile": [
            "http://hl7.eu/fhir/laboratory/StructureDefinition/Observation-resultslab-eu-lab"
          ]
        },
        "performer": [
          {
            "display": "The Central European Lab"
          }
        ],
        "category": [
          {
            "coding": [
              {
                "code": "laboratory",
                "system": "http://terminology.hl7.org/CodeSystem/observation-category"
              }
            ]
          }
        ],
        "code": {
          "coding": [
            {
              "code": "2571-8",
              "system": "http://loinc.org",
              "display": "Triglyceride [Mass/volume] in Serum or Plasma"
            }
          ],
          "text": "Triglyceride [Mass/volume] in Serum or Plasma"
        },
        "valueQuantity": {
          "system": "http://unitsofmeasure.org",
          "value": 136.7,
          "unit": "mg/dL",
          "code": "mg/dL"
        },
        "referenceRange": [
          {
            "low": {
              "value": 0,
              "code": "mg/dL",
              "system": "http://unitsofmeasure.org"
            }
          },
          {
            "high": {
              "value": 150,
              "code": "mg/dL",
              "system": "http://unitsofmeasure.org"
            }
          }
        ],
        "status": "final",
        "subject": {
          "reference": "urn:uuid:58f7901c-4aa2-4839-8b17-a53608a6a77c"
        },
        "effectiveDateTime": "2024-11-18",
        "specimen": {
          "reference": "urn:uuid:8428a227-b02c-4e93-a598-e5d471d58e9e"
        }
      }
    },
    {
      "fullUrl": "urn:uuid:171f030e-6d93-4ac7-b87d-cd20719c9361",
      "resource": {
        "resourceType": "Observation",
        "id": "171f030e-6d93-4ac7-b87d-cd20719c9361",
        "meta": {
          "profile": [
            "http://hl7.eu/fhir/laboratory/StructureDefinition/Observation-resultslab-eu-lab"
          ]
        },
        "performer": [
          {
            "display": "The Central European Lab"
          }
        ],
        "category": [
          {
            "coding": [
              {
                "code": "laboratory",
                "system": "http://terminology.hl7.org/CodeSystem/observation-category"
              }
            ]
          }
        ],
        "code": {
          "coding": [
            {
              "code": "18262-6",
              "system": "http://loinc.org",
              "display": "Cholesterol in LDL [Mass/volume] in Serum or Plasma by Direct assay"
            }
          ],
          "text": "Cholesterol in LDL [Mass/volume] in Serum or Plasma by Direct assay"
        },
        "valueQuantity": {
          "system": "http://unitsofmeasure.org",
          "value": 80,
          "unit": "mg/dL",
          "code": "mg/dL"
        },
        "referenceRange": [
          {
            "low": {
              "value": 0,
              "code": "mg/dL",
              "system": "http://unitsofmeasure.org"
            }
          },
          {
            "high": {
              "value": 130,
              "code": "mg/dL",
              "system": "http://unitsofmeasure.org"
            }
          }
        ],
        "status": "final",
        "subject": {
          "reference": "urn:uuid:58f7901c-4aa2-4839-8b17-a53608a6a77c"
        },
        "effectiveDateTime": "2024-11-18",
        "specimen": {
          "reference": "urn:uuid:8428a227-b02c-4e93-a598-e5d471d58e9e"
        }
      }
    },
    {
      "fullUrl": "urn:uuid:57dd787e-328c-4a17-86e4-9363bee72c10",
      "resource": {
        "resourceType": "Observation",
        "id": "57dd787e-328c-4a17-86e4-9363bee72c10",
        "meta": {
          "profile": [
            "http://hl7.eu/fhir/laboratory/StructureDefinition/Observation-resultslab-eu-lab"
          ]
        },
        "performer": [
          {
            "display": "The Central European Lab"
          }
        ],
        "category": [
          {
            "coding": [
              {
                "code": "laboratory",
                "system": "http://terminology.hl7.org/CodeSystem/observation-category"
              }
            ]
          }
        ],
        "code": {
          "coding": [
            {
              "code": "2085-9",
              "system": "http://loinc.org",
              "display": "Cholesterol in HDL [Mass/volume] in Serum or Plasma"
            }
          ],
          "text": "Cholesterol in HDL [Mass/volume] in Serum or Plasma"
        },
        "valueQuantity": {
          "system": "http://unitsofmeasure.org",
          "value": 63.1,
          "unit": "mg/dL",
          "code": "mg/dL"
        },
        "referenceRange": [
          {
            "low": {
              "value": 40,
              "code": "mg/dL",
              "system": "http://unitsofmeasure.org"
            }
          },
          {
            "high": {
              "value": 100,
              "code": "mg/dL",
              "system": "http://unitsofmeasure.org"
            }
          }
        ],
        "status": "final",
        "subject": {
          "reference": "urn:uuid:58f7901c-4aa2-4839-8b17-a53608a6a77c"
        },
        "effectiveDateTime": "2024-11-18",
        "specimen": {
          "reference": "urn:uuid:8428a227-b02c-4e93-a598-e5d471d58e9e"
        }
      }
    },
    {
      "fullUrl": "urn:uuid:0b6b282a-85b9-4728-a300-3cd505c02205",
      "resource": {
        "resourceType": "Observation",
        "id": "0b6b282a-85b9-4728-a300-3cd505c02205",
        "meta": {
          "profile": [
            "http://hl7.eu/fhir/laboratory/StructureDefinition/Observation-resultslab-eu-lab"
          ]
        },
        "performer": [
          {
            "display": "The Central European Lab"
          }
        ],
        "category": [
          {
            "coding": [
              {
                "code": "laboratory",
                "system": "http://terminology.hl7.org/CodeSystem/observation-category"
              }
            ]
          }
        ],
        "code": {
          "coding": [
            {
              "code": "14959-1",
              "system": "http://loinc.org",
              "display": "Microalbumin/Creatinine [Mass Ratio] in Urine"
            }
          ],
          "text": "Microalbumin/Creatinine [Mass Ratio] in Urine"
        },
        "valueQuantity": {
          "system": "http://unitsofmeasure.org",
          "value": 3.8,
          "unit": "mg/g",
          "code": "mg/g"
        },
        "referenceRange": [
          {
            "low": {
              "value": 0,
              "code": "mg/g",
              "system": "http://unitsofmeasure.org"
            }
          },
          {
            "high": {
              "value": 30,
              "code": "mg/g",
              "system": "http://unitsofmeasure.org"
            }
          }
        ],
        "status": "final",
        "subject": {
          "reference": "urn:uuid:58f7901c-4aa2-4839-8b17-a53608a6a77c"
        },
        "effectiveDateTime": "2024-11-18",
        "specimen": {
          "reference": "urn:uuid:28bc2bd4-07a5-4052-8c2c-036176142029"
        }
      }
    },
    {
      "fullUrl": "urn:uuid:2d148578-ab5e-4b14-9d8d-632c4169902c",
      "resource": {
        "resourceType": "Observation",
        "id": "2d148578-ab5e-4b14-9d8d-632c4169902c",
        "meta": {
          "profile": [
            "http://hl7.eu/fhir/laboratory/StructureDefinition/Observation-resultslab-eu-lab"
          ]
        },
        "performer": [
          {
            "display": "The Central European Lab"
          }
        ],
        "category": [
          {
            "coding": [
              {
                "code": "laboratory",
                "system": "http://terminology.hl7.org/CodeSystem/observation-category"
              }
            ]
          }
        ],
        "code": {
          "coding": [
            {
              "code": "4548-4",
              "system": "http://loinc.org",
              "display": "Hemoglobin A1c/Hemoglobin.total in Blood"
            }
          ],
          "text": "Hemoglobin A1c/Hemoglobin.total in Blood"
        },
        "valueQuantity": {
          "system": "http://unitsofmeasure.org",
          "value": 5.7,
          "unit": "%",
          "code": "%"
        },
        "referenceRange": [
          {
            "low": {
              "value": 4.3,
              "code": "%",
              "system": "http://unitsofmeasure.org"
            }
          },
          {
            "high": {
              "value": 6.4,
              "code": "%",
              "system": "http://unitsofmeasure.org"
            }
          }
        ],
        "status": "final",
        "subject": {
          "reference": "urn:uuid:58f7901c-4aa2-4839-8b17-a53608a6a77c"
        },
        "effectiveDateTime": "2024-11-18",
        "specimen": {
          "reference": "urn:uuid:f689f6bf-dcb5-4a96-9f07-203b68ebe31e"
        }
      }
    }
  ],
  "type": "document",
  "timestamp": "2024-11-19T18:43:24Z"
}
