{
  "resourceType": "Bundle",
  "id": "Instance-Bundle-440d796e-3747-4013-ba1d-24cee4c1c5f1",
  "meta": {
    "profile": [
      "http://hl7.eu/fhir/laboratory/StructureDefinition/Bundle-eu-lab"
    ]
  },
  "identifier": {
    "assigner": {
      "display": "HL7 Europe"
    },
    "system": "urn:oid:2.16.840.1.113883.2.51.999",
    "value": "e1be3d3e-c69a-4e47-855a-eca669d16258"
  },
  "entry": [
    {
      "fullUrl": "urn:uuid:ca25956b-5778-4062-b0fc-02a7c7963fa2",
      "resource": {
        "resourceType": "Composition",
        "id": "ca25956b-5778-4062-b0fc-02a7c7963fa2",
        "meta": {
          "profile": [
            "http://hl7.eu/fhir/laboratory/StructureDefinition/Composition-eu-lab"
          ]
        },
        "identifier": {
          "assigner": {
            "display": "HL7 Europe"
          },
          "system": "urn:oid:2.16.840.1.113883.2.51.999",
          "value": "d4f4105c-542d-47e1-a981-8d553921cf7e"
        },
        "author": [
          {
            "reference": "urn:uuid:08863ed4-4f48-4d25-ba29-ef0c428f7ae2"
          }
        ],
        "category": [
          {
            "coding": [
              {
                "code": "26436-6",
                "system": "http://loinc.org",
                "display": "Laboratory studies (set)"
              }
            ]
          }
        ],
        "type": {
          "text": "Laboratory Report"
        },
        "section": [
          {
            "code": {
              "coding": [
                {
                  "code": "26436-6",
                  "system": "http://loinc.org",
                  "display": "Laboratory studies (set)"
                }
              ],
              "text": "Laboratory studies"
            },
            "section": [
              {
                "code": {
                  "coding": [
                    {
                      "code": "18719-5",
                      "system": "http://loinc.org",
                      "display": "Chemistry studies (set)"
                    }
                  ],
                  "text": "Chemistry"
                },
                "entry": [
                  {
                    "reference": "urn:uuid:8c5655ee-e61e-4eb3-914d-e46a450f259a"
                  },
                  {
                    "reference": "urn:uuid:ef6b240f-603a-4453-b686-e1552d95db9b"
                  },
                  {
                    "reference": "urn:uuid:d352f4ee-90dc-480e-b7c1-2addc41c25ea"
                  },
                  {
                    "reference": "urn:uuid:0ae6b7c3-92e8-42b8-a1bd-00d29bc3980f"
                  },
                  {
                    "reference": "urn:uuid:7e500f2b-5026-4a23-a0c0-2a7039f036f3"
                  },
                  {
                    "reference": "urn:uuid:1d6dc8b5-dd5c-4819-bcc5-09bc0e7c72ab"
                  },
                  {
                    "reference": "urn:uuid:76805e42-49c8-422a-9fc4-8c5d8c7dab64"
                  },
                  {
                    "reference": "urn:uuid:676543c3-0938-4e00-8f0d-e3979237b849"
                  },
                  {
                    "reference": "urn:uuid:58dfd48e-e9c1-4ba9-9021-421ddd5a6de3"
                  },
                  {
                    "reference": "urn:uuid:7fd23680-6f11-42d7-9b7b-81d35f0f9df1"
                  },
                  {
                    "reference": "urn:uuid:3baaf1b9-ab8b-42ef-a05e-5adc6f258cf3"
                  },
                  {
                    "reference": "urn:uuid:c548edf7-7f0d-4b4a-a2d7-71cf13c5494a"
                  },
                  {
                    "reference": "urn:uuid:d23e5e89-2b21-42df-a36a-62af49bab9fc"
                  }
                ],
                "text": {
                  "status": "generated",
                  "div": "<div xmlns=\"http://www.w3.org/1999/xhtml\"><h3 id=\"section-1\">Chemistry</h3><table class=\"hl7__eu__lab__report\"><thead><tr><th>Test</th><th>18 Nov 2024</th><th>Reference Range</th><th>Unit</th></tr></thead><tbody><tr><td>Glucose [Mass/volume] in Blood</td><td>99.0</td><td>70 - 140</td><td>mg/dL</td></tr><tr><td>Urea nitrogen [Mass/volume] in Blood</td><td>8.6</td><td>7 - 20</td><td>mg/dL</td></tr><tr><td>Creatinine [Mass/volume] in Blood</td><td><strong>1.7 H</strong></td><td>0.6 - 1.3</td><td>mg/dL</td></tr><tr><td>Calcium [Mass/volume] in Blood</td><td>9.5</td><td>8.5 - 10.5</td><td>mg/dL</td></tr><tr><td>Sodium [Moles/volume] in Blood</td><td>140.8</td><td>135 - 145</td><td>mmol/L</td></tr><tr><td>Potassium [Moles/volume] in Blood</td><td>4.4</td><td>3.5 - 5</td><td>mmol/L</td></tr><tr><td>Chloride [Moles/volume] in Blood</td><td>106.0</td><td>98 - 114</td><td>mmol/L</td></tr><tr><td>Carbon dioxide, total [Moles/volume] in Blood</td><td><strong>23.9 L</strong></td><td>24 - 29</td><td>mmol/L</td></tr><tr><td>Cholesterol [Mass/volume] in Serum or Plasma</td><td>174.5</td><td>125 - 200</td><td>mg/dL</td></tr><tr><td>Triglyceride [Mass/volume] in Serum or Plasma</td><td>103.8</td><td>0 - 150</td><td>mg/dL</td></tr><tr><td>Cholesterol in LDL [Mass/volume] in Serum or Plasma by Direct assay</td><td>75.8</td><td>0 - 130</td><td>mg/dL</td></tr><tr><td>Cholesterol in HDL [Mass/volume] in Serum or Plasma</td><td><strong>78.0 H</strong></td><td>40 - 60</td><td>mg/dL</td></tr><tr><td>Hemoglobin A1c/Hemoglobin.total in Blood</td><td>6.0</td><td>4 - 6.5</td><td>%</td></tr></tbody></table></div>"
                },
                "title": "Chemistry"
              }
            ],
            "title": "Laboratory Report"
          }
        ],
        "status": "final",
        "subject": {
          "reference": "urn:uuid:44df7ff9-b9cb-4e8f-9fa4-7e08dd04e719"
        },
        "date": "2024-11-19T18:39:02Z",
        "title": "Laboratory Report",
        "confidentiality": "N"
      }
    },
    {
      "fullUrl": "urn:uuid:9bb1d5f9-a276-47aa-b0ed-2d05e50ec27e",
      "resource": {
        "resourceType": "DiagnosticReport",
        "id": "9bb1d5f9-a276-47aa-b0ed-2d05e50ec27e",
        "meta": {
          "profile": [
            "http://hl7.eu/fhir/laboratory/StructureDefinition/DiagnosticReport-eu-lab"
          ]
        },
        "identifier": [
          {
            "assigner": {
              "display": "HL7 Europe"
            },
            "system": "urn:oid:2.16.840.1.113883.2.51.999",
            "value": "bcde1af1-a4d1-4ef2-a678-71cf2929c77f"
          }
        ],
        "extension": [
          {
            "url": "http://hl7.org/fhir/5.0/StructureDefinition/extension-DiagnosticReport.composition",
            "valueReference": {
              "reference": "urn:uuid:ca25956b-5778-4062-b0fc-02a7c7963fa2"
            }
          }
        ],
        "category": [
          {
            "coding": [
              {
                "code": "18719-5",
                "system": "http://loinc.org",
                "display": "Chemistry studies (set)"
              }
            ]
          }
        ],
        "specimen": [
          {
            "reference": "urn:uuid:d59fe7b2-373e-4fa6-9d93-1e13c37307ad"
          },
          {
            "reference": "urn:uuid:303e20ec-0600-4b18-9c09-677a04ab01a0"
          }
        ],
        "result": [
          {
            "reference": "urn:uuid:8c5655ee-e61e-4eb3-914d-e46a450f259a"
          },
          {
            "reference": "urn:uuid:ef6b240f-603a-4453-b686-e1552d95db9b"
          },
          {
            "reference": "urn:uuid:d352f4ee-90dc-480e-b7c1-2addc41c25ea"
          },
          {
            "reference": "urn:uuid:0ae6b7c3-92e8-42b8-a1bd-00d29bc3980f"
          },
          {
            "reference": "urn:uuid:7e500f2b-5026-4a23-a0c0-2a7039f036f3"
          },
          {
            "reference": "urn:uuid:1d6dc8b5-dd5c-4819-bcc5-09bc0e7c72ab"
          },
          {
            "reference": "urn:uuid:76805e42-49c8-422a-9fc4-8c5d8c7dab64"
          },
          {
            "reference": "urn:uuid:676543c3-0938-4e00-8f0d-e3979237b849"
          },
          {
            "reference": "urn:uuid:58dfd48e-e9c1-4ba9-9021-421ddd5a6de3"
          },
          {
            "reference": "urn:uuid:7fd23680-6f11-42d7-9b7b-81d35f0f9df1"
          },
          {
            "reference": "urn:uuid:3baaf1b9-ab8b-42ef-a05e-5adc6f258cf3"
          },
          {
            "reference": "urn:uuid:c548edf7-7f0d-4b4a-a2d7-71cf13c5494a"
          },
          {
            "reference": "urn:uuid:d23e5e89-2b21-42df-a36a-62af49bab9fc"
          }
        ],
        "status": "registered",
        "code": {
          "coding": [
            {
              "code": "11502-2",
              "system": "http://loinc.org",
              "display": "Laboratory report"
            }
          ]
        },
        "subject": {
          "reference": "urn:uuid:44df7ff9-b9cb-4e8f-9fa4-7e08dd04e719"
        }
      }
    },
    {
      "fullUrl": "urn:uuid:44df7ff9-b9cb-4e8f-9fa4-7e08dd04e719",
      "resource": {
        "resourceType": "Patient",
        "id": "44df7ff9-b9cb-4e8f-9fa4-7e08dd04e719",
        "meta": {
          "profile": [
            "http://hl7.eu/fhir/laboratory/StructureDefinition/Patient-eu-lab"
          ]
        },
        "identifier": [
          {
            "type": {
              "coding": [
                {
                  "code": "NI",
                  "system": "http://terminology.hl7.org/CodeSystem/v2-0203"
                }
              ]
            },
            "system": "http://ec.europa.eu/identifier/eci",
            "value": "2377-301205-1"
          },
          {
            "type": {
              "coding": [
                {
                  "code": "MR",
                  "system": "http://terminology.hl7.org/CodeSystem/v2-0203"
                }
              ]
            },
            "system": "http://local.setting.eu/identifier",
            "value": "e301f119-fc08-464a-9f1c-ed76b1a77e2f"
          }
        ],
        "name": [
          {
            "given": [
              "Rame"
            ],
            "family": "Čegrlj",
            "text": "Rame Čegrlj"
          }
        ],
        "address": [
          {
            "line": [
              "Chausseestr. 21"
            ],
            "use": "home",
            "type": "physical",
            "city": "Reinbek",
            "postalCode": "21453",
            "country": "Germany"
          }
        ],
        "telecom": [
          {
            "system": "phone",
            "value": "+49 04104 36 21 94"
          }
        ],
        "gender": "male",
        "birthDate": "1989-03-28"
      }
    },
    {
      "fullUrl": "urn:uuid:6a1ed24c-0393-4f8c-ab5b-b100f9139452",
      "resource": {
        "resourceType": "ServiceRequest",
        "id": "6a1ed24c-0393-4f8c-ab5b-b100f9139452",
        "meta": {
          "profile": [
            "http://hl7.eu/fhir/laboratory/StructureDefinition/ServiceRequest-eu-lab"
          ]
        },
        "identifier": [
          {
            "system": "http://example.org",
            "value": "8e10f64b-2fc4-4e13-b315-c329735cd89b"
          }
        ],
        "specimen": [
          {
            "reference": "urn:uuid:d59fe7b2-373e-4fa6-9d93-1e13c37307ad"
          },
          {
            "reference": "urn:uuid:303e20ec-0600-4b18-9c09-677a04ab01a0"
          }
        ],
        "status": "active",
        "intent": "order",
        "code": {
          "coding": [
            {
              "code": "108252007",
              "system": "http://snomed.info/sct",
              "display": "Laboratory procedure"
            }
          ]
        },
        "subject": {
          "reference": "urn:uuid:44df7ff9-b9cb-4e8f-9fa4-7e08dd04e719"
        },
        "requester": {
          "reference": "urn:uuid:02cdc219-157b-4e88-adc1-bd98df7fde05"
        }
      }
    },
    {
      "fullUrl": "urn:uuid:02cdc219-157b-4e88-adc1-bd98df7fde05",
      "resource": {
        "resourceType": "PractitionerRole",
        "id": "02cdc219-157b-4e88-adc1-bd98df7fde05",
        "meta": {
          "profile": [
            "http://hl7.eu/fhir/laboratory/StructureDefinition/PractitionerRole-eu-lab"
          ]
        },
        "organization": {
          "reference": "urn:uuid:02bb7e09-b726-4111-b754-6140a952e349"
        }
      }
    },
    {
      "fullUrl": "urn:uuid:02bb7e09-b726-4111-b754-6140a952e349",
      "resource": {
        "resourceType": "Organization",
        "id": "02bb7e09-b726-4111-b754-6140a952e349",
        "meta": {
          "profile": [
            "http://hl7.org/fhir/uv/ips/StructureDefinition/Organization-uv-ips"
          ]
        },
        "identifier": [
          {
            "assigner": {
              "display": "HL7 Europe"
            },
            "system": "urn:oid:2.16.840.1.113883.2.51.999",
            "value": "4725c137-ea99-490d-87b8-4237d13b5f92"
          }
        ],
        "address": [
          {
            "city": "Hamburg",
            "postalCode": "22143",
            "country": "de"
          }
        ],
        "name": "Katholisches Kinderkrankenhaus Wilhelmstift"
      }
    },
    {
      "fullUrl": "urn:uuid:08863ed4-4f48-4d25-ba29-ef0c428f7ae2",
      "resource": {
        "resourceType": "PractitionerRole",
        "id": "08863ed4-4f48-4d25-ba29-ef0c428f7ae2",
        "meta": {
          "profile": [
            "http://hl7.eu/fhir/laboratory/StructureDefinition/PractitionerRole-eu-lab"
          ]
        },
        "practitioner": {
          "reference": "urn:uuid:aca7f1f2-a800-4fe4-a8af-2b1bba332618"
        }
      }
    },
    {
      "fullUrl": "urn:uuid:aca7f1f2-a800-4fe4-a8af-2b1bba332618",
      "resource": {
        "resourceType": "Practitioner",
        "id": "aca7f1f2-a800-4fe4-a8af-2b1bba332618",
        "meta": {
          "profile": [
            "http://hl7.eu/fhir/laboratory/StructureDefinition/Practitioner-eu-lab"
          ]
        },
        "identifier": [
          {
            "assigner": {
              "display": "HL7 Europe"
            },
            "system": "urn:oid:2.16.840.1.113883.2.51.999",
            "value": "e283d89b-80bf-477d-95bf-57d3aed2f9fe"
          }
        ],
        "name": [
          {
            "prefix": [
              "dr"
            ],
            "given": [
              "Ex"
            ],
            "family": "Ample"
          }
        ],
        "address": [
          {
            "line": [
              "Boulevard du Jardin Botanique 32"
            ],
            "city": "Brussels",
            "postalCode": "1000"
          }
        ]
      }
    },
    {
      "fullUrl": "urn:uuid:d59fe7b2-373e-4fa6-9d93-1e13c37307ad",
      "resource": {
        "resourceType": "Specimen",
        "id": "d59fe7b2-373e-4fa6-9d93-1e13c37307ad",
        "meta": {
          "profile": [
            "http://hl7.eu/fhir/laboratory/StructureDefinition/Specimen-eu-lab"
          ]
        },
        "collection": {
          "collectedDateTime": "2024-11-18"
        },
        "status": "available",
        "type": {
          "coding": [
            {
              "code": "258580003",
              "system": "http://snomed.info/sct",
              "display": "Whole blood specimen (specimen)"
            }
          ]
        }
      }
    },
    {
      "fullUrl": "urn:uuid:303e20ec-0600-4b18-9c09-677a04ab01a0",
      "resource": {
        "resourceType": "Specimen",
        "id": "303e20ec-0600-4b18-9c09-677a04ab01a0",
        "meta": {
          "profile": [
            "http://hl7.eu/fhir/laboratory/StructureDefinition/Specimen-eu-lab"
          ]
        },
        "collection": {
          "collectedDateTime": "2024-11-18"
        },
        "status": "available",
        "type": {
          "coding": [
            {
              "code": "122592007",
              "system": "http://snomed.info/sct",
              "display": "Acellular blood (serum or plasma) specimen (specimen)"
            }
          ]
        }
      }
    },
    {
      "fullUrl": "urn:uuid:8c5655ee-e61e-4eb3-914d-e46a450f259a",
      "resource": {
        "resourceType": "Observation",
        "id": "8c5655ee-e61e-4eb3-914d-e46a450f259a",
        "meta": {
          "profile": [
            "http://hl7.eu/fhir/laboratory/StructureDefinition/Observation-resultslab-eu-lab"
          ]
        },
        "performer": [
          {
            "display": "The Central European Lab"
          }
        ],
        "category": [
          {
            "coding": [
              {
                "code": "laboratory",
                "system": "http://terminology.hl7.org/CodeSystem/observation-category"
              }
            ]
          }
        ],
        "code": {
          "coding": [
            {
              "code": "2339-0",
              "system": "http://loinc.org",
              "display": "Glucose [Mass/volume] in Blood"
            }
          ],
          "text": "Glucose [Mass/volume] in Blood"
        },
        "valueQuantity": {
          "system": "http://unitsofmeasure.org",
          "value": 99,
          "unit": "mg/dL",
          "code": "mg/dL"
        },
        "referenceRange": [
          {
            "low": {
              "value": 70,
              "code": "mg/dL",
              "system": "http://unitsofmeasure.org"
            }
          },
          {
            "high": {
              "value": 140,
              "code": "mg/dL",
              "system": "http://unitsofmeasure.org"
            }
          }
        ],
        "status": "final",
        "subject": {
          "reference": "urn:uuid:44df7ff9-b9cb-4e8f-9fa4-7e08dd04e719"
        },
        "effectiveDateTime": "2024-11-18",
        "specimen": {
          "reference": "urn:uuid:d59fe7b2-373e-4fa6-9d93-1e13c37307ad"
        }
      }
    },
    {
      "fullUrl": "urn:uuid:ef6b240f-603a-4453-b686-e1552d95db9b",
      "resource": {
        "resourceType": "Observation",
        "id": "ef6b240f-603a-4453-b686-e1552d95db9b",
        "meta": {
          "profile": [
            "http://hl7.eu/fhir/laboratory/StructureDefinition/Observation-resultslab-eu-lab"
          ]
        },
        "performer": [
          {
            "display": "The Central European Lab"
          }
        ],
        "category": [
          {
            "coding": [
              {
                "code": "laboratory",
                "system": "http://terminology.hl7.org/CodeSystem/observation-category"
              }
            ]
          }
        ],
        "code": {
          "coding": [
            {
              "code": "6299-2",
              "system": "http://loinc.org",
              "display": "Urea nitrogen [Mass/volume] in Blood"
            }
          ],
          "text": "Urea nitrogen [Mass/volume] in Blood"
        },
        "valueQuantity": {
          "system": "http://unitsofmeasure.org",
          "value": 8.6,
          "unit": "mg/dL",
          "code": "mg/dL"
        },
        "referenceRange": [
          {
            "low": {
              "value": 7,
              "code": "mg/dL",
              "system": "http://unitsofmeasure.org"
            }
          },
          {
            "high": {
              "value": 20,
              "code": "mg/dL",
              "system": "http://unitsofmeasure.org"
            }
          }
        ],
        "status": "final",
        "subject": {
          "reference": "urn:uuid:44df7ff9-b9cb-4e8f-9fa4-7e08dd04e719"
        },
        "effectiveDateTime": "2024-11-18",
        "specimen": {
          "reference": "urn:uuid:d59fe7b2-373e-4fa6-9d93-1e13c37307ad"
        }
      }
    },
    {
      "fullUrl": "urn:uuid:d352f4ee-90dc-480e-b7c1-2addc41c25ea",
      "resource": {
        "resourceType": "Observation",
        "id": "d352f4ee-90dc-480e-b7c1-2addc41c25ea",
        "meta": {
          "profile": [
            "http://hl7.eu/fhir/laboratory/StructureDefinition/Observation-resultslab-eu-lab"
          ]
        },
        "performer": [
          {
            "display": "The Central European Lab"
          }
        ],
        "category": [
          {
            "coding": [
              {
                "code": "laboratory",
                "system": "http://terminology.hl7.org/CodeSystem/observation-category"
              }
            ]
          }
        ],
        "code": {
          "coding": [
            {
              "code": "38483-4",
              "system": "http://loinc.org",
              "display": "Creatinine [Mass/volume] in Blood"
            }
          ],
          "text": "Creatinine [Mass/volume] in Blood"
        },
        "valueQuantity": {
          "system": "http://unitsofmeasure.org",
          "value": 1.7,
          "unit": "mg/dL",
          "code": "mg/dL"
        },
        "referenceRange": [
          {
            "low": {
              "value": 0.6,
              "code": "mg/dL",
              "system": "http://unitsofmeasure.org"
            }
          },
          {
            "high": {
              "value": 1.3,
              "code": "mg/dL",
              "system": "http://unitsofmeasure.org"
            }
          }
        ],
        "interpretation": [
          {
            "coding": [
              {
                "code": "H",
                "system": "http://terminology.hl7.org/CodeSystem/v3-ObservationInterpretation",
                "display": "High"
              }
            ]
          }
        ],
        "status": "final",
        "subject": {
          "reference": "urn:uuid:44df7ff9-b9cb-4e8f-9fa4-7e08dd04e719"
        },
        "effectiveDateTime": "2024-11-18",
        "specimen": {
          "reference": "urn:uuid:d59fe7b2-373e-4fa6-9d93-1e13c37307ad"
        }
      }
    },
    {
      "fullUrl": "urn:uuid:0ae6b7c3-92e8-42b8-a1bd-00d29bc3980f",
      "resource": {
        "resourceType": "Observation",
        "id": "0ae6b7c3-92e8-42b8-a1bd-00d29bc3980f",
        "meta": {
          "profile": [
            "http://hl7.eu/fhir/laboratory/StructureDefinition/Observation-resultslab-eu-lab"
          ]
        },
        "performer": [
          {
            "display": "The Central European Lab"
          }
        ],
        "category": [
          {
            "coding": [
              {
                "code": "laboratory",
                "system": "http://terminology.hl7.org/CodeSystem/observation-category"
              }
            ]
          }
        ],
        "code": {
          "coding": [
            {
              "code": "49765-1",
              "system": "http://loinc.org",
              "display": "Calcium [Mass/volume] in Blood"
            }
          ],
          "text": "Calcium [Mass/volume] in Blood"
        },
        "valueQuantity": {
          "system": "http://unitsofmeasure.org",
          "value": 9.5,
          "unit": "mg/dL",
          "code": "mg/dL"
        },
        "referenceRange": [
          {
            "low": {
              "value": 8.5,
              "code": "mg/dL",
              "system": "http://unitsofmeasure.org"
            }
          },
          {
            "high": {
              "value": 10.5,
              "code": "mg/dL",
              "system": "http://unitsofmeasure.org"
            }
          }
        ],
        "status": "final",
        "subject": {
          "reference": "urn:uuid:44df7ff9-b9cb-4e8f-9fa4-7e08dd04e719"
        },
        "effectiveDateTime": "2024-11-18",
        "specimen": {
          "reference": "urn:uuid:d59fe7b2-373e-4fa6-9d93-1e13c37307ad"
        }
      }
    },
    {
      "fullUrl": "urn:uuid:7e500f2b-5026-4a23-a0c0-2a7039f036f3",
      "resource": {
        "resourceType": "Observation",
        "id": "7e500f2b-5026-4a23-a0c0-2a7039f036f3",
        "meta": {
          "profile": [
            "http://hl7.eu/fhir/laboratory/StructureDefinition/Observation-resultslab-eu-lab"
          ]
        },
        "performer": [
          {
            "display": "The Central European Lab"
          }
        ],
        "category": [
          {
            "coding": [
              {
                "code": "laboratory",
                "system": "http://terminology.hl7.org/CodeSystem/observation-category"
              }
            ]
          }
        ],
        "code": {
          "coding": [
            {
              "code": "2947-0",
              "system": "http://loinc.org",
              "display": "Sodium [Moles/volume] in Blood"
            }
          ],
          "text": "Sodium [Moles/volume] in Blood"
        },
        "valueQuantity": {
          "system": "http://unitsofmeasure.org",
          "value": 140.8,
          "unit": "mmol/L",
          "code": "mmol/L"
        },
        "referenceRange": [
          {
            "low": {
              "value": 135,
              "code": "mmol/L",
              "system": "http://unitsofmeasure.org"
            }
          },
          {
            "high": {
              "value": 145,
              "code": "mmol/L",
              "system": "http://unitsofmeasure.org"
            }
          }
        ],
        "status": "final",
        "subject": {
          "reference": "urn:uuid:44df7ff9-b9cb-4e8f-9fa4-7e08dd04e719"
        },
        "effectiveDateTime": "2024-11-18",
        "specimen": {
          "reference": "urn:uuid:d59fe7b2-373e-4fa6-9d93-1e13c37307ad"
        }
      }
    },
    {
      "fullUrl": "urn:uuid:1d6dc8b5-dd5c-4819-bcc5-09bc0e7c72ab",
      "resource": {
        "resourceType": "Observation",
        "id": "1d6dc8b5-dd5c-4819-bcc5-09bc0e7c72ab",
        "meta": {
          "profile": [
            "http://hl7.eu/fhir/laboratory/StructureDefinition/Observation-resultslab-eu-lab"
          ]
        },
        "performer": [
          {
            "display": "The Central European Lab"
          }
        ],
        "category": [
          {
            "coding": [
              {
                "code": "laboratory",
                "system": "http://terminology.hl7.org/CodeSystem/observation-category"
              }
            ]
          }
        ],
        "code": {
          "coding": [
            {
              "code": "6298-4",
              "system": "http://loinc.org",
              "display": "Potassium [Moles/volume] in Blood"
            }
          ],
          "text": "Potassium [Moles/volume] in Blood"
        },
        "valueQuantity": {
          "system": "http://unitsofmeasure.org",
          "value": 4.4,
          "unit": "mmol/L",
          "code": "mmol/L"
        },
        "referenceRange": [
          {
            "low": {
              "value": 3.5,
              "code": "mmol/L",
              "system": "http://unitsofmeasure.org"
            }
          },
          {
            "high": {
              "value": 5,
              "code": "mmol/L",
              "system": "http://unitsofmeasure.org"
            }
          }
        ],
        "status": "final",
        "subject": {
          "reference": "urn:uuid:44df7ff9-b9cb-4e8f-9fa4-7e08dd04e719"
        },
        "effectiveDateTime": "2024-11-18",
        "specimen": {
          "reference": "urn:uuid:d59fe7b2-373e-4fa6-9d93-1e13c37307ad"
        }
      }
    },
    {
      "fullUrl": "urn:uuid:76805e42-49c8-422a-9fc4-8c5d8c7dab64",
      "resource": {
        "resourceType": "Observation",
        "id": "76805e42-49c8-422a-9fc4-8c5d8c7dab64",
        "meta": {
          "profile": [
            "http://hl7.eu/fhir/laboratory/StructureDefinition/Observation-resultslab-eu-lab"
          ]
        },
        "performer": [
          {
            "display": "The Central European Lab"
          }
        ],
        "category": [
          {
            "coding": [
              {
                "code": "laboratory",
                "system": "http://terminology.hl7.org/CodeSystem/observation-category"
              }
            ]
          }
        ],
        "code": {
          "coding": [
            {
              "code": "2069-3",
              "system": "http://loinc.org",
              "display": "Chloride [Moles/volume] in Blood"
            }
          ],
          "text": "Chloride [Moles/volume] in Blood"
        },
        "valueQuantity": {
          "system": "http://unitsofmeasure.org",
          "value": 106,
          "unit": "mmol/L",
          "code": "mmol/L"
        },
        "referenceRange": [
          {
            "low": {
              "value": 98,
              "code": "mmol/L",
              "system": "http://unitsofmeasure.org"
            }
          },
          {
            "high": {
              "value": 114,
              "code": "mmol/L",
              "system": "http://unitsofmeasure.org"
            }
          }
        ],
        "status": "final",
        "subject": {
          "reference": "urn:uuid:44df7ff9-b9cb-4e8f-9fa4-7e08dd04e719"
        },
        "effectiveDateTime": "2024-11-18",
        "specimen": {
          "reference": "urn:uuid:d59fe7b2-373e-4fa6-9d93-1e13c37307ad"
        }
      }
    },
    {
      "fullUrl": "urn:uuid:676543c3-0938-4e00-8f0d-e3979237b849",
      "resource": {
        "resourceType": "Observation",
        "id": "676543c3-0938-4e00-8f0d-e3979237b849",
        "meta": {
          "profile": [
            "http://hl7.eu/fhir/laboratory/StructureDefinition/Observation-resultslab-eu-lab"
          ]
        },
        "performer": [
          {
            "display": "The Central European Lab"
          }
        ],
        "category": [
          {
            "coding": [
              {
                "code": "laboratory",
                "system": "http://terminology.hl7.org/CodeSystem/observation-category"
              }
            ]
          }
        ],
        "code": {
          "coding": [
            {
              "code": "20565-8",
              "system": "http://loinc.org",
              "display": "Carbon dioxide, total [Moles/volume] in Blood"
            }
          ],
          "text": "Carbon dioxide, total [Moles/volume] in Blood"
        },
        "valueQuantity": {
          "system": "http://unitsofmeasure.org",
          "value": 23.9,
          "unit": "mmol/L",
          "code": "mmol/L"
        },
        "referenceRange": [
          {
            "low": {
              "value": 24,
              "code": "mmol/L",
              "system": "http://unitsofmeasure.org"
            }
          },
          {
            "high": {
              "value": 29,
              "code": "mmol/L",
              "system": "http://unitsofmeasure.org"
            }
          }
        ],
        "interpretation": [
          {
            "coding": [
              {
                "code": "L",
                "system": "http://terminology.hl7.org/CodeSystem/v3-ObservationInterpretation",
                "display": "Low"
              }
            ]
          }
        ],
        "status": "final",
        "subject": {
          "reference": "urn:uuid:44df7ff9-b9cb-4e8f-9fa4-7e08dd04e719"
        },
        "effectiveDateTime": "2024-11-18",
        "specimen": {
          "reference": "urn:uuid:d59fe7b2-373e-4fa6-9d93-1e13c37307ad"
        }
      }
    },
    {
      "fullUrl": "urn:uuid:58dfd48e-e9c1-4ba9-9021-421ddd5a6de3",
      "resource": {
        "resourceType": "Observation",
        "id": "58dfd48e-e9c1-4ba9-9021-421ddd5a6de3",
        "meta": {
          "profile": [
            "http://hl7.eu/fhir/laboratory/StructureDefinition/Observation-resultslab-eu-lab"
          ]
        },
        "performer": [
          {
            "display": "The Central European Lab"
          }
        ],
        "category": [
          {
            "coding": [
              {
                "code": "laboratory",
                "system": "http://terminology.hl7.org/CodeSystem/observation-category"
              }
            ]
          }
        ],
        "code": {
          "coding": [
            {
              "code": "2093-3",
              "system": "http://loinc.org",
              "display": "Cholesterol [Mass/volume] in Serum or Plasma"
            }
          ],
          "text": "Cholesterol [Mass/volume] in Serum or Plasma"
        },
        "valueQuantity": {
          "system": "http://unitsofmeasure.org",
          "value": 174.5,
          "unit": "mg/dL",
          "code": "mg/dL"
        },
        "referenceRange": [
          {
            "low": {
              "value": 125,
              "code": "mg/dL",
              "system": "http://unitsofmeasure.org"
            }
          },
          {
            "high": {
              "value": 200,
              "code": "mg/dL",
              "system": "http://unitsofmeasure.org"
            }
          }
        ],
        "status": "final",
        "subject": {
          "reference": "urn:uuid:44df7ff9-b9cb-4e8f-9fa4-7e08dd04e719"
        },
        "effectiveDateTime": "2024-11-18",
        "specimen": {
          "reference": "urn:uuid:303e20ec-0600-4b18-9c09-677a04ab01a0"
        }
      }
    },
    {
      "fullUrl": "urn:uuid:7fd23680-6f11-42d7-9b7b-81d35f0f9df1",
      "resource": {
        "resourceType": "Observation",
        "id": "7fd23680-6f11-42d7-9b7b-81d35f0f9df1",
        "meta": {
          "profile": [
            "http://hl7.eu/fhir/laboratory/StructureDefinition/Observation-resultslab-eu-lab"
          ]
        },
        "performer": [
          {
            "display": "The Central European Lab"
          }
        ],
        "category": [
          {
            "coding": [
              {
                "code": "laboratory",
                "system": "http://terminology.hl7.org/CodeSystem/observation-category"
              }
            ]
          }
        ],
        "code": {
          "coding": [
            {
              "code": "2571-8",
              "system": "http://loinc.org",
              "display": "Triglyceride [Mass/volume] in Serum or Plasma"
            }
          ],
          "text": "Triglyceride [Mass/volume] in Serum or Plasma"
        },
        "valueQuantity": {
          "system": "http://unitsofmeasure.org",
          "value": 103.8,
          "unit": "mg/dL",
          "code": "mg/dL"
        },
        "referenceRange": [
          {
            "low": {
              "value": 0,
              "code": "mg/dL",
              "system": "http://unitsofmeasure.org"
            }
          },
          {
            "high": {
              "value": 150,
              "code": "mg/dL",
              "system": "http://unitsofmeasure.org"
            }
          }
        ],
        "status": "final",
        "subject": {
          "reference": "urn:uuid:44df7ff9-b9cb-4e8f-9fa4-7e08dd04e719"
        },
        "effectiveDateTime": "2024-11-18",
        "specimen": {
          "reference": "urn:uuid:303e20ec-0600-4b18-9c09-677a04ab01a0"
        }
      }
    },
    {
      "fullUrl": "urn:uuid:3baaf1b9-ab8b-42ef-a05e-5adc6f258cf3",
      "resource": {
        "resourceType": "Observation",
        "id": "3baaf1b9-ab8b-42ef-a05e-5adc6f258cf3",
        "meta": {
          "profile": [
            "http://hl7.eu/fhir/laboratory/StructureDefinition/Observation-resultslab-eu-lab"
          ]
        },
        "performer": [
          {
            "display": "The Central European Lab"
          }
        ],
        "category": [
          {
            "coding": [
              {
                "code": "laboratory",
                "system": "http://terminology.hl7.org/CodeSystem/observation-category"
              }
            ]
          }
        ],
        "code": {
          "coding": [
            {
              "code": "18262-6",
              "system": "http://loinc.org",
              "display": "Cholesterol in LDL [Mass/volume] in Serum or Plasma by Direct assay"
            }
          ],
          "text": "Cholesterol in LDL [Mass/volume] in Serum or Plasma by Direct assay"
        },
        "valueQuantity": {
          "system": "http://unitsofmeasure.org",
          "value": 75.8,
          "unit": "mg/dL",
          "code": "mg/dL"
        },
        "referenceRange": [
          {
            "low": {
              "value": 0,
              "code": "mg/dL",
              "system": "http://unitsofmeasure.org"
            }
          },
          {
            "high": {
              "value": 130,
              "code": "mg/dL",
              "system": "http://unitsofmeasure.org"
            }
          }
        ],
        "status": "final",
        "subject": {
          "reference": "urn:uuid:44df7ff9-b9cb-4e8f-9fa4-7e08dd04e719"
        },
        "effectiveDateTime": "2024-11-18",
        "specimen": {
          "reference": "urn:uuid:303e20ec-0600-4b18-9c09-677a04ab01a0"
        }
      }
    },
    {
      "fullUrl": "urn:uuid:c548edf7-7f0d-4b4a-a2d7-71cf13c5494a",
      "resource": {
        "resourceType": "Observation",
        "id": "c548edf7-7f0d-4b4a-a2d7-71cf13c5494a",
        "meta": {
          "profile": [
            "http://hl7.eu/fhir/laboratory/StructureDefinition/Observation-resultslab-eu-lab"
          ]
        },
        "performer": [
          {
            "display": "The Central European Lab"
          }
        ],
        "category": [
          {
            "coding": [
              {
                "code": "laboratory",
                "system": "http://terminology.hl7.org/CodeSystem/observation-category"
              }
            ]
          }
        ],
        "code": {
          "coding": [
            {
              "code": "2085-9",
              "system": "http://loinc.org",
              "display": "Cholesterol in HDL [Mass/volume] in Serum or Plasma"
            }
          ],
          "text": "Cholesterol in HDL [Mass/volume] in Serum or Plasma"
        },
        "valueQuantity": {
          "system": "http://unitsofmeasure.org",
          "value": 78,
          "unit": "mg/dL",
          "code": "mg/dL"
        },
        "referenceRange": [
          {
            "low": {
              "value": 40,
              "code": "mg/dL",
              "system": "http://unitsofmeasure.org"
            }
          },
          {
            "high": {
              "value": 60,
              "code": "mg/dL",
              "system": "http://unitsofmeasure.org"
            }
          }
        ],
        "interpretation": [
          {
            "coding": [
              {
                "code": "H",
                "system": "http://terminology.hl7.org/CodeSystem/v3-ObservationInterpretation",
                "display": "High"
              }
            ]
          }
        ],
        "status": "final",
        "subject": {
          "reference": "urn:uuid:44df7ff9-b9cb-4e8f-9fa4-7e08dd04e719"
        },
        "effectiveDateTime": "2024-11-18",
        "specimen": {
          "reference": "urn:uuid:303e20ec-0600-4b18-9c09-677a04ab01a0"
        }
      }
    },
    {
      "fullUrl": "urn:uuid:d23e5e89-2b21-42df-a36a-62af49bab9fc",
      "resource": {
        "resourceType": "Observation",
        "id": "d23e5e89-2b21-42df-a36a-62af49bab9fc",
        "meta": {
          "profile": [
            "http://hl7.eu/fhir/laboratory/StructureDefinition/Observation-resultslab-eu-lab"
          ]
        },
        "performer": [
          {
            "display": "The Central European Lab"
          }
        ],
        "category": [
          {
            "coding": [
              {
                "code": "laboratory",
                "system": "http://terminology.hl7.org/CodeSystem/observation-category"
              }
            ]
          }
        ],
        "code": {
          "coding": [
            {
              "code": "4548-4",
              "system": "http://loinc.org",
              "display": "Hemoglobin A1c/Hemoglobin.total in Blood"
            }
          ],
          "text": "Hemoglobin A1c/Hemoglobin.total in Blood"
        },
        "valueQuantity": {
          "system": "http://unitsofmeasure.org",
          "value": 6,
          "unit": "%",
          "code": "%"
        },
        "referenceRange": [
          {
            "low": {
              "value": 4,
              "code": "%",
              "system": "http://unitsofmeasure.org"
            }
          },
          {
            "high": {
              "value": 6.5,
              "code": "%",
              "system": "http://unitsofmeasure.org"
            }
          }
        ],
        "status": "final",
        "subject": {
          "reference": "urn:uuid:44df7ff9-b9cb-4e8f-9fa4-7e08dd04e719"
        },
        "effectiveDateTime": "2024-11-18",
        "specimen": {
          "reference": "urn:uuid:d59fe7b2-373e-4fa6-9d93-1e13c37307ad"
        }
      }
    }
  ],
  "type": "document",
  "timestamp": "2024-11-19T18:39:02Z"
}
