<Bundle xmlns="http://hl7.org/fhir">
   <id value="Instance-Bundle-ee420180-e7cc-40bf-aa6f-fae58d007a69"/>
   <meta>
      <profile value="http://hl7.eu/fhir/laboratory/StructureDefinition/Bundle-eu-lab"/>
   </meta>
   <identifier>
      <system value="urn:oid:2.16.840.1.113883.2.51.999"/>
      <value value="68104b06-e203-4d61-b6d8-4fe2d537efd7"/>
      <assigner>
         <display value="HL7 Europe"/>
      </assigner>
   </identifier>
   <type value="document"/>
   <timestamp value="2024-11-19T18:39:40Z"/>
   <entry>
      <fullUrl value="urn:uuid:787cd7c3-7fa8-4e0a-a37b-d21634551d95"/>
      <resource>
         <Composition>
            <id value="787cd7c3-7fa8-4e0a-a37b-d21634551d95"/>
            <meta>
               <profile value="http://hl7.eu/fhir/laboratory/StructureDefinition/Composition-eu-lab"/>
            </meta>
            <identifier>
               <system value="urn:oid:2.16.840.1.113883.2.51.999"/>
               <value value="b743541c-f3cc-4eb6-a671-1b3fb4905ede"/>
               <assigner>
                  <display value="HL7 Europe"/>
               </assigner>
            </identifier>
            <status value="final"/>
            <type>
               <text value="Laboratory Report"/>
            </type>
            <category>
               <coding>
                  <system value="http://loinc.org"/>
                  <code value="26436-6"/>
                  <display value="Laboratory studies (set)"/>
               </coding>
            </category>
            <subject>
               <reference value="urn:uuid:ef5fd9d6-831f-49de-80f3-54985e0eba1b"/>
            </subject>
            <date value="2024-11-19T18:39:40Z"/>
            <author>
               <reference value="urn:uuid:75b47f86-1497-4e2f-a82c-c353e9da7c9d"/>
            </author>
            <title value="Laboratory Report"/>
            <confidentiality value="N"/>
            <section>
               <title value="Laboratory Report"/>
               <code>
                  <coding>
                     <system value="http://loinc.org"/>
                     <code value="26436-6"/>
                     <display value="Laboratory studies (set)"/>
                  </coding>
                  <text value="Laboratory studies"/>
               </code>
               <section>
                  <title value="Chemistry"/>
                  <code>
                     <coding>
                        <system value="http://loinc.org"/>
                        <code value="18719-5"/>
                        <display value="Chemistry studies (set)"/>
                     </coding>
                     <text value="Chemistry"/>
                  </code>
                  <text>
                     <status value="generated"/>
                     <div xmlns="http://www.w3.org/1999/xhtml">
                        <h3 id="section-1">Chemistry</h3>
                        <table class="hl7__eu__lab__report">
                           <thead>
                              <tr>
                                 <th>Test</th>
                                 <th>18 Nov 2024</th>
                                 <th>Reference Range</th>
                                 <th>Unit</th>
                              </tr>
                           </thead>
                           <tbody>
                              <tr>
                                 <td>Oxygen saturation in Arterial blood</td>
                                 <td>
                                    <strong>87.6 L</strong>
                                 </td>
                                 <td>95 - 100</td>
                                 <td>%</td>
                              </tr>
                           </tbody>
                        </table>
                     </div>
                  </text>
                  <entry>
                     <reference value="urn:uuid:9bbbd9d3-b017-490d-85eb-360c0bd53c90"/>
                  </entry>
               </section>
               <section>
                  <title value="Microbiology"/>
                  <code>
                     <coding>
                        <system value="http://loinc.org"/>
                        <code value="18725-2"/>
                        <display value="Microbiology studies"/>
                     </coding>
                     <text value="Microbiology"/>
                  </code>
                  <text>
                     <status value="generated"/>
                     <div xmlns="http://www.w3.org/1999/xhtml">
                        <h3 id="section-2">Microbiology</h3>
                        <table class="hl7__eu__lab__report">
                           <thead>
                              <tr>
                                 <th>Test</th>
                                 <th>18 Nov 2024</th>
                                 <th>Reference Range</th>
                                 <th>Unit</th>
                              </tr>
                           </thead>
                           <tbody>
                              <tr>
                                 <td>Influenza virus A Ag [Presence] in Upper respiratory specimen by Rapid immunoassay</td>
                                 <td>Not detected</td>
                                 <td/>
                                 <td/>
                              </tr>
                              <tr>
                                 <td>Influenza virus B Ag [Presence] in Upper respiratory specimen by Rapid immunoassay</td>
                                 <td>Not detected</td>
                                 <td/>
                                 <td/>
                              </tr>
                           </tbody>
                        </table>
                     </div>
                  </text>
                  <entry>
                     <reference value="urn:uuid:616a9cc2-4f38-4fb0-8777-8eb74b8d956c"/>
                  </entry>
                  <entry>
                     <reference value="urn:uuid:3b31023c-d612-4823-bfd8-3d4aae7229ab"/>
                  </entry>
               </section>
               <section>
                  <title value="Microbiology Panel"/>
                  <code>
                     <coding>
                        <system value="http://loinc.org"/>
                        <code value="18725-2"/>
                        <display value="Microbiology studies"/>
                     </coding>
                     <text value="Microbiology Panel"/>
                  </code>
                  <text>
                     <status value="generated"/>
                     <div xmlns="http://www.w3.org/1999/xhtml">
                        <h3 id="section-3">Microbiology Panel</h3>
                        <table class="hl7__eu__lab__report">
                           <thead>
                              <tr>
                                 <th>Test</th>
                                 <th>18 Nov 2024</th>
                                 <th>Reference Range</th>
                                 <th>Unit</th>
                              </tr>
                           </thead>
                           <tbody>
                              <tr>
                                 <td>SARS-CoV-2 (COVID-19) RNA panel - Respiratory system specimen by NAA with probe detection</td>
                                 <td>Detected</td>
                                 <td/>
                                 <td/>
                              </tr>
                           </tbody>
                        </table>
                     </div>
                  </text>
                  <entry>
                     <reference value="urn:uuid:7587e4fd-97eb-4705-aeb5-bf435d77366e"/>
                  </entry>
               </section>
            </section>
         </Composition>
      </resource>
   </entry>
   <entry>
      <fullUrl value="urn:uuid:fdf7467e-faf9-4a36-9d06-739fe7f0d838"/>
      <resource>
         <DiagnosticReport>
            <id value="fdf7467e-faf9-4a36-9d06-739fe7f0d838"/>
            <meta>
               <profile value="http://hl7.eu/fhir/laboratory/StructureDefinition/DiagnosticReport-eu-lab"/>
            </meta>
            <extension url="http://hl7.org/fhir/5.0/StructureDefinition/extension-DiagnosticReport.composition">
               <valueReference>
                  <reference value="urn:uuid:787cd7c3-7fa8-4e0a-a37b-d21634551d95"/>
               </valueReference>
            </extension>
            <identifier>
               <system value="urn:oid:2.16.840.1.113883.2.51.999"/>
               <value value="f6f9496b-f65f-48cc-a749-7d4c2d7bf7aa"/>
               <assigner>
                  <display value="HL7 Europe"/>
               </assigner>
            </identifier>
            <status value="registered"/>
            <category>
               <coding>
                  <system value="http://loinc.org"/>
                  <code value="18719-5"/>
                  <display value="Chemistry studies (set)"/>
               </coding>
            </category>
            <code>
               <coding>
                  <system value="http://loinc.org"/>
                  <code value="11502-2"/>
                  <display value="Laboratory report"/>
               </coding>
            </code>
            <subject>
               <reference value="urn:uuid:ef5fd9d6-831f-49de-80f3-54985e0eba1b"/>
            </subject>
            <specimen>
               <reference value="urn:uuid:cfed0a71-ad86-40bf-a7e6-3167b09ce3e9"/>
            </specimen>
            <specimen>
               <reference value="urn:uuid:d0b3ee93-49de-436d-aa01-45fe86756d7d"/>
            </specimen>
            <specimen>
               <reference value="urn:uuid:3ea2fb65-410f-4b40-ba16-6f3424301770"/>
            </specimen>
            <result>
               <reference value="urn:uuid:9bbbd9d3-b017-490d-85eb-360c0bd53c90"/>
            </result>
            <result>
               <reference value="urn:uuid:616a9cc2-4f38-4fb0-8777-8eb74b8d956c"/>
            </result>
            <result>
               <reference value="urn:uuid:3b31023c-d612-4823-bfd8-3d4aae7229ab"/>
            </result>
            <result>
               <reference value="urn:uuid:7587e4fd-97eb-4705-aeb5-bf435d77366e"/>
            </result>
         </DiagnosticReport>
      </resource>
   </entry>
   <entry>
      <fullUrl value="urn:uuid:ef5fd9d6-831f-49de-80f3-54985e0eba1b"/>
      <resource>
         <Patient>
            <id value="ef5fd9d6-831f-49de-80f3-54985e0eba1b"/>
            <meta>
               <profile value="http://hl7.eu/fhir/laboratory/StructureDefinition/Patient-eu-lab"/>
            </meta>
            <identifier>
               <type>
                  <coding>
                     <system value="http://terminology.hl7.org/CodeSystem/v2-0203"/>
                     <code value="NI"/>
                  </coding>
               </type>
               <system value="http://ec.europa.eu/identifier/eci"/>
               <value value="5605-573984-3"/>
            </identifier>
            <identifier>
               <type>
                  <coding>
                     <system value="http://terminology.hl7.org/CodeSystem/v2-0203"/>
                     <code value="MR"/>
                  </coding>
               </type>
               <system value="http://local.setting.eu/identifier"/>
               <value value="ac13c30b-68cb-401a-a02c-34bac2bdc95b"/>
            </identifier>
            <name>
               <text value="Vicente Ferreira"/>
               <family value="Ferreira"/>
               <given value="Vicente"/>
            </name>
            <telecom>
               <system value="phone"/>
               <value value="+351 21 258 575 2447"/>
            </telecom>
            <gender value="male"/>
            <birthDate value="1941-12-26"/>
            <address>
               <use value="home"/>
               <type value="physical"/>
               <line value="Avenida Nova 49"/>
               <city value="Ataúde"/>
               <postalCode value="4970-235"/>
               <country value="Portugal"/>
            </address>
         </Patient>
      </resource>
   </entry>
   <entry>
      <fullUrl value="urn:uuid:bbb1c7f1-7e8f-4282-877c-53c9afd85614"/>
      <resource>
         <ServiceRequest>
            <id value="bbb1c7f1-7e8f-4282-877c-53c9afd85614"/>
            <meta>
               <profile value="http://hl7.eu/fhir/laboratory/StructureDefinition/ServiceRequest-eu-lab"/>
            </meta>
            <identifier>
               <system value="http://example.org"/>
               <value value="2c3405a5-c64b-4ca3-8c6c-59ba4a018e77"/>
            </identifier>
            <status value="active"/>
            <intent value="order"/>
            <code>
               <coding>
                  <system value="http://snomed.info/sct"/>
                  <code value="108252007"/>
                  <display value="Laboratory procedure"/>
               </coding>
            </code>
            <subject>
               <reference value="urn:uuid:ef5fd9d6-831f-49de-80f3-54985e0eba1b"/>
            </subject>
            <requester>
               <reference value="urn:uuid:0de52b60-de2b-46b4-9909-efde39b4ccf2"/>
            </requester>
            <specimen>
               <reference value="urn:uuid:cfed0a71-ad86-40bf-a7e6-3167b09ce3e9"/>
            </specimen>
            <specimen>
               <reference value="urn:uuid:d0b3ee93-49de-436d-aa01-45fe86756d7d"/>
            </specimen>
            <specimen>
               <reference value="urn:uuid:3ea2fb65-410f-4b40-ba16-6f3424301770"/>
            </specimen>
         </ServiceRequest>
      </resource>
   </entry>
   <entry>
      <fullUrl value="urn:uuid:0de52b60-de2b-46b4-9909-efde39b4ccf2"/>
      <resource>
         <PractitionerRole>
            <id value="0de52b60-de2b-46b4-9909-efde39b4ccf2"/>
            <meta>
               <profile value="http://hl7.eu/fhir/laboratory/StructureDefinition/PractitionerRole-eu-lab"/>
            </meta>
            <organization>
               <reference value="urn:uuid:afbff324-3c9d-4c2f-bfcc-8171e532d595"/>
            </organization>
         </PractitionerRole>
      </resource>
   </entry>
   <entry>
      <fullUrl value="urn:uuid:afbff324-3c9d-4c2f-bfcc-8171e532d595"/>
      <resource>
         <Organization>
            <id value="afbff324-3c9d-4c2f-bfcc-8171e532d595"/>
            <meta>
               <profile value="http://hl7.org/fhir/uv/ips/StructureDefinition/Organization-uv-ips"/>
            </meta>
            <identifier>
               <system value="urn:oid:2.16.840.1.113883.2.51.999"/>
               <value value="1e3168ba-a6f2-4332-a30e-96edfb8f8de8"/>
               <assigner>
                  <display value="HL7 Europe"/>
               </assigner>
            </identifier>
            <name value="Santa Casa da Misericórdia de Arcos de Valdevez"/>
            <address>
               <city value="Arcos de Valdevez"/>
               <postalCode value="4970-593"/>
               <country value="pt"/>
            </address>
         </Organization>
      </resource>
   </entry>
   <entry>
      <fullUrl value="urn:uuid:75b47f86-1497-4e2f-a82c-c353e9da7c9d"/>
      <resource>
         <PractitionerRole>
            <id value="75b47f86-1497-4e2f-a82c-c353e9da7c9d"/>
            <meta>
               <profile value="http://hl7.eu/fhir/laboratory/StructureDefinition/PractitionerRole-eu-lab"/>
            </meta>
            <practitioner>
               <reference value="urn:uuid:4cfd8c8a-ed7a-4204-8e1e-d50c2d4be30f"/>
            </practitioner>
         </PractitionerRole>
      </resource>
   </entry>
   <entry>
      <fullUrl value="urn:uuid:4cfd8c8a-ed7a-4204-8e1e-d50c2d4be30f"/>
      <resource>
         <Practitioner>
            <id value="4cfd8c8a-ed7a-4204-8e1e-d50c2d4be30f"/>
            <meta>
               <profile value="http://hl7.eu/fhir/laboratory/StructureDefinition/Practitioner-eu-lab"/>
            </meta>
            <identifier>
               <system value="urn:oid:2.16.840.1.113883.2.51.999"/>
               <value value="af20b3a4-e36e-4aa0-aed2-9966d2400ebe"/>
               <assigner>
                  <display value="HL7 Europe"/>
               </assigner>
            </identifier>
            <name>
               <family value="Ample"/>
               <given value="Ex"/>
               <prefix value="dr"/>
            </name>
            <address>
               <line value="Boulevard du Jardin Botanique 32"/>
               <city value="Brussels"/>
               <postalCode value="1000"/>
            </address>
         </Practitioner>
      </resource>
   </entry>
   <entry>
      <fullUrl value="urn:uuid:cfed0a71-ad86-40bf-a7e6-3167b09ce3e9"/>
      <resource>
         <Specimen>
            <id value="cfed0a71-ad86-40bf-a7e6-3167b09ce3e9"/>
            <meta>
               <profile value="http://hl7.eu/fhir/laboratory/StructureDefinition/Specimen-eu-lab"/>
            </meta>
            <status value="available"/>
            <type>
               <coding>
                  <system value="http://snomed.info/sct"/>
                  <code value="122552005"/>
                  <display value="Arterial blood specimen (specimen)"/>
               </coding>
            </type>
            <collection>
               <collectedDateTime value="2024-11-18"/>
            </collection>
         </Specimen>
      </resource>
   </entry>
   <entry>
      <fullUrl value="urn:uuid:d0b3ee93-49de-436d-aa01-45fe86756d7d"/>
      <resource>
         <Specimen>
            <id value="d0b3ee93-49de-436d-aa01-45fe86756d7d"/>
            <meta>
               <profile value="http://hl7.eu/fhir/laboratory/StructureDefinition/Specimen-eu-lab"/>
            </meta>
            <status value="available"/>
            <type>
               <coding>
                  <system value="http://snomed.info/sct"/>
                  <code value="258604001"/>
                  <display value="Upper respiratory specimen (specimen)"/>
               </coding>
            </type>
            <collection>
               <collectedDateTime value="2024-11-18"/>
            </collection>
         </Specimen>
      </resource>
   </entry>
   <entry>
      <fullUrl value="urn:uuid:3ea2fb65-410f-4b40-ba16-6f3424301770"/>
      <resource>
         <Specimen>
            <id value="3ea2fb65-410f-4b40-ba16-6f3424301770"/>
            <meta>
               <profile value="http://hl7.eu/fhir/laboratory/StructureDefinition/Specimen-eu-lab"/>
            </meta>
            <status value="available"/>
            <type>
               <coding>
                  <system value="http://snomed.info/sct"/>
                  <code value="258603007"/>
                  <display value="Respiratory specimen (specimen)"/>
               </coding>
            </type>
            <collection>
               <collectedDateTime value="2024-11-18"/>
            </collection>
         </Specimen>
      </resource>
   </entry>
   <entry>
      <fullUrl value="urn:uuid:9bbbd9d3-b017-490d-85eb-360c0bd53c90"/>
      <resource>
         <Observation>
            <id value="9bbbd9d3-b017-490d-85eb-360c0bd53c90"/>
            <meta>
               <profile value="http://hl7.eu/fhir/laboratory/StructureDefinition/Observation-resultslab-eu-lab"/>
            </meta>
            <status value="final"/>
            <category>
               <coding>
                  <system value="http://terminology.hl7.org/CodeSystem/observation-category"/>
                  <code value="laboratory"/>
               </coding>
            </category>
            <code>
               <coding>
                  <system value="http://loinc.org"/>
                  <code value="2708-6"/>
                  <display value="Oxygen saturation in Arterial blood"/>
               </coding>
               <text value="Oxygen saturation in Arterial blood"/>
            </code>
            <subject>
               <reference value="urn:uuid:ef5fd9d6-831f-49de-80f3-54985e0eba1b"/>
            </subject>
            <effectiveDateTime value="2024-11-18"/>
            <performer>
               <display value="The Central European Lab"/>
            </performer>
            <valueQuantity>
               <value value="87.6"/>
               <unit value="%"/>
               <system value="http://unitsofmeasure.org"/>
               <code value="%"/>
            </valueQuantity>
            <interpretation>
               <coding>
                  <system value="http://terminology.hl7.org/CodeSystem/v3-ObservationInterpretation"/>
                  <code value="L"/>
                  <display value="Low"/>
               </coding>
            </interpretation>
            <specimen>
               <reference value="urn:uuid:cfed0a71-ad86-40bf-a7e6-3167b09ce3e9"/>
            </specimen>
            <referenceRange>
               <low>
                  <value value="95"/>
                  <system value="http://unitsofmeasure.org"/>
                  <code value="%"/>
               </low>
            </referenceRange>
            <referenceRange>
               <high>
                  <value value="100"/>
                  <system value="http://unitsofmeasure.org"/>
                  <code value="%"/>
               </high>
            </referenceRange>
         </Observation>
      </resource>
   </entry>
   <entry>
      <fullUrl value="urn:uuid:616a9cc2-4f38-4fb0-8777-8eb74b8d956c"/>
      <resource>
         <Observation>
            <id value="616a9cc2-4f38-4fb0-8777-8eb74b8d956c"/>
            <meta>
               <profile value="http://hl7.eu/fhir/laboratory/StructureDefinition/Observation-resultslab-eu-lab"/>
            </meta>
            <status value="final"/>
            <category>
               <coding>
                  <system value="http://terminology.hl7.org/CodeSystem/observation-category"/>
                  <code value="laboratory"/>
               </coding>
            </category>
            <code>
               <coding>
                  <system value="http://loinc.org"/>
                  <code value="80382-5"/>
                  <display value="Influenza virus A Ag [Presence] in Upper respiratory specimen by Rapid immunoassay"/>
               </coding>
               <text value="Influenza virus A Ag [Presence] in Upper respiratory specimen by Rapid immunoassay"/>
            </code>
            <subject>
               <reference value="urn:uuid:ef5fd9d6-831f-49de-80f3-54985e0eba1b"/>
            </subject>
            <effectiveDateTime value="2024-11-18"/>
            <performer>
               <display value="The Central European Lab"/>
            </performer>
            <valueCodeableConcept>
               <coding>
                  <system value="http://snomed.info/sct"/>
                  <code value="260415000"/>
                  <display value="Not detected"/>
               </coding>
            </valueCodeableConcept>
            <specimen>
               <reference value="urn:uuid:d0b3ee93-49de-436d-aa01-45fe86756d7d"/>
            </specimen>
         </Observation>
      </resource>
   </entry>
   <entry>
      <fullUrl value="urn:uuid:3b31023c-d612-4823-bfd8-3d4aae7229ab"/>
      <resource>
         <Observation>
            <id value="3b31023c-d612-4823-bfd8-3d4aae7229ab"/>
            <meta>
               <profile value="http://hl7.eu/fhir/laboratory/StructureDefinition/Observation-resultslab-eu-lab"/>
            </meta>
            <status value="final"/>
            <category>
               <coding>
                  <system value="http://terminology.hl7.org/CodeSystem/observation-category"/>
                  <code value="laboratory"/>
               </coding>
            </category>
            <code>
               <coding>
                  <system value="http://loinc.org"/>
                  <code value="80383-3"/>
                  <display value="Influenza virus B Ag [Presence] in Upper respiratory specimen by Rapid immunoassay"/>
               </coding>
               <text value="Influenza virus B Ag [Presence] in Upper respiratory specimen by Rapid immunoassay"/>
            </code>
            <subject>
               <reference value="urn:uuid:ef5fd9d6-831f-49de-80f3-54985e0eba1b"/>
            </subject>
            <effectiveDateTime value="2024-11-18"/>
            <performer>
               <display value="The Central European Lab"/>
            </performer>
            <valueCodeableConcept>
               <coding>
                  <system value="http://snomed.info/sct"/>
                  <code value="260415000"/>
                  <display value="Not detected"/>
               </coding>
            </valueCodeableConcept>
            <specimen>
               <reference value="urn:uuid:d0b3ee93-49de-436d-aa01-45fe86756d7d"/>
            </specimen>
         </Observation>
      </resource>
   </entry>
   <entry>
      <fullUrl value="urn:uuid:7587e4fd-97eb-4705-aeb5-bf435d77366e"/>
      <resource>
         <Observation>
            <id value="7587e4fd-97eb-4705-aeb5-bf435d77366e"/>
            <meta>
               <profile value="http://hl7.eu/fhir/laboratory/StructureDefinition/Observation-resultslab-eu-lab"/>
            </meta>
            <status value="final"/>
            <category>
               <coding>
                  <system value="http://terminology.hl7.org/CodeSystem/observation-category"/>
                  <code value="laboratory"/>
               </coding>
            </category>
            <code>
               <coding>
                  <system value="http://loinc.org"/>
                  <code value="94531-1"/>
                  <display value="SARS-CoV-2 (COVID-19) RNA panel - Respiratory system specimen by NAA with probe detection"/>
               </coding>
               <text value="SARS-CoV-2 (COVID-19) RNA panel - Respiratory system specimen by NAA with probe detection"/>
            </code>
            <subject>
               <reference value="urn:uuid:ef5fd9d6-831f-49de-80f3-54985e0eba1b"/>
            </subject>
            <effectiveDateTime value="2024-11-18"/>
            <performer>
               <display value="The Central European Lab"/>
            </performer>
            <valueCodeableConcept>
               <coding>
                  <system value="http://snomed.info/sct"/>
                  <code value="260373001"/>
                  <display value="Detected"/>
               </coding>
            </valueCodeableConcept>
            <specimen>
               <reference value="urn:uuid:3ea2fb65-410f-4b40-ba16-6f3424301770"/>
            </specimen>
         </Observation>
      </resource>
   </entry>
</Bundle>
