<Bundle xmlns="http://hl7.org/fhir">
   <id value="Instance-Bundle-cea50d4c-e37d-4424-817c-41acda566fa5"/>
   <meta>
      <profile value="http://hl7.eu/fhir/laboratory/StructureDefinition/Bundle-eu-lab"/>
   </meta>
   <identifier>
      <system value="urn:oid:2.16.840.1.113883.2.51.999"/>
      <value value="d8a98459-41e6-4108-bb59-098a00784e77"/>
      <assigner>
         <display value="HL7 Europe"/>
      </assigner>
   </identifier>
   <type value="document"/>
   <timestamp value="2024-11-19T18:37:48Z"/>
   <entry>
      <fullUrl value="urn:uuid:73d55a44-5c08-4370-9ec9-385c504f13e6"/>
      <resource>
         <Composition>
            <id value="73d55a44-5c08-4370-9ec9-385c504f13e6"/>
            <meta>
               <profile value="http://hl7.eu/fhir/laboratory/StructureDefinition/Composition-eu-lab"/>
            </meta>
            <identifier>
               <system value="urn:oid:2.16.840.1.113883.2.51.999"/>
               <value value="d29af7f2-e14e-4e67-9745-18f0f72597cf"/>
               <assigner>
                  <display value="HL7 Europe"/>
               </assigner>
            </identifier>
            <status value="final"/>
            <type>
               <text value="Laboratory Report"/>
            </type>
            <category>
               <coding>
                  <system value="http://loinc.org"/>
                  <code value="26436-6"/>
                  <display value="Laboratory studies (set)"/>
               </coding>
            </category>
            <subject>
               <reference value="urn:uuid:71541cd5-9354-4c3c-bec5-48420400fcea"/>
            </subject>
            <date value="2024-11-19T18:37:48Z"/>
            <author>
               <reference value="urn:uuid:ddbab04a-0409-4481-9e0f-a2a8365c1823"/>
            </author>
            <title value="Laboratory Report"/>
            <confidentiality value="N"/>
            <section>
               <title value="Laboratory Report"/>
               <code>
                  <coding>
                     <system value="http://loinc.org"/>
                     <code value="26436-6"/>
                     <display value="Laboratory studies (set)"/>
                  </coding>
                  <text value="Laboratory studies"/>
               </code>
               <section>
                  <title value="Hematology"/>
                  <code>
                     <coding>
                        <system value="http://loinc.org"/>
                        <code value="18723-7"/>
                        <display value="Hematology studies (set)"/>
                     </coding>
                     <text value="Hematology"/>
                  </code>
                  <text>
                     <status value="generated"/>
                     <div xmlns="http://www.w3.org/1999/xhtml">
                        <h3 id="section-1">Hematology</h3>
                        <table class="hl7__eu__lab__report">
                           <thead>
                              <tr>
                                 <th>Test</th>
                                 <th>18 Nov 2024</th>
                                 <th>Reference Range</th>
                                 <th>Unit</th>
                              </tr>
                           </thead>
                           <tbody>
                              <tr>
                                 <td>Leukocytes [#/volume] in Blood by Automated count</td>
                                 <td>
                                    <strong>3.1 L</strong>
                                 </td>
                                 <td>3.4 - 10.6</td>
                                 <td>10*3/uL</td>
                              </tr>
                              <tr>
                                 <td>Erythrocytes [#/volume] in Blood by Automated count</td>
                                 <td>
                                    <strong>4.2 L</strong>
                                 </td>
                                 <td>4.5 - 5.7</td>
                                 <td>10*6/uL</td>
                              </tr>
                              <tr>
                                 <td>Hemoglobin [Mass/volume] in Blood</td>
                                 <td>
                                    <strong>11.2 L</strong>
                                 </td>
                                 <td>13.5 - 17.5</td>
                                 <td>g/dL</td>
                              </tr>
                              <tr>
                                 <td>Hematocrit [Volume Fraction] of Blood by Automated count</td>
                                 <td>45.5</td>
                                 <td>37 - 52</td>
                                 <td>%</td>
                              </tr>
                              <tr>
                                 <td>MCV [Entitic volume] by Automated count</td>
                                 <td>96.6</td>
                                 <td>82 - 98</td>
                                 <td>fL</td>
                              </tr>
                              <tr>
                                 <td>MCH [Entitic mass] by Automated count</td>
                                 <td>27.1</td>
                                 <td>27 - 33</td>
                                 <td>pg</td>
                              </tr>
                              <tr>
                                 <td>MCHC [Mass/volume] by Automated count</td>
                                 <td>32.3</td>
                                 <td>31 - 36</td>
                                 <td>g/dL</td>
                              </tr>
                              <tr>
                                 <td>Erythrocyte distribution width [Ratio] by Automated count</td>
                                 <td>14.0</td>
                                 <td>11.5 - 16</td>
                                 <td>%</td>
                              </tr>
                              <tr>
                                 <td>Platelets [#/volume] in Blood by Automated count</td>
                                 <td>
                                    <strong>137.3 L</strong>
                                 </td>
                                 <td>150 - 317</td>
                                 <td>10*3/uL</td>
                              </tr>
                              <tr>
                                 <td>Neutrophils/100 leukocytes in Blood by Automated count</td>
                                 <td>
                                    <strong>18.1 L</strong>
                                 </td>
                                 <td>45 - 75</td>
                                 <td>%</td>
                              </tr>
                              <tr>
                                 <td>Lymphocytes/100 leukocytes in Blood by Automated count</td>
                                 <td>
                                    <strong>8.2 L</strong>
                                 </td>
                                 <td>20 - 45</td>
                                 <td>%</td>
                              </tr>
                              <tr>
                                 <td>Monocytes/100 leukocytes in Blood by Automated count</td>
                                 <td>
                                    <strong>14.9 H</strong>
                                 </td>
                                 <td>3 - 10</td>
                                 <td>%</td>
                              </tr>
                              <tr>
                                 <td>Eosinophils/100 leukocytes in Blood by Automated count</td>
                                 <td>3.3</td>
                                 <td>0 - 7</td>
                                 <td>%</td>
                              </tr>
                              <tr>
                                 <td>Basophils/100 leukocytes in Blood by Automated count</td>
                                 <td>3.0</td>
                                 <td>0 - 3</td>
                                 <td>%</td>
                              </tr>
                              <tr>
                                 <td>Neutrophils [#/volume] in Blood by Automated count</td>
                                 <td>3.2</td>
                                 <td>2 - 7</td>
                                 <td>10*3/uL</td>
                              </tr>
                              <tr>
                                 <td>Lymphocytes [#/volume] in Blood by Automated count</td>
                                 <td>1.1</td>
                                 <td>1 - 4</td>
                                 <td>10*3/uL</td>
                              </tr>
                              <tr>
                                 <td>Monocytes [#/volume] in Blood by Automated count</td>
                                 <td>
                                    <strong>1.1 H</strong>
                                 </td>
                                 <td>0.7 - 0.9</td>
                                 <td>10*3/uL</td>
                              </tr>
                              <tr>
                                 <td>Eosinophils [#/volume] in Blood by Automated count</td>
                                 <td>0.4</td>
                                 <td>0 - 0.7</td>
                                 <td>10*3/uL</td>
                              </tr>
                              <tr>
                                 <td>Basophils [#/volume] in Blood by Automated count</td>
                                 <td>
                                    <strong>0.3 H</strong>
                                 </td>
                                 <td>0.1 - 0.2</td>
                                 <td>10*3/uL</td>
                              </tr>
                           </tbody>
                        </table>
                     </div>
                  </text>
                  <entry>
                     <reference value="urn:uuid:838b9f9c-2078-4d50-85e6-ed1cad888332"/>
                  </entry>
                  <entry>
                     <reference value="urn:uuid:61e7d96b-8fcd-4a36-94e6-9b621776e840"/>
                  </entry>
                  <entry>
                     <reference value="urn:uuid:6ded89df-57ca-4d2e-bf2d-71175771fb84"/>
                  </entry>
                  <entry>
                     <reference value="urn:uuid:b34fe472-8f6a-4b36-8d02-db81248023d3"/>
                  </entry>
                  <entry>
                     <reference value="urn:uuid:019fef43-8cad-47dc-83cd-f420f9e900bf"/>
                  </entry>
                  <entry>
                     <reference value="urn:uuid:2f1ccc8d-6d1d-4670-926d-a18755c1a177"/>
                  </entry>
                  <entry>
                     <reference value="urn:uuid:3eeda493-332a-4a3e-a953-924426f5f461"/>
                  </entry>
                  <entry>
                     <reference value="urn:uuid:ae53937f-7bd5-48a1-96a5-bd24223d4489"/>
                  </entry>
                  <entry>
                     <reference value="urn:uuid:92a6bf91-1bd6-450b-a583-5f4d1a4f1fc0"/>
                  </entry>
                  <entry>
                     <reference value="urn:uuid:cfef3199-c27e-4ba0-a3b2-474d7e53c748"/>
                  </entry>
                  <entry>
                     <reference value="urn:uuid:c602dfcc-7038-4861-bb0f-c2cbb3318c46"/>
                  </entry>
                  <entry>
                     <reference value="urn:uuid:0905a732-81fb-4cec-8e7f-252060de7a79"/>
                  </entry>
                  <entry>
                     <reference value="urn:uuid:ac42b2ee-2c06-4372-960b-200b804c7fce"/>
                  </entry>
                  <entry>
                     <reference value="urn:uuid:0d546569-5765-4882-ad2d-58057597afa4"/>
                  </entry>
                  <entry>
                     <reference value="urn:uuid:e93ba20e-5ca1-447b-8f41-aad38bdef05d"/>
                  </entry>
                  <entry>
                     <reference value="urn:uuid:277c23c3-4d51-48e6-8476-ec72c4f89890"/>
                  </entry>
                  <entry>
                     <reference value="urn:uuid:cacf0c28-0d6f-41be-9ea4-9a358cee2c0b"/>
                  </entry>
                  <entry>
                     <reference value="urn:uuid:c3ddd102-057c-431a-89f9-0734126eef92"/>
                  </entry>
                  <entry>
                     <reference value="urn:uuid:baf667c9-782a-4977-9189-dbc894539d56"/>
                  </entry>
               </section>
               <section>
                  <title value="Chemistry"/>
                  <code>
                     <coding>
                        <system value="http://loinc.org"/>
                        <code value="18719-5"/>
                        <display value="Chemistry studies (set)"/>
                     </coding>
                     <text value="Chemistry"/>
                  </code>
                  <text>
                     <status value="generated"/>
                     <div xmlns="http://www.w3.org/1999/xhtml">
                        <h3 id="section-2">Chemistry</h3>
                        <table class="hl7__eu__lab__report">
                           <thead>
                              <tr>
                                 <th>Test</th>
                                 <th>18 Nov 2024</th>
                                 <th>Reference Range</th>
                                 <th>Unit</th>
                              </tr>
                           </thead>
                           <tbody>
                              <tr>
                                 <td>Oxygen saturation in Arterial blood</td>
                                 <td>
                                    <strong>87.9 L</strong>
                                 </td>
                                 <td>95 - 100</td>
                                 <td>%</td>
                              </tr>
                              <tr>
                                 <td>Oxygen saturation in Arterial blood</td>
                                 <td>
                                    <strong>85.6 L</strong>
                                 </td>
                                 <td>95 - 100</td>
                                 <td>%</td>
                              </tr>
                              <tr>
                                 <td>Glucose [Mass/volume] in Serum or Plasma</td>
                                 <td>81.7</td>
                                 <td>70 - 140</td>
                                 <td>mg/dL</td>
                              </tr>
                              <tr>
                                 <td>Urea nitrogen [Mass/volume] in Serum or Plasma</td>
                                 <td>9.8</td>
                                 <td>7 - 20</td>
                                 <td>mg/dL</td>
                              </tr>
                              <tr>
                                 <td>Creatinine [Mass/volume] in Serum or Plasma</td>
                                 <td>
                                    <strong>2.5 H</strong>
                                 </td>
                                 <td>0.9 - 1.3</td>
                                 <td>mg/dL</td>
                              </tr>
                              <tr>
                                 <td>Calcium [Mass/volume] in Serum or Plasma</td>
                                 <td>9.0</td>
                                 <td>8.5 - 10.5</td>
                                 <td>mg/dL</td>
                              </tr>
                              <tr>
                                 <td>Sodium [Moles/volume] in Serum or Plasma</td>
                                 <td>138.0</td>
                                 <td>135 - 145</td>
                                 <td>mmol/L</td>
                              </tr>
                              <tr>
                                 <td>Potassium [Moles/volume] in Serum or Plasma</td>
                                 <td>3.8</td>
                                 <td>3.5 - 5</td>
                                 <td>mmol/L</td>
                              </tr>
                              <tr>
                                 <td>Chloride [Moles/volume] in Serum or Plasma</td>
                                 <td>105.2</td>
                                 <td>98 - 108</td>
                                 <td>mmol/L</td>
                              </tr>
                              <tr>
                                 <td>Carbon dioxide, total [Moles/volume] in Serum or Plasma</td>
                                 <td>28.8</td>
                                 <td>22 - 32</td>
                                 <td>mmol/L</td>
                              </tr>
                              <tr>
                                 <td>Protein [Mass/volume] in Serum or Plasma</td>
                                 <td>7.5</td>
                                 <td>6 - 8.3</td>
                                 <td>g/dL</td>
                              </tr>
                              <tr>
                                 <td>Albumin [Mass/volume] in Serum or Plasma</td>
                                 <td>5.2</td>
                                 <td>3.5 - 5.5</td>
                                 <td>g/dL</td>
                              </tr>
                              <tr>
                                 <td>Bilirubin.total [Mass/volume] in Serum or Plasma</td>
                                 <td>
                                    <strong>9.5 H</strong>
                                 </td>
                                 <td>0.3 - 1.2</td>
                                 <td>mg/dL</td>
                              </tr>
                              <tr>
                                 <td>Alkaline phosphatase [Enzymatic activity/volume] in Serum or Plasma</td>
                                 <td>57.8</td>
                                 <td>39 - 147</td>
                                 <td>U/L</td>
                              </tr>
                              <tr>
                                 <td>Alanine aminotransferase [Enzymatic activity/volume] in Serum or Plasma</td>
                                 <td>26.0</td>
                                 <td>7 - 60</td>
                                 <td>U/L</td>
                              </tr>
                              <tr>
                                 <td>Aspartate aminotransferase [Enzymatic activity/volume] in Serum or Plasma</td>
                                 <td>27.7</td>
                                 <td>10 - 40</td>
                                 <td>U/L</td>
                              </tr>
                              <tr>
                                 <td>Ferritin [Mass/volume] in Serum or Plasma</td>
                                 <td>356.6</td>
                                 <td>30 - 400</td>
                                 <td>ug/L</td>
                              </tr>
                              <tr>
                                 <td>Troponin I.cardiac [Mass/volume] in Serum or Plasma by High sensitivity method</td>
                                 <td>1.8</td>
                                 <td>0 - 19.9</td>
                                 <td>pg/mL</td>
                              </tr>
                              <tr>
                                 <td>Lactate dehydrogenase [Enzymatic activity/volume] in Serum or Plasma by Lactate to pyruvate reaction</td>
                                 <td>239.4</td>
                                 <td>100 - 248</td>
                                 <td>U/L</td>
                              </tr>
                              <tr>
                                 <td>Creatine kinase [Enzymatic activity/volume] in Serum or Plasma</td>
                                 <td>
                                    <strong>19.6 L</strong>
                                 </td>
                                 <td>38 - 215</td>
                                 <td>U/L</td>
                              </tr>
                              <tr>
                                 <td>C reactive protein [Mass/volume] in Serum or Plasma</td>
                                 <td>8.6</td>
                                 <td>0 - 10</td>
                                 <td>mg/L</td>
                              </tr>
                              <tr>
                                 <td>Procalcitonin [Mass/volume] in Serum or Plasma</td>
                                 <td>0.0</td>
                                 <td>0 - 0.5</td>
                                 <td>ng/mL</td>
                              </tr>
                           </tbody>
                        </table>
                     </div>
                  </text>
                  <entry>
                     <reference value="urn:uuid:b2ded4ed-7dcf-4f8f-9ed9-6c22fafd2559"/>
                  </entry>
                  <entry>
                     <reference value="urn:uuid:2535090a-b97f-4f57-b3d9-fd697851bff5"/>
                  </entry>
                  <entry>
                     <reference value="urn:uuid:daff25c2-5d2c-4695-bb75-2740e8784e01"/>
                  </entry>
                  <entry>
                     <reference value="urn:uuid:7541e418-d5f8-432b-b0b2-8336fc68bd2c"/>
                  </entry>
                  <entry>
                     <reference value="urn:uuid:c0ff5251-9c5d-424b-a209-850433e6ab3b"/>
                  </entry>
                  <entry>
                     <reference value="urn:uuid:e2e2af0c-d956-431d-9b47-417132323d8d"/>
                  </entry>
                  <entry>
                     <reference value="urn:uuid:d71dc05b-9977-4b86-8b10-eba6e1dc6084"/>
                  </entry>
                  <entry>
                     <reference value="urn:uuid:da4111c1-8cea-4851-b095-87d765ce0dc8"/>
                  </entry>
                  <entry>
                     <reference value="urn:uuid:ef14aa1f-09a5-4a86-95b8-78208718074c"/>
                  </entry>
                  <entry>
                     <reference value="urn:uuid:e05d90e8-759c-4f43-9d37-acaaf3c16296"/>
                  </entry>
                  <entry>
                     <reference value="urn:uuid:8198a0d4-7bd7-4ca5-9fc4-00955010c29d"/>
                  </entry>
                  <entry>
                     <reference value="urn:uuid:3ac4b4b5-28b2-4e84-9440-f02b3e14e209"/>
                  </entry>
                  <entry>
                     <reference value="urn:uuid:2be9d43f-605a-4600-b4f0-113c30f2d4a4"/>
                  </entry>
                  <entry>
                     <reference value="urn:uuid:f1f38135-64d1-4e6c-9248-944c35591889"/>
                  </entry>
                  <entry>
                     <reference value="urn:uuid:79262729-db93-40f5-abc7-a46c924fbf47"/>
                  </entry>
                  <entry>
                     <reference value="urn:uuid:3bfeac4b-2f5d-45df-8d07-76aeb33332c2"/>
                  </entry>
                  <entry>
                     <reference value="urn:uuid:814b709d-b942-4dff-b9f0-da63a67bed89"/>
                  </entry>
                  <entry>
                     <reference value="urn:uuid:8b1ccb08-2ff1-4fd4-ab9c-e4f117751d4a"/>
                  </entry>
                  <entry>
                     <reference value="urn:uuid:681cde7f-ed59-4ea1-96ef-1b5a58af3ed3"/>
                  </entry>
                  <entry>
                     <reference value="urn:uuid:eed88c9e-282b-4cce-aaa4-930a3d6ce7bf"/>
                  </entry>
                  <entry>
                     <reference value="urn:uuid:9b328e35-6c6f-4154-a647-4a620f789ab0"/>
                  </entry>
                  <entry>
                     <reference value="urn:uuid:e39791cd-377e-4417-af43-b20eb8e78f43"/>
                  </entry>
               </section>
               <section>
                  <title value="Coagulation"/>
                  <code>
                     <coding>
                        <system value="http://loinc.org"/>
                        <code value="18720-3"/>
                        <display value="Coagulation studies (set)"/>
                     </coding>
                     <text value="Coagulation"/>
                  </code>
                  <text>
                     <status value="generated"/>
                     <div xmlns="http://www.w3.org/1999/xhtml">
                        <h3 id="section-3">Coagulation</h3>
                        <table class="hl7__eu__lab__report">
                           <thead>
                              <tr>
                                 <th>Test</th>
                                 <th>18 Nov 2024</th>
                                 <th>Reference Range</th>
                                 <th>Unit</th>
                              </tr>
                           </thead>
                           <tbody>
                              <tr>
                                 <td>Fibrin D-dimer FEU [Mass/volume] in Platelet poor plasma</td>
                                 <td>0.3</td>
                                 <td>0 - 0.5</td>
                                 <td>ug/mL</td>
                              </tr>
                              <tr>
                                 <td>Prothrombin time (PT)</td>
                                 <td>
                                    <strong>10.9 L</strong>
                                 </td>
                                 <td>11 - 13.5</td>
                                 <td>s</td>
                              </tr>
                              <tr>
                                 <td>INR in Platelet poor plasma by Coagulation assay</td>
                                 <td>1.2</td>
                                 <td>0.9 - 2</td>
                                 <td>{INR}</td>
                              </tr>
                           </tbody>
                        </table>
                     </div>
                  </text>
                  <entry>
                     <reference value="urn:uuid:6e4a1bdd-bc88-4570-a5bd-955386c9f421"/>
                  </entry>
                  <entry>
                     <reference value="urn:uuid:80919029-52c9-4618-870a-81e75d3f06a0"/>
                  </entry>
                  <entry>
                     <reference value="urn:uuid:8879e970-74bb-4ed1-b14a-d7c40d12ab09"/>
                  </entry>
               </section>
               <section>
                  <title value="Microbiology"/>
                  <code>
                     <coding>
                        <system value="http://loinc.org"/>
                        <code value="18725-2"/>
                        <display value="Microbiology studies"/>
                     </coding>
                     <text value="Microbiology"/>
                  </code>
                  <text>
                     <status value="generated"/>
                     <div xmlns="http://www.w3.org/1999/xhtml">
                        <h3 id="section-4">Microbiology</h3>
                        <table class="hl7__eu__lab__report">
                           <thead>
                              <tr>
                                 <th>Test</th>
                                 <th>18 Nov 2024</th>
                                 <th>Reference Range</th>
                                 <th>Unit</th>
                              </tr>
                           </thead>
                           <tbody>
                              <tr>
                                 <td>Influenza virus A RNA [Presence] in Respiratory system specimen by NAA with probe detection</td>
                                 <td>Negative</td>
                                 <td/>
                                 <td/>
                              </tr>
                              <tr>
                                 <td>Influenza virus B RNA [Presence] in Respiratory system specimen by NAA with probe detection</td>
                                 <td>Negative</td>
                                 <td/>
                                 <td/>
                              </tr>
                              <tr>
                                 <td>Respiratory syncytial virus RNA [Presence] in Respiratory system specimen by NAA with probe detection</td>
                                 <td>Negative</td>
                                 <td/>
                                 <td/>
                              </tr>
                              <tr>
                                 <td>Parainfluenza virus 1 RNA [Presence] in Respiratory system specimen by NAA with probe detection</td>
                                 <td>Negative</td>
                                 <td/>
                                 <td/>
                              </tr>
                              <tr>
                                 <td>Parainfluenza virus 2 RNA [Presence] in Respiratory system specimen by NAA with probe detection</td>
                                 <td>Negative</td>
                                 <td/>
                                 <td/>
                              </tr>
                              <tr>
                                 <td>Parainfluenza virus 3 RNA [Presence] in Respiratory system specimen by NAA with probe detection</td>
                                 <td>Negative</td>
                                 <td/>
                                 <td/>
                              </tr>
                              <tr>
                                 <td>Rhinovirus RNA [Presence] in Respiratory system specimen by NAA with probe detection</td>
                                 <td>Negative</td>
                                 <td/>
                                 <td/>
                              </tr>
                              <tr>
                                 <td>Human metapneumovirus RNA [Presence] in Respiratory system specimen by NAA with probe detection</td>
                                 <td>Negative</td>
                                 <td/>
                                 <td/>
                              </tr>
                              <tr>
                                 <td>Adenovirus A+B+C+D+E DNA [Presence] in Respiratory system specimen by NAA with probe detection</td>
                                 <td>Negative</td>
                                 <td/>
                                 <td/>
                              </tr>
                           </tbody>
                        </table>
                     </div>
                  </text>
                  <entry>
                     <reference value="urn:uuid:b51c584f-f466-481e-98b1-7653c62c1eb6"/>
                  </entry>
                  <entry>
                     <reference value="urn:uuid:58165091-9e19-40b6-b3dc-b82d070f1589"/>
                  </entry>
                  <entry>
                     <reference value="urn:uuid:fd28fb3f-57f4-4406-9adb-89b207769b43"/>
                  </entry>
                  <entry>
                     <reference value="urn:uuid:856fd1b4-0f5b-46f8-be0f-e1d35e0d2b6b"/>
                  </entry>
                  <entry>
                     <reference value="urn:uuid:59027bf9-c855-4d87-9907-adcaa00004c5"/>
                  </entry>
                  <entry>
                     <reference value="urn:uuid:949c398f-7517-4412-b944-df82dbf64f54"/>
                  </entry>
                  <entry>
                     <reference value="urn:uuid:9639449e-cb72-4493-9be5-0c3646319e16"/>
                  </entry>
                  <entry>
                     <reference value="urn:uuid:460232d9-5fb7-4bf7-9d06-95ce54ecb4c1"/>
                  </entry>
                  <entry>
                     <reference value="urn:uuid:f567786a-4653-4dfc-8c92-25f1f60ca6c9"/>
                  </entry>
               </section>
               <section>
                  <title value="Microbiology Panel"/>
                  <code>
                     <coding>
                        <system value="http://loinc.org"/>
                        <code value="18725-2"/>
                        <display value="Microbiology studies"/>
                     </coding>
                     <text value="Microbiology Panel"/>
                  </code>
                  <text>
                     <status value="generated"/>
                     <div xmlns="http://www.w3.org/1999/xhtml">
                        <h3 id="section-5">Microbiology Panel</h3>
                        <table class="hl7__eu__lab__report">
                           <thead>
                              <tr>
                                 <th>Test</th>
                                 <th>18 Nov 2024</th>
                                 <th>Reference Range</th>
                                 <th>Unit</th>
                              </tr>
                           </thead>
                           <tbody>
                              <tr>
                                 <td>SARS-CoV-2 (COVID-19) RNA panel - Respiratory system specimen by NAA with probe detection</td>
                                 <td>Detected</td>
                                 <td/>
                                 <td/>
                              </tr>
                           </tbody>
                        </table>
                     </div>
                  </text>
                  <entry>
                     <reference value="urn:uuid:2aa67204-fec7-4d33-8df9-927ef78e9355"/>
                  </entry>
               </section>
            </section>
         </Composition>
      </resource>
   </entry>
   <entry>
      <fullUrl value="urn:uuid:5b84bc6b-9189-4193-8aab-68bdd8e0717a"/>
      <resource>
         <DiagnosticReport>
            <id value="5b84bc6b-9189-4193-8aab-68bdd8e0717a"/>
            <meta>
               <profile value="http://hl7.eu/fhir/laboratory/StructureDefinition/DiagnosticReport-eu-lab"/>
            </meta>
            <extension url="http://hl7.org/fhir/5.0/StructureDefinition/extension-DiagnosticReport.composition">
               <valueReference>
                  <reference value="urn:uuid:73d55a44-5c08-4370-9ec9-385c504f13e6"/>
               </valueReference>
            </extension>
            <identifier>
               <system value="urn:oid:2.16.840.1.113883.2.51.999"/>
               <value value="5990c689-59f9-4652-9dd1-9782fbe32c22"/>
               <assigner>
                  <display value="HL7 Europe"/>
               </assigner>
            </identifier>
            <status value="registered"/>
            <category>
               <coding>
                  <system value="http://loinc.org"/>
                  <code value="18719-5"/>
                  <display value="Chemistry studies (set)"/>
               </coding>
            </category>
            <code>
               <coding>
                  <system value="http://loinc.org"/>
                  <code value="11502-2"/>
                  <display value="Laboratory report"/>
               </coding>
            </code>
            <subject>
               <reference value="urn:uuid:71541cd5-9354-4c3c-bec5-48420400fcea"/>
            </subject>
            <specimen>
               <reference value="urn:uuid:1b8acf04-ab10-4410-8fbd-3885477a5891"/>
            </specimen>
            <specimen>
               <reference value="urn:uuid:579e751c-f2fc-4732-954c-d7ef97891546"/>
            </specimen>
            <specimen>
               <reference value="urn:uuid:ef652533-ca68-47b0-bd22-97c336586df0"/>
            </specimen>
            <specimen>
               <reference value="urn:uuid:d4de5720-6452-4aec-9eeb-1eb0759dd543"/>
            </specimen>
            <specimen>
               <reference value="urn:uuid:21dea01c-387c-4272-bb04-02e482797933"/>
            </specimen>
            <specimen>
               <reference value="urn:uuid:e1e360e4-386b-4b46-ae52-cf7488cb3099"/>
            </specimen>
            <result>
               <reference value="urn:uuid:b2ded4ed-7dcf-4f8f-9ed9-6c22fafd2559"/>
            </result>
            <result>
               <reference value="urn:uuid:b51c584f-f466-481e-98b1-7653c62c1eb6"/>
            </result>
            <result>
               <reference value="urn:uuid:58165091-9e19-40b6-b3dc-b82d070f1589"/>
            </result>
            <result>
               <reference value="urn:uuid:fd28fb3f-57f4-4406-9adb-89b207769b43"/>
            </result>
            <result>
               <reference value="urn:uuid:856fd1b4-0f5b-46f8-be0f-e1d35e0d2b6b"/>
            </result>
            <result>
               <reference value="urn:uuid:59027bf9-c855-4d87-9907-adcaa00004c5"/>
            </result>
            <result>
               <reference value="urn:uuid:949c398f-7517-4412-b944-df82dbf64f54"/>
            </result>
            <result>
               <reference value="urn:uuid:9639449e-cb72-4493-9be5-0c3646319e16"/>
            </result>
            <result>
               <reference value="urn:uuid:460232d9-5fb7-4bf7-9d06-95ce54ecb4c1"/>
            </result>
            <result>
               <reference value="urn:uuid:f567786a-4653-4dfc-8c92-25f1f60ca6c9"/>
            </result>
            <result>
               <reference value="urn:uuid:2aa67204-fec7-4d33-8df9-927ef78e9355"/>
            </result>
            <result>
               <reference value="urn:uuid:2535090a-b97f-4f57-b3d9-fd697851bff5"/>
            </result>
            <result>
               <reference value="urn:uuid:838b9f9c-2078-4d50-85e6-ed1cad888332"/>
            </result>
            <result>
               <reference value="urn:uuid:61e7d96b-8fcd-4a36-94e6-9b621776e840"/>
            </result>
            <result>
               <reference value="urn:uuid:6ded89df-57ca-4d2e-bf2d-71175771fb84"/>
            </result>
            <result>
               <reference value="urn:uuid:b34fe472-8f6a-4b36-8d02-db81248023d3"/>
            </result>
            <result>
               <reference value="urn:uuid:019fef43-8cad-47dc-83cd-f420f9e900bf"/>
            </result>
            <result>
               <reference value="urn:uuid:2f1ccc8d-6d1d-4670-926d-a18755c1a177"/>
            </result>
            <result>
               <reference value="urn:uuid:3eeda493-332a-4a3e-a953-924426f5f461"/>
            </result>
            <result>
               <reference value="urn:uuid:ae53937f-7bd5-48a1-96a5-bd24223d4489"/>
            </result>
            <result>
               <reference value="urn:uuid:92a6bf91-1bd6-450b-a583-5f4d1a4f1fc0"/>
            </result>
            <result>
               <reference value="urn:uuid:cfef3199-c27e-4ba0-a3b2-474d7e53c748"/>
            </result>
            <result>
               <reference value="urn:uuid:c602dfcc-7038-4861-bb0f-c2cbb3318c46"/>
            </result>
            <result>
               <reference value="urn:uuid:0905a732-81fb-4cec-8e7f-252060de7a79"/>
            </result>
            <result>
               <reference value="urn:uuid:ac42b2ee-2c06-4372-960b-200b804c7fce"/>
            </result>
            <result>
               <reference value="urn:uuid:0d546569-5765-4882-ad2d-58057597afa4"/>
            </result>
            <result>
               <reference value="urn:uuid:e93ba20e-5ca1-447b-8f41-aad38bdef05d"/>
            </result>
            <result>
               <reference value="urn:uuid:277c23c3-4d51-48e6-8476-ec72c4f89890"/>
            </result>
            <result>
               <reference value="urn:uuid:cacf0c28-0d6f-41be-9ea4-9a358cee2c0b"/>
            </result>
            <result>
               <reference value="urn:uuid:c3ddd102-057c-431a-89f9-0734126eef92"/>
            </result>
            <result>
               <reference value="urn:uuid:baf667c9-782a-4977-9189-dbc894539d56"/>
            </result>
            <result>
               <reference value="urn:uuid:daff25c2-5d2c-4695-bb75-2740e8784e01"/>
            </result>
            <result>
               <reference value="urn:uuid:7541e418-d5f8-432b-b0b2-8336fc68bd2c"/>
            </result>
            <result>
               <reference value="urn:uuid:c0ff5251-9c5d-424b-a209-850433e6ab3b"/>
            </result>
            <result>
               <reference value="urn:uuid:e2e2af0c-d956-431d-9b47-417132323d8d"/>
            </result>
            <result>
               <reference value="urn:uuid:d71dc05b-9977-4b86-8b10-eba6e1dc6084"/>
            </result>
            <result>
               <reference value="urn:uuid:da4111c1-8cea-4851-b095-87d765ce0dc8"/>
            </result>
            <result>
               <reference value="urn:uuid:ef14aa1f-09a5-4a86-95b8-78208718074c"/>
            </result>
            <result>
               <reference value="urn:uuid:e05d90e8-759c-4f43-9d37-acaaf3c16296"/>
            </result>
            <result>
               <reference value="urn:uuid:8198a0d4-7bd7-4ca5-9fc4-00955010c29d"/>
            </result>
            <result>
               <reference value="urn:uuid:3ac4b4b5-28b2-4e84-9440-f02b3e14e209"/>
            </result>
            <result>
               <reference value="urn:uuid:2be9d43f-605a-4600-b4f0-113c30f2d4a4"/>
            </result>
            <result>
               <reference value="urn:uuid:f1f38135-64d1-4e6c-9248-944c35591889"/>
            </result>
            <result>
               <reference value="urn:uuid:79262729-db93-40f5-abc7-a46c924fbf47"/>
            </result>
            <result>
               <reference value="urn:uuid:3bfeac4b-2f5d-45df-8d07-76aeb33332c2"/>
            </result>
            <result>
               <reference value="urn:uuid:6e4a1bdd-bc88-4570-a5bd-955386c9f421"/>
            </result>
            <result>
               <reference value="urn:uuid:814b709d-b942-4dff-b9f0-da63a67bed89"/>
            </result>
            <result>
               <reference value="urn:uuid:8b1ccb08-2ff1-4fd4-ab9c-e4f117751d4a"/>
            </result>
            <result>
               <reference value="urn:uuid:681cde7f-ed59-4ea1-96ef-1b5a58af3ed3"/>
            </result>
            <result>
               <reference value="urn:uuid:eed88c9e-282b-4cce-aaa4-930a3d6ce7bf"/>
            </result>
            <result>
               <reference value="urn:uuid:9b328e35-6c6f-4154-a647-4a620f789ab0"/>
            </result>
            <result>
               <reference value="urn:uuid:80919029-52c9-4618-870a-81e75d3f06a0"/>
            </result>
            <result>
               <reference value="urn:uuid:8879e970-74bb-4ed1-b14a-d7c40d12ab09"/>
            </result>
            <result>
               <reference value="urn:uuid:e39791cd-377e-4417-af43-b20eb8e78f43"/>
            </result>
         </DiagnosticReport>
      </resource>
   </entry>
   <entry>
      <fullUrl value="urn:uuid:71541cd5-9354-4c3c-bec5-48420400fcea"/>
      <resource>
         <Patient>
            <id value="71541cd5-9354-4c3c-bec5-48420400fcea"/>
            <meta>
               <profile value="http://hl7.eu/fhir/laboratory/StructureDefinition/Patient-eu-lab"/>
            </meta>
            <identifier>
               <type>
                  <coding>
                     <system value="http://terminology.hl7.org/CodeSystem/v2-0203"/>
                     <code value="NI"/>
                  </coding>
               </type>
               <system value="http://ec.europa.eu/identifier/eci"/>
               <value value="7626-738165-5"/>
            </identifier>
            <identifier>
               <type>
                  <coding>
                     <system value="http://terminology.hl7.org/CodeSystem/v2-0203"/>
                     <code value="MR"/>
                  </coding>
               </type>
               <system value="http://local.setting.eu/identifier"/>
               <value value="c961f551-4bf9-4a78-be17-9fdb4104d05e"/>
            </identifier>
            <name>
               <text value="Reijer Wolff"/>
               <family value="Wolff"/>
               <given value="Reijer"/>
            </name>
            <telecom>
               <system value="phone"/>
               <value value="+31 06-43655982"/>
            </telecom>
            <gender value="male"/>
            <birthDate value="1941-12-26"/>
            <address>
               <use value="home"/>
               <type value="physical"/>
               <line value="Laan van Nieuw Oosteinde 127"/>
               <city value="Voorburg"/>
               <postalCode value="2274 EK"/>
               <country value="Netherlands"/>
            </address>
         </Patient>
      </resource>
   </entry>
   <entry>
      <fullUrl value="urn:uuid:cfdd100d-19b0-4644-8ab5-72fa3f080bf9"/>
      <resource>
         <ServiceRequest>
            <id value="cfdd100d-19b0-4644-8ab5-72fa3f080bf9"/>
            <meta>
               <profile value="http://hl7.eu/fhir/laboratory/StructureDefinition/ServiceRequest-eu-lab"/>
            </meta>
            <identifier>
               <system value="http://example.org"/>
               <value value="d0b1d652-9bce-4fd7-9d7a-207791d53394"/>
            </identifier>
            <status value="active"/>
            <intent value="order"/>
            <code>
               <coding>
                  <system value="http://snomed.info/sct"/>
                  <code value="108252007"/>
                  <display value="Laboratory procedure"/>
               </coding>
            </code>
            <subject>
               <reference value="urn:uuid:71541cd5-9354-4c3c-bec5-48420400fcea"/>
            </subject>
            <requester>
               <reference value="urn:uuid:26323711-4adc-47e9-a896-78ff1588de6b"/>
            </requester>
            <specimen>
               <reference value="urn:uuid:1b8acf04-ab10-4410-8fbd-3885477a5891"/>
            </specimen>
            <specimen>
               <reference value="urn:uuid:579e751c-f2fc-4732-954c-d7ef97891546"/>
            </specimen>
            <specimen>
               <reference value="urn:uuid:ef652533-ca68-47b0-bd22-97c336586df0"/>
            </specimen>
            <specimen>
               <reference value="urn:uuid:d4de5720-6452-4aec-9eeb-1eb0759dd543"/>
            </specimen>
            <specimen>
               <reference value="urn:uuid:21dea01c-387c-4272-bb04-02e482797933"/>
            </specimen>
            <specimen>
               <reference value="urn:uuid:e1e360e4-386b-4b46-ae52-cf7488cb3099"/>
            </specimen>
         </ServiceRequest>
      </resource>
   </entry>
   <entry>
      <fullUrl value="urn:uuid:26323711-4adc-47e9-a896-78ff1588de6b"/>
      <resource>
         <PractitionerRole>
            <id value="26323711-4adc-47e9-a896-78ff1588de6b"/>
            <meta>
               <profile value="http://hl7.eu/fhir/laboratory/StructureDefinition/PractitionerRole-eu-lab"/>
            </meta>
            <organization>
               <reference value="urn:uuid:e6da54e4-e824-466c-8f0b-b60a6b6a27f3"/>
            </organization>
         </PractitionerRole>
      </resource>
   </entry>
   <entry>
      <fullUrl value="urn:uuid:e6da54e4-e824-466c-8f0b-b60a6b6a27f3"/>
      <resource>
         <Organization>
            <id value="e6da54e4-e824-466c-8f0b-b60a6b6a27f3"/>
            <meta>
               <profile value="http://hl7.org/fhir/uv/ips/StructureDefinition/Organization-uv-ips"/>
            </meta>
            <identifier>
               <system value="urn:oid:2.16.840.1.113883.2.51.999"/>
               <value value="e894ad16-8f81-4acb-b2b5-d921a3e9d123"/>
               <assigner>
                  <display value="HL7 Europe"/>
               </assigner>
            </identifier>
            <name value="HMC Bronovo"/>
            <address>
               <line value="Bronovolaan 5"/>
               <city value="Den Haag"/>
               <postalCode value="2597 AV"/>
               <country value="nl"/>
            </address>
         </Organization>
      </resource>
   </entry>
   <entry>
      <fullUrl value="urn:uuid:ddbab04a-0409-4481-9e0f-a2a8365c1823"/>
      <resource>
         <PractitionerRole>
            <id value="ddbab04a-0409-4481-9e0f-a2a8365c1823"/>
            <meta>
               <profile value="http://hl7.eu/fhir/laboratory/StructureDefinition/PractitionerRole-eu-lab"/>
            </meta>
            <practitioner>
               <reference value="urn:uuid:d05fae23-9e0c-46c4-ad51-bc624c472b33"/>
            </practitioner>
         </PractitionerRole>
      </resource>
   </entry>
   <entry>
      <fullUrl value="urn:uuid:d05fae23-9e0c-46c4-ad51-bc624c472b33"/>
      <resource>
         <Practitioner>
            <id value="d05fae23-9e0c-46c4-ad51-bc624c472b33"/>
            <meta>
               <profile value="http://hl7.eu/fhir/laboratory/StructureDefinition/Practitioner-eu-lab"/>
            </meta>
            <identifier>
               <system value="urn:oid:2.16.840.1.113883.2.51.999"/>
               <value value="4ea0f090-42f7-40b1-932f-deff549522bc"/>
               <assigner>
                  <display value="HL7 Europe"/>
               </assigner>
            </identifier>
            <name>
               <family value="Ample"/>
               <given value="Ex"/>
               <prefix value="dr"/>
            </name>
            <address>
               <line value="Boulevard du Jardin Botanique 32"/>
               <city value="Brussels"/>
               <postalCode value="1000"/>
            </address>
         </Practitioner>
      </resource>
   </entry>
   <entry>
      <fullUrl value="urn:uuid:1b8acf04-ab10-4410-8fbd-3885477a5891"/>
      <resource>
         <Specimen>
            <id value="1b8acf04-ab10-4410-8fbd-3885477a5891"/>
            <meta>
               <profile value="http://hl7.eu/fhir/laboratory/StructureDefinition/Specimen-eu-lab"/>
            </meta>
            <status value="available"/>
            <type>
               <coding>
                  <system value="http://snomed.info/sct"/>
                  <code value="122552005"/>
                  <display value="Arterial blood specimen (specimen)"/>
               </coding>
            </type>
            <collection>
               <collectedDateTime value="2024-11-18"/>
            </collection>
         </Specimen>
      </resource>
   </entry>
   <entry>
      <fullUrl value="urn:uuid:579e751c-f2fc-4732-954c-d7ef97891546"/>
      <resource>
         <Specimen>
            <id value="579e751c-f2fc-4732-954c-d7ef97891546"/>
            <meta>
               <profile value="http://hl7.eu/fhir/laboratory/StructureDefinition/Specimen-eu-lab"/>
            </meta>
            <status value="available"/>
            <type>
               <coding>
                  <system value="http://snomed.info/sct"/>
                  <code value="258603007"/>
                  <display value="Respiratory specimen (specimen)"/>
               </coding>
            </type>
            <collection>
               <collectedDateTime value="2024-11-18"/>
            </collection>
         </Specimen>
      </resource>
   </entry>
   <entry>
      <fullUrl value="urn:uuid:ef652533-ca68-47b0-bd22-97c336586df0"/>
      <resource>
         <Specimen>
            <id value="ef652533-ca68-47b0-bd22-97c336586df0"/>
            <meta>
               <profile value="http://hl7.eu/fhir/laboratory/StructureDefinition/Specimen-eu-lab"/>
            </meta>
            <status value="available"/>
            <type>
               <coding>
                  <system value="http://snomed.info/sct"/>
                  <code value="258580003"/>
                  <display value="Whole blood specimen (specimen)"/>
               </coding>
            </type>
            <collection>
               <collectedDateTime value="2024-11-18"/>
            </collection>
         </Specimen>
      </resource>
   </entry>
   <entry>
      <fullUrl value="urn:uuid:d4de5720-6452-4aec-9eeb-1eb0759dd543"/>
      <resource>
         <Specimen>
            <id value="d4de5720-6452-4aec-9eeb-1eb0759dd543"/>
            <meta>
               <profile value="http://hl7.eu/fhir/laboratory/StructureDefinition/Specimen-eu-lab"/>
            </meta>
            <status value="available"/>
            <type>
               <coding>
                  <system value="http://snomed.info/sct"/>
                  <code value="258580003"/>
                  <display value="Whole blood specimen (specimen)"/>
               </coding>
            </type>
            <collection>
               <collectedDateTime value="2024-11-18"/>
            </collection>
         </Specimen>
      </resource>
   </entry>
   <entry>
      <fullUrl value="urn:uuid:21dea01c-387c-4272-bb04-02e482797933"/>
      <resource>
         <Specimen>
            <id value="21dea01c-387c-4272-bb04-02e482797933"/>
            <meta>
               <profile value="http://hl7.eu/fhir/laboratory/StructureDefinition/Specimen-eu-lab"/>
            </meta>
            <status value="available"/>
            <type>
               <coding>
                  <system value="http://snomed.info/sct"/>
                  <code value="122592007"/>
                  <display value="Acellular blood (serum or plasma) specimen (specimen)"/>
               </coding>
            </type>
            <collection>
               <collectedDateTime value="2024-11-18"/>
            </collection>
         </Specimen>
      </resource>
   </entry>
   <entry>
      <fullUrl value="urn:uuid:e1e360e4-386b-4b46-ae52-cf7488cb3099"/>
      <resource>
         <Specimen>
            <id value="e1e360e4-386b-4b46-ae52-cf7488cb3099"/>
            <meta>
               <profile value="http://hl7.eu/fhir/laboratory/StructureDefinition/Specimen-eu-lab"/>
            </meta>
            <status value="available"/>
            <type>
               <coding>
                  <system value="http://snomed.info/sct"/>
                  <code value="119362004"/>
                  <display value="Platelet poor plasma specimen (specimen) "/>
               </coding>
            </type>
            <collection>
               <collectedDateTime value="2024-11-18"/>
            </collection>
         </Specimen>
      </resource>
   </entry>
   <entry>
      <fullUrl value="urn:uuid:b2ded4ed-7dcf-4f8f-9ed9-6c22fafd2559"/>
      <resource>
         <Observation>
            <id value="b2ded4ed-7dcf-4f8f-9ed9-6c22fafd2559"/>
            <meta>
               <profile value="http://hl7.eu/fhir/laboratory/StructureDefinition/Observation-resultslab-eu-lab"/>
            </meta>
            <status value="final"/>
            <category>
               <coding>
                  <system value="http://terminology.hl7.org/CodeSystem/observation-category"/>
                  <code value="laboratory"/>
               </coding>
            </category>
            <code>
               <coding>
                  <system value="http://loinc.org"/>
                  <code value="2708-6"/>
                  <display value="Oxygen saturation in Arterial blood"/>
               </coding>
               <text value="Oxygen saturation in Arterial blood"/>
            </code>
            <subject>
               <reference value="urn:uuid:71541cd5-9354-4c3c-bec5-48420400fcea"/>
            </subject>
            <effectiveDateTime value="2024-11-18"/>
            <performer>
               <display value="The Central European Lab"/>
            </performer>
            <valueQuantity>
               <value value="87.9"/>
               <unit value="%"/>
               <system value="http://unitsofmeasure.org"/>
               <code value="%"/>
            </valueQuantity>
            <interpretation>
               <coding>
                  <system value="http://terminology.hl7.org/CodeSystem/v3-ObservationInterpretation"/>
                  <code value="L"/>
                  <display value="Low"/>
               </coding>
            </interpretation>
            <specimen>
               <reference value="urn:uuid:1b8acf04-ab10-4410-8fbd-3885477a5891"/>
            </specimen>
            <referenceRange>
               <low>
                  <value value="95"/>
                  <system value="http://unitsofmeasure.org"/>
                  <code value="%"/>
               </low>
            </referenceRange>
            <referenceRange>
               <high>
                  <value value="100"/>
                  <system value="http://unitsofmeasure.org"/>
                  <code value="%"/>
               </high>
            </referenceRange>
         </Observation>
      </resource>
   </entry>
   <entry>
      <fullUrl value="urn:uuid:b51c584f-f466-481e-98b1-7653c62c1eb6"/>
      <resource>
         <Observation>
            <id value="b51c584f-f466-481e-98b1-7653c62c1eb6"/>
            <meta>
               <profile value="http://hl7.eu/fhir/laboratory/StructureDefinition/Observation-resultslab-eu-lab"/>
            </meta>
            <status value="final"/>
            <category>
               <coding>
                  <system value="http://terminology.hl7.org/CodeSystem/observation-category"/>
                  <code value="laboratory"/>
               </coding>
            </category>
            <code>
               <coding>
                  <system value="http://loinc.org"/>
                  <code value="92142-9"/>
                  <display value="Influenza virus A RNA [Presence] in Respiratory system specimen by NAA with probe detection"/>
               </coding>
               <text value="Influenza virus A RNA [Presence] in Respiratory system specimen by NAA with probe detection"/>
            </code>
            <subject>
               <reference value="urn:uuid:71541cd5-9354-4c3c-bec5-48420400fcea"/>
            </subject>
            <effectiveDateTime value="2024-11-18"/>
            <performer>
               <display value="The Central European Lab"/>
            </performer>
            <valueCodeableConcept>
               <coding>
                  <system value="http://snomed.info/sct"/>
                  <code value="260385009"/>
                  <display value="Negative"/>
               </coding>
            </valueCodeableConcept>
            <specimen>
               <reference value="urn:uuid:579e751c-f2fc-4732-954c-d7ef97891546"/>
            </specimen>
         </Observation>
      </resource>
   </entry>
   <entry>
      <fullUrl value="urn:uuid:58165091-9e19-40b6-b3dc-b82d070f1589"/>
      <resource>
         <Observation>
            <id value="58165091-9e19-40b6-b3dc-b82d070f1589"/>
            <meta>
               <profile value="http://hl7.eu/fhir/laboratory/StructureDefinition/Observation-resultslab-eu-lab"/>
            </meta>
            <status value="final"/>
            <category>
               <coding>
                  <system value="http://terminology.hl7.org/CodeSystem/observation-category"/>
                  <code value="laboratory"/>
               </coding>
            </category>
            <code>
               <coding>
                  <system value="http://loinc.org"/>
                  <code value="92141-1"/>
                  <display value="Influenza virus B RNA [Presence] in Respiratory system specimen by NAA with probe detection"/>
               </coding>
               <text value="Influenza virus B RNA [Presence] in Respiratory system specimen by NAA with probe detection"/>
            </code>
            <subject>
               <reference value="urn:uuid:71541cd5-9354-4c3c-bec5-48420400fcea"/>
            </subject>
            <effectiveDateTime value="2024-11-18"/>
            <performer>
               <display value="The Central European Lab"/>
            </performer>
            <valueCodeableConcept>
               <coding>
                  <system value="http://snomed.info/sct"/>
                  <code value="260385009"/>
                  <display value="Negative"/>
               </coding>
            </valueCodeableConcept>
            <specimen>
               <reference value="urn:uuid:579e751c-f2fc-4732-954c-d7ef97891546"/>
            </specimen>
         </Observation>
      </resource>
   </entry>
   <entry>
      <fullUrl value="urn:uuid:fd28fb3f-57f4-4406-9adb-89b207769b43"/>
      <resource>
         <Observation>
            <id value="fd28fb3f-57f4-4406-9adb-89b207769b43"/>
            <meta>
               <profile value="http://hl7.eu/fhir/laboratory/StructureDefinition/Observation-resultslab-eu-lab"/>
            </meta>
            <status value="final"/>
            <category>
               <coding>
                  <system value="http://terminology.hl7.org/CodeSystem/observation-category"/>
                  <code value="laboratory"/>
               </coding>
            </category>
            <code>
               <coding>
                  <system value="http://loinc.org"/>
                  <code value="92131-2"/>
                  <display value="Respiratory syncytial virus RNA [Presence] in Respiratory system specimen by NAA with probe detection"/>
               </coding>
               <text value="Respiratory syncytial virus RNA [Presence] in Respiratory system specimen by NAA with probe detection"/>
            </code>
            <subject>
               <reference value="urn:uuid:71541cd5-9354-4c3c-bec5-48420400fcea"/>
            </subject>
            <effectiveDateTime value="2024-11-18"/>
            <performer>
               <display value="The Central European Lab"/>
            </performer>
            <valueCodeableConcept>
               <coding>
                  <system value="http://snomed.info/sct"/>
                  <code value="260385009"/>
                  <display value="Negative"/>
               </coding>
            </valueCodeableConcept>
            <specimen>
               <reference value="urn:uuid:579e751c-f2fc-4732-954c-d7ef97891546"/>
            </specimen>
         </Observation>
      </resource>
   </entry>
   <entry>
      <fullUrl value="urn:uuid:856fd1b4-0f5b-46f8-be0f-e1d35e0d2b6b"/>
      <resource>
         <Observation>
            <id value="856fd1b4-0f5b-46f8-be0f-e1d35e0d2b6b"/>
            <meta>
               <profile value="http://hl7.eu/fhir/laboratory/StructureDefinition/Observation-resultslab-eu-lab"/>
            </meta>
            <status value="final"/>
            <category>
               <coding>
                  <system value="http://terminology.hl7.org/CodeSystem/observation-category"/>
                  <code value="laboratory"/>
               </coding>
            </category>
            <code>
               <coding>
                  <system value="http://loinc.org"/>
                  <code value="92140-3"/>
                  <display value="Parainfluenza virus 1 RNA [Presence] in Respiratory system specimen by NAA with probe detection"/>
               </coding>
               <text value="Parainfluenza virus 1 RNA [Presence] in Respiratory system specimen by NAA with probe detection"/>
            </code>
            <subject>
               <reference value="urn:uuid:71541cd5-9354-4c3c-bec5-48420400fcea"/>
            </subject>
            <effectiveDateTime value="2024-11-18"/>
            <performer>
               <display value="The Central European Lab"/>
            </performer>
            <valueCodeableConcept>
               <coding>
                  <system value="http://snomed.info/sct"/>
                  <code value="260385009"/>
                  <display value="Negative"/>
               </coding>
            </valueCodeableConcept>
            <specimen>
               <reference value="urn:uuid:579e751c-f2fc-4732-954c-d7ef97891546"/>
            </specimen>
         </Observation>
      </resource>
   </entry>
   <entry>
      <fullUrl value="urn:uuid:59027bf9-c855-4d87-9907-adcaa00004c5"/>
      <resource>
         <Observation>
            <id value="59027bf9-c855-4d87-9907-adcaa00004c5"/>
            <meta>
               <profile value="http://hl7.eu/fhir/laboratory/StructureDefinition/Observation-resultslab-eu-lab"/>
            </meta>
            <status value="final"/>
            <category>
               <coding>
                  <system value="http://terminology.hl7.org/CodeSystem/observation-category"/>
                  <code value="laboratory"/>
               </coding>
            </category>
            <code>
               <coding>
                  <system value="http://loinc.org"/>
                  <code value="92139-5"/>
                  <display value="Parainfluenza virus 2 RNA [Presence] in Respiratory system specimen by NAA with probe detection"/>
               </coding>
               <text value="Parainfluenza virus 2 RNA [Presence] in Respiratory system specimen by NAA with probe detection"/>
            </code>
            <subject>
               <reference value="urn:uuid:71541cd5-9354-4c3c-bec5-48420400fcea"/>
            </subject>
            <effectiveDateTime value="2024-11-18"/>
            <performer>
               <display value="The Central European Lab"/>
            </performer>
            <valueCodeableConcept>
               <coding>
                  <system value="http://snomed.info/sct"/>
                  <code value="260385009"/>
                  <display value="Negative"/>
               </coding>
            </valueCodeableConcept>
            <specimen>
               <reference value="urn:uuid:579e751c-f2fc-4732-954c-d7ef97891546"/>
            </specimen>
         </Observation>
      </resource>
   </entry>
   <entry>
      <fullUrl value="urn:uuid:949c398f-7517-4412-b944-df82dbf64f54"/>
      <resource>
         <Observation>
            <id value="949c398f-7517-4412-b944-df82dbf64f54"/>
            <meta>
               <profile value="http://hl7.eu/fhir/laboratory/StructureDefinition/Observation-resultslab-eu-lab"/>
            </meta>
            <status value="final"/>
            <category>
               <coding>
                  <system value="http://terminology.hl7.org/CodeSystem/observation-category"/>
                  <code value="laboratory"/>
               </coding>
            </category>
            <code>
               <coding>
                  <system value="http://loinc.org"/>
                  <code value="92138-7"/>
                  <display value="Parainfluenza virus 3 RNA [Presence] in Respiratory system specimen by NAA with probe detection"/>
               </coding>
               <text value="Parainfluenza virus 3 RNA [Presence] in Respiratory system specimen by NAA with probe detection"/>
            </code>
            <subject>
               <reference value="urn:uuid:71541cd5-9354-4c3c-bec5-48420400fcea"/>
            </subject>
            <effectiveDateTime value="2024-11-18"/>
            <performer>
               <display value="The Central European Lab"/>
            </performer>
            <valueCodeableConcept>
               <coding>
                  <system value="http://snomed.info/sct"/>
                  <code value="260385009"/>
                  <display value="Negative"/>
               </coding>
            </valueCodeableConcept>
            <specimen>
               <reference value="urn:uuid:579e751c-f2fc-4732-954c-d7ef97891546"/>
            </specimen>
         </Observation>
      </resource>
   </entry>
   <entry>
      <fullUrl value="urn:uuid:9639449e-cb72-4493-9be5-0c3646319e16"/>
      <resource>
         <Observation>
            <id value="9639449e-cb72-4493-9be5-0c3646319e16"/>
            <meta>
               <profile value="http://hl7.eu/fhir/laboratory/StructureDefinition/Observation-resultslab-eu-lab"/>
            </meta>
            <status value="final"/>
            <category>
               <coding>
                  <system value="http://terminology.hl7.org/CodeSystem/observation-category"/>
                  <code value="laboratory"/>
               </coding>
            </category>
            <code>
               <coding>
                  <system value="http://loinc.org"/>
                  <code value="92130-4"/>
                  <display value="Rhinovirus RNA [Presence] in Respiratory system specimen by NAA with probe detection"/>
               </coding>
               <text value="Rhinovirus RNA [Presence] in Respiratory system specimen by NAA with probe detection"/>
            </code>
            <subject>
               <reference value="urn:uuid:71541cd5-9354-4c3c-bec5-48420400fcea"/>
            </subject>
            <effectiveDateTime value="2024-11-18"/>
            <performer>
               <display value="The Central European Lab"/>
            </performer>
            <valueCodeableConcept>
               <coding>
                  <system value="http://snomed.info/sct"/>
                  <code value="260385009"/>
                  <display value="Negative"/>
               </coding>
            </valueCodeableConcept>
            <specimen>
               <reference value="urn:uuid:579e751c-f2fc-4732-954c-d7ef97891546"/>
            </specimen>
         </Observation>
      </resource>
   </entry>
   <entry>
      <fullUrl value="urn:uuid:460232d9-5fb7-4bf7-9d06-95ce54ecb4c1"/>
      <resource>
         <Observation>
            <id value="460232d9-5fb7-4bf7-9d06-95ce54ecb4c1"/>
            <meta>
               <profile value="http://hl7.eu/fhir/laboratory/StructureDefinition/Observation-resultslab-eu-lab"/>
            </meta>
            <status value="final"/>
            <category>
               <coding>
                  <system value="http://terminology.hl7.org/CodeSystem/observation-category"/>
                  <code value="laboratory"/>
               </coding>
            </category>
            <code>
               <coding>
                  <system value="http://loinc.org"/>
                  <code value="92134-6"/>
                  <display value="Human metapneumovirus RNA [Presence] in Respiratory system specimen by NAA with probe detection"/>
               </coding>
               <text value="Human metapneumovirus RNA [Presence] in Respiratory system specimen by NAA with probe detection"/>
            </code>
            <subject>
               <reference value="urn:uuid:71541cd5-9354-4c3c-bec5-48420400fcea"/>
            </subject>
            <effectiveDateTime value="2024-11-18"/>
            <performer>
               <display value="The Central European Lab"/>
            </performer>
            <valueCodeableConcept>
               <coding>
                  <system value="http://snomed.info/sct"/>
                  <code value="260385009"/>
                  <display value="Negative"/>
               </coding>
            </valueCodeableConcept>
            <specimen>
               <reference value="urn:uuid:579e751c-f2fc-4732-954c-d7ef97891546"/>
            </specimen>
         </Observation>
      </resource>
   </entry>
   <entry>
      <fullUrl value="urn:uuid:f567786a-4653-4dfc-8c92-25f1f60ca6c9"/>
      <resource>
         <Observation>
            <id value="f567786a-4653-4dfc-8c92-25f1f60ca6c9"/>
            <meta>
               <profile value="http://hl7.eu/fhir/laboratory/StructureDefinition/Observation-resultslab-eu-lab"/>
            </meta>
            <status value="final"/>
            <category>
               <coding>
                  <system value="http://terminology.hl7.org/CodeSystem/observation-category"/>
                  <code value="laboratory"/>
               </coding>
            </category>
            <code>
               <coding>
                  <system value="http://loinc.org"/>
                  <code value="94040-3"/>
                  <display value="Adenovirus A+B+C+D+E DNA [Presence] in Respiratory system specimen by NAA with probe detection"/>
               </coding>
               <text value="Adenovirus A+B+C+D+E DNA [Presence] in Respiratory system specimen by NAA with probe detection"/>
            </code>
            <subject>
               <reference value="urn:uuid:71541cd5-9354-4c3c-bec5-48420400fcea"/>
            </subject>
            <effectiveDateTime value="2024-11-18"/>
            <performer>
               <display value="The Central European Lab"/>
            </performer>
            <valueCodeableConcept>
               <coding>
                  <system value="http://snomed.info/sct"/>
                  <code value="260385009"/>
                  <display value="Negative"/>
               </coding>
            </valueCodeableConcept>
            <specimen>
               <reference value="urn:uuid:579e751c-f2fc-4732-954c-d7ef97891546"/>
            </specimen>
         </Observation>
      </resource>
   </entry>
   <entry>
      <fullUrl value="urn:uuid:2aa67204-fec7-4d33-8df9-927ef78e9355"/>
      <resource>
         <Observation>
            <id value="2aa67204-fec7-4d33-8df9-927ef78e9355"/>
            <meta>
               <profile value="http://hl7.eu/fhir/laboratory/StructureDefinition/Observation-resultslab-eu-lab"/>
            </meta>
            <status value="final"/>
            <category>
               <coding>
                  <system value="http://terminology.hl7.org/CodeSystem/observation-category"/>
                  <code value="laboratory"/>
               </coding>
            </category>
            <code>
               <coding>
                  <system value="http://loinc.org"/>
                  <code value="94531-1"/>
                  <display value="SARS-CoV-2 (COVID-19) RNA panel - Respiratory system specimen by NAA with probe detection"/>
               </coding>
               <text value="SARS-CoV-2 (COVID-19) RNA panel - Respiratory system specimen by NAA with probe detection"/>
            </code>
            <subject>
               <reference value="urn:uuid:71541cd5-9354-4c3c-bec5-48420400fcea"/>
            </subject>
            <effectiveDateTime value="2024-11-18"/>
            <performer>
               <display value="The Central European Lab"/>
            </performer>
            <valueCodeableConcept>
               <coding>
                  <system value="http://snomed.info/sct"/>
                  <code value="260373001"/>
                  <display value="Detected"/>
               </coding>
            </valueCodeableConcept>
            <specimen>
               <reference value="urn:uuid:579e751c-f2fc-4732-954c-d7ef97891546"/>
            </specimen>
         </Observation>
      </resource>
   </entry>
   <entry>
      <fullUrl value="urn:uuid:2535090a-b97f-4f57-b3d9-fd697851bff5"/>
      <resource>
         <Observation>
            <id value="2535090a-b97f-4f57-b3d9-fd697851bff5"/>
            <meta>
               <profile value="http://hl7.eu/fhir/laboratory/StructureDefinition/Observation-resultslab-eu-lab"/>
            </meta>
            <status value="final"/>
            <category>
               <coding>
                  <system value="http://terminology.hl7.org/CodeSystem/observation-category"/>
                  <code value="laboratory"/>
               </coding>
            </category>
            <code>
               <coding>
                  <system value="http://loinc.org"/>
                  <code value="2708-6"/>
                  <display value="Oxygen saturation in Arterial blood"/>
               </coding>
               <text value="Oxygen saturation in Arterial blood"/>
            </code>
            <subject>
               <reference value="urn:uuid:71541cd5-9354-4c3c-bec5-48420400fcea"/>
            </subject>
            <effectiveDateTime value="2024-11-18"/>
            <performer>
               <display value="The Central European Lab"/>
            </performer>
            <valueQuantity>
               <value value="85.6"/>
               <unit value="%"/>
               <system value="http://unitsofmeasure.org"/>
               <code value="%"/>
            </valueQuantity>
            <interpretation>
               <coding>
                  <system value="http://terminology.hl7.org/CodeSystem/v3-ObservationInterpretation"/>
                  <code value="L"/>
                  <display value="Low"/>
               </coding>
            </interpretation>
            <specimen>
               <reference value="urn:uuid:1b8acf04-ab10-4410-8fbd-3885477a5891"/>
            </specimen>
            <referenceRange>
               <low>
                  <value value="95"/>
                  <system value="http://unitsofmeasure.org"/>
                  <code value="%"/>
               </low>
            </referenceRange>
            <referenceRange>
               <high>
                  <value value="100"/>
                  <system value="http://unitsofmeasure.org"/>
                  <code value="%"/>
               </high>
            </referenceRange>
         </Observation>
      </resource>
   </entry>
   <entry>
      <fullUrl value="urn:uuid:838b9f9c-2078-4d50-85e6-ed1cad888332"/>
      <resource>
         <Observation>
            <id value="838b9f9c-2078-4d50-85e6-ed1cad888332"/>
            <meta>
               <profile value="http://hl7.eu/fhir/laboratory/StructureDefinition/Observation-resultslab-eu-lab"/>
            </meta>
            <status value="final"/>
            <category>
               <coding>
                  <system value="http://terminology.hl7.org/CodeSystem/observation-category"/>
                  <code value="laboratory"/>
               </coding>
            </category>
            <code>
               <coding>
                  <system value="http://loinc.org"/>
                  <code value="6690-2"/>
                  <display value="Leukocytes [#/volume] in Blood by Automated count"/>
               </coding>
               <text value="Leukocytes [#/volume] in Blood by Automated count"/>
            </code>
            <subject>
               <reference value="urn:uuid:71541cd5-9354-4c3c-bec5-48420400fcea"/>
            </subject>
            <effectiveDateTime value="2024-11-18"/>
            <performer>
               <display value="The Central European Lab"/>
            </performer>
            <valueQuantity>
               <value value="3.1"/>
               <unit value="10*3/uL"/>
               <system value="http://unitsofmeasure.org"/>
               <code value="10*3/uL"/>
            </valueQuantity>
            <interpretation>
               <coding>
                  <system value="http://terminology.hl7.org/CodeSystem/v3-ObservationInterpretation"/>
                  <code value="L"/>
                  <display value="Low"/>
               </coding>
            </interpretation>
            <specimen>
               <reference value="urn:uuid:ef652533-ca68-47b0-bd22-97c336586df0"/>
            </specimen>
            <referenceRange>
               <low>
                  <value value="3.4"/>
                  <system value="http://unitsofmeasure.org"/>
                  <code value="10*3/uL"/>
               </low>
            </referenceRange>
            <referenceRange>
               <high>
                  <value value="10.6"/>
                  <system value="http://unitsofmeasure.org"/>
                  <code value="10*3/uL"/>
               </high>
            </referenceRange>
         </Observation>
      </resource>
   </entry>
   <entry>
      <fullUrl value="urn:uuid:61e7d96b-8fcd-4a36-94e6-9b621776e840"/>
      <resource>
         <Observation>
            <id value="61e7d96b-8fcd-4a36-94e6-9b621776e840"/>
            <meta>
               <profile value="http://hl7.eu/fhir/laboratory/StructureDefinition/Observation-resultslab-eu-lab"/>
            </meta>
            <status value="final"/>
            <category>
               <coding>
                  <system value="http://terminology.hl7.org/CodeSystem/observation-category"/>
                  <code value="laboratory"/>
               </coding>
            </category>
            <code>
               <coding>
                  <system value="http://loinc.org"/>
                  <code value="789-8"/>
                  <display value="Erythrocytes [#/volume] in Blood by Automated count"/>
               </coding>
               <text value="Erythrocytes [#/volume] in Blood by Automated count"/>
            </code>
            <subject>
               <reference value="urn:uuid:71541cd5-9354-4c3c-bec5-48420400fcea"/>
            </subject>
            <effectiveDateTime value="2024-11-18"/>
            <performer>
               <display value="The Central European Lab"/>
            </performer>
            <valueQuantity>
               <value value="4.2"/>
               <unit value="10*6/uL"/>
               <system value="http://unitsofmeasure.org"/>
               <code value="10*6/uL"/>
            </valueQuantity>
            <interpretation>
               <coding>
                  <system value="http://terminology.hl7.org/CodeSystem/v3-ObservationInterpretation"/>
                  <code value="L"/>
                  <display value="Low"/>
               </coding>
            </interpretation>
            <specimen>
               <reference value="urn:uuid:ef652533-ca68-47b0-bd22-97c336586df0"/>
            </specimen>
            <referenceRange>
               <low>
                  <value value="4.5"/>
                  <system value="http://unitsofmeasure.org"/>
                  <code value="10*6/uL"/>
               </low>
            </referenceRange>
            <referenceRange>
               <high>
                  <value value="5.7"/>
                  <system value="http://unitsofmeasure.org"/>
                  <code value="10*6/uL"/>
               </high>
            </referenceRange>
         </Observation>
      </resource>
   </entry>
   <entry>
      <fullUrl value="urn:uuid:6ded89df-57ca-4d2e-bf2d-71175771fb84"/>
      <resource>
         <Observation>
            <id value="6ded89df-57ca-4d2e-bf2d-71175771fb84"/>
            <meta>
               <profile value="http://hl7.eu/fhir/laboratory/StructureDefinition/Observation-resultslab-eu-lab"/>
            </meta>
            <status value="final"/>
            <category>
               <coding>
                  <system value="http://terminology.hl7.org/CodeSystem/observation-category"/>
                  <code value="laboratory"/>
               </coding>
            </category>
            <code>
               <coding>
                  <system value="http://loinc.org"/>
                  <code value="718-7"/>
                  <display value="Hemoglobin [Mass/volume] in Blood"/>
               </coding>
               <text value="Hemoglobin [Mass/volume] in Blood"/>
            </code>
            <subject>
               <reference value="urn:uuid:71541cd5-9354-4c3c-bec5-48420400fcea"/>
            </subject>
            <effectiveDateTime value="2024-11-18"/>
            <performer>
               <display value="The Central European Lab"/>
            </performer>
            <valueQuantity>
               <value value="11.2"/>
               <unit value="g/dL"/>
               <system value="http://unitsofmeasure.org"/>
               <code value="g/dL"/>
            </valueQuantity>
            <interpretation>
               <coding>
                  <system value="http://terminology.hl7.org/CodeSystem/v3-ObservationInterpretation"/>
                  <code value="L"/>
                  <display value="Low"/>
               </coding>
            </interpretation>
            <specimen>
               <reference value="urn:uuid:ef652533-ca68-47b0-bd22-97c336586df0"/>
            </specimen>
            <referenceRange>
               <low>
                  <value value="13.5"/>
                  <system value="http://unitsofmeasure.org"/>
                  <code value="g/dL"/>
               </low>
            </referenceRange>
            <referenceRange>
               <high>
                  <value value="17.5"/>
                  <system value="http://unitsofmeasure.org"/>
                  <code value="g/dL"/>
               </high>
            </referenceRange>
         </Observation>
      </resource>
   </entry>
   <entry>
      <fullUrl value="urn:uuid:b34fe472-8f6a-4b36-8d02-db81248023d3"/>
      <resource>
         <Observation>
            <id value="b34fe472-8f6a-4b36-8d02-db81248023d3"/>
            <meta>
               <profile value="http://hl7.eu/fhir/laboratory/StructureDefinition/Observation-resultslab-eu-lab"/>
            </meta>
            <status value="final"/>
            <category>
               <coding>
                  <system value="http://terminology.hl7.org/CodeSystem/observation-category"/>
                  <code value="laboratory"/>
               </coding>
            </category>
            <code>
               <coding>
                  <system value="http://loinc.org"/>
                  <code value="4544-3"/>
                  <display value="Hematocrit [Volume Fraction] of Blood by Automated count"/>
               </coding>
               <text value="Hematocrit [Volume Fraction] of Blood by Automated count"/>
            </code>
            <subject>
               <reference value="urn:uuid:71541cd5-9354-4c3c-bec5-48420400fcea"/>
            </subject>
            <effectiveDateTime value="2024-11-18"/>
            <performer>
               <display value="The Central European Lab"/>
            </performer>
            <valueQuantity>
               <value value="45.5"/>
               <unit value="%"/>
               <system value="http://unitsofmeasure.org"/>
               <code value="%"/>
            </valueQuantity>
            <specimen>
               <reference value="urn:uuid:ef652533-ca68-47b0-bd22-97c336586df0"/>
            </specimen>
            <referenceRange>
               <low>
                  <value value="37"/>
                  <system value="http://unitsofmeasure.org"/>
                  <code value="%"/>
               </low>
            </referenceRange>
            <referenceRange>
               <high>
                  <value value="52"/>
                  <system value="http://unitsofmeasure.org"/>
                  <code value="%"/>
               </high>
            </referenceRange>
         </Observation>
      </resource>
   </entry>
   <entry>
      <fullUrl value="urn:uuid:019fef43-8cad-47dc-83cd-f420f9e900bf"/>
      <resource>
         <Observation>
            <id value="019fef43-8cad-47dc-83cd-f420f9e900bf"/>
            <meta>
               <profile value="http://hl7.eu/fhir/laboratory/StructureDefinition/Observation-resultslab-eu-lab"/>
            </meta>
            <status value="final"/>
            <category>
               <coding>
                  <system value="http://terminology.hl7.org/CodeSystem/observation-category"/>
                  <code value="laboratory"/>
               </coding>
            </category>
            <code>
               <coding>
                  <system value="http://loinc.org"/>
                  <code value="787-2"/>
                  <display value="MCV [Entitic volume] by Automated count"/>
               </coding>
               <text value="MCV [Entitic volume] by Automated count"/>
            </code>
            <subject>
               <reference value="urn:uuid:71541cd5-9354-4c3c-bec5-48420400fcea"/>
            </subject>
            <effectiveDateTime value="2024-11-18"/>
            <performer>
               <display value="The Central European Lab"/>
            </performer>
            <valueQuantity>
               <value value="96.6"/>
               <unit value="fL"/>
               <system value="http://unitsofmeasure.org"/>
               <code value="fL"/>
            </valueQuantity>
            <specimen>
               <reference value="urn:uuid:d4de5720-6452-4aec-9eeb-1eb0759dd543"/>
            </specimen>
            <referenceRange>
               <low>
                  <value value="82"/>
                  <system value="http://unitsofmeasure.org"/>
                  <code value="fL"/>
               </low>
            </referenceRange>
            <referenceRange>
               <high>
                  <value value="98"/>
                  <system value="http://unitsofmeasure.org"/>
                  <code value="fL"/>
               </high>
            </referenceRange>
         </Observation>
      </resource>
   </entry>
   <entry>
      <fullUrl value="urn:uuid:2f1ccc8d-6d1d-4670-926d-a18755c1a177"/>
      <resource>
         <Observation>
            <id value="2f1ccc8d-6d1d-4670-926d-a18755c1a177"/>
            <meta>
               <profile value="http://hl7.eu/fhir/laboratory/StructureDefinition/Observation-resultslab-eu-lab"/>
            </meta>
            <status value="final"/>
            <category>
               <coding>
                  <system value="http://terminology.hl7.org/CodeSystem/observation-category"/>
                  <code value="laboratory"/>
               </coding>
            </category>
            <code>
               <coding>
                  <system value="http://loinc.org"/>
                  <code value="785-6"/>
                  <display value="MCH [Entitic mass] by Automated count"/>
               </coding>
               <text value="MCH [Entitic mass] by Automated count"/>
            </code>
            <subject>
               <reference value="urn:uuid:71541cd5-9354-4c3c-bec5-48420400fcea"/>
            </subject>
            <effectiveDateTime value="2024-11-18"/>
            <performer>
               <display value="The Central European Lab"/>
            </performer>
            <valueQuantity>
               <value value="27.1"/>
               <unit value="pg"/>
               <system value="http://unitsofmeasure.org"/>
               <code value="pg"/>
            </valueQuantity>
            <specimen>
               <reference value="urn:uuid:d4de5720-6452-4aec-9eeb-1eb0759dd543"/>
            </specimen>
            <referenceRange>
               <low>
                  <value value="27"/>
                  <system value="http://unitsofmeasure.org"/>
                  <code value="pg"/>
               </low>
            </referenceRange>
            <referenceRange>
               <high>
                  <value value="33"/>
                  <system value="http://unitsofmeasure.org"/>
                  <code value="pg"/>
               </high>
            </referenceRange>
         </Observation>
      </resource>
   </entry>
   <entry>
      <fullUrl value="urn:uuid:3eeda493-332a-4a3e-a953-924426f5f461"/>
      <resource>
         <Observation>
            <id value="3eeda493-332a-4a3e-a953-924426f5f461"/>
            <meta>
               <profile value="http://hl7.eu/fhir/laboratory/StructureDefinition/Observation-resultslab-eu-lab"/>
            </meta>
            <status value="final"/>
            <category>
               <coding>
                  <system value="http://terminology.hl7.org/CodeSystem/observation-category"/>
                  <code value="laboratory"/>
               </coding>
            </category>
            <code>
               <coding>
                  <system value="http://loinc.org"/>
                  <code value="786-4"/>
                  <display value="MCHC [Mass/volume] by Automated count"/>
               </coding>
               <text value="MCHC [Mass/volume] by Automated count"/>
            </code>
            <subject>
               <reference value="urn:uuid:71541cd5-9354-4c3c-bec5-48420400fcea"/>
            </subject>
            <effectiveDateTime value="2024-11-18"/>
            <performer>
               <display value="The Central European Lab"/>
            </performer>
            <valueQuantity>
               <value value="32.3"/>
               <unit value="g/dL"/>
               <system value="http://unitsofmeasure.org"/>
               <code value="g/dL"/>
            </valueQuantity>
            <specimen>
               <reference value="urn:uuid:d4de5720-6452-4aec-9eeb-1eb0759dd543"/>
            </specimen>
            <referenceRange>
               <low>
                  <value value="31"/>
                  <system value="http://unitsofmeasure.org"/>
                  <code value="g/dL"/>
               </low>
            </referenceRange>
            <referenceRange>
               <high>
                  <value value="36"/>
                  <system value="http://unitsofmeasure.org"/>
                  <code value="g/dL"/>
               </high>
            </referenceRange>
         </Observation>
      </resource>
   </entry>
   <entry>
      <fullUrl value="urn:uuid:ae53937f-7bd5-48a1-96a5-bd24223d4489"/>
      <resource>
         <Observation>
            <id value="ae53937f-7bd5-48a1-96a5-bd24223d4489"/>
            <meta>
               <profile value="http://hl7.eu/fhir/laboratory/StructureDefinition/Observation-resultslab-eu-lab"/>
            </meta>
            <status value="final"/>
            <category>
               <coding>
                  <system value="http://terminology.hl7.org/CodeSystem/observation-category"/>
                  <code value="laboratory"/>
               </coding>
            </category>
            <code>
               <coding>
                  <system value="http://loinc.org"/>
                  <code value="788-0"/>
                  <display value="Erythrocyte distribution width [Ratio] by Automated count"/>
               </coding>
               <text value="Erythrocyte distribution width [Ratio] by Automated count"/>
            </code>
            <subject>
               <reference value="urn:uuid:71541cd5-9354-4c3c-bec5-48420400fcea"/>
            </subject>
            <effectiveDateTime value="2024-11-18"/>
            <performer>
               <display value="The Central European Lab"/>
            </performer>
            <valueQuantity>
               <value value="14"/>
               <unit value="%"/>
               <system value="http://unitsofmeasure.org"/>
               <code value="%"/>
            </valueQuantity>
            <specimen>
               <reference value="urn:uuid:d4de5720-6452-4aec-9eeb-1eb0759dd543"/>
            </specimen>
            <referenceRange>
               <low>
                  <value value="11.5"/>
                  <system value="http://unitsofmeasure.org"/>
                  <code value="%"/>
               </low>
            </referenceRange>
            <referenceRange>
               <high>
                  <value value="16"/>
                  <system value="http://unitsofmeasure.org"/>
                  <code value="%"/>
               </high>
            </referenceRange>
         </Observation>
      </resource>
   </entry>
   <entry>
      <fullUrl value="urn:uuid:92a6bf91-1bd6-450b-a583-5f4d1a4f1fc0"/>
      <resource>
         <Observation>
            <id value="92a6bf91-1bd6-450b-a583-5f4d1a4f1fc0"/>
            <meta>
               <profile value="http://hl7.eu/fhir/laboratory/StructureDefinition/Observation-resultslab-eu-lab"/>
            </meta>
            <status value="final"/>
            <category>
               <coding>
                  <system value="http://terminology.hl7.org/CodeSystem/observation-category"/>
                  <code value="laboratory"/>
               </coding>
            </category>
            <code>
               <coding>
                  <system value="http://loinc.org"/>
                  <code value="777-3"/>
                  <display value="Platelets [#/volume] in Blood by Automated count"/>
               </coding>
               <text value="Platelets [#/volume] in Blood by Automated count"/>
            </code>
            <subject>
               <reference value="urn:uuid:71541cd5-9354-4c3c-bec5-48420400fcea"/>
            </subject>
            <effectiveDateTime value="2024-11-18"/>
            <performer>
               <display value="The Central European Lab"/>
            </performer>
            <valueQuantity>
               <value value="137.3"/>
               <unit value="10*3/uL"/>
               <system value="http://unitsofmeasure.org"/>
               <code value="10*3/uL"/>
            </valueQuantity>
            <interpretation>
               <coding>
                  <system value="http://terminology.hl7.org/CodeSystem/v3-ObservationInterpretation"/>
                  <code value="L"/>
                  <display value="Low"/>
               </coding>
            </interpretation>
            <specimen>
               <reference value="urn:uuid:ef652533-ca68-47b0-bd22-97c336586df0"/>
            </specimen>
            <referenceRange>
               <low>
                  <value value="150"/>
                  <system value="http://unitsofmeasure.org"/>
                  <code value="10*3/uL"/>
               </low>
            </referenceRange>
            <referenceRange>
               <high>
                  <value value="317"/>
                  <system value="http://unitsofmeasure.org"/>
                  <code value="10*3/uL"/>
               </high>
            </referenceRange>
         </Observation>
      </resource>
   </entry>
   <entry>
      <fullUrl value="urn:uuid:cfef3199-c27e-4ba0-a3b2-474d7e53c748"/>
      <resource>
         <Observation>
            <id value="cfef3199-c27e-4ba0-a3b2-474d7e53c748"/>
            <meta>
               <profile value="http://hl7.eu/fhir/laboratory/StructureDefinition/Observation-resultslab-eu-lab"/>
            </meta>
            <status value="final"/>
            <category>
               <coding>
                  <system value="http://terminology.hl7.org/CodeSystem/observation-category"/>
                  <code value="laboratory"/>
               </coding>
            </category>
            <code>
               <coding>
                  <system value="http://loinc.org"/>
                  <code value="770-8"/>
                  <display value="Neutrophils/100 leukocytes in Blood by Automated count"/>
               </coding>
               <text value="Neutrophils/100 leukocytes in Blood by Automated count"/>
            </code>
            <subject>
               <reference value="urn:uuid:71541cd5-9354-4c3c-bec5-48420400fcea"/>
            </subject>
            <effectiveDateTime value="2024-11-18"/>
            <performer>
               <display value="The Central European Lab"/>
            </performer>
            <valueQuantity>
               <value value="18.1"/>
               <unit value="%"/>
               <system value="http://unitsofmeasure.org"/>
               <code value="%"/>
            </valueQuantity>
            <interpretation>
               <coding>
                  <system value="http://terminology.hl7.org/CodeSystem/v3-ObservationInterpretation"/>
                  <code value="L"/>
                  <display value="Low"/>
               </coding>
            </interpretation>
            <specimen>
               <reference value="urn:uuid:ef652533-ca68-47b0-bd22-97c336586df0"/>
            </specimen>
            <referenceRange>
               <low>
                  <value value="45"/>
                  <system value="http://unitsofmeasure.org"/>
                  <code value="%"/>
               </low>
            </referenceRange>
            <referenceRange>
               <high>
                  <value value="75"/>
                  <system value="http://unitsofmeasure.org"/>
                  <code value="%"/>
               </high>
            </referenceRange>
         </Observation>
      </resource>
   </entry>
   <entry>
      <fullUrl value="urn:uuid:c602dfcc-7038-4861-bb0f-c2cbb3318c46"/>
      <resource>
         <Observation>
            <id value="c602dfcc-7038-4861-bb0f-c2cbb3318c46"/>
            <meta>
               <profile value="http://hl7.eu/fhir/laboratory/StructureDefinition/Observation-resultslab-eu-lab"/>
            </meta>
            <status value="final"/>
            <category>
               <coding>
                  <system value="http://terminology.hl7.org/CodeSystem/observation-category"/>
                  <code value="laboratory"/>
               </coding>
            </category>
            <code>
               <coding>
                  <system value="http://loinc.org"/>
                  <code value="736-9"/>
                  <display value="Lymphocytes/100 leukocytes in Blood by Automated count"/>
               </coding>
               <text value="Lymphocytes/100 leukocytes in Blood by Automated count"/>
            </code>
            <subject>
               <reference value="urn:uuid:71541cd5-9354-4c3c-bec5-48420400fcea"/>
            </subject>
            <effectiveDateTime value="2024-11-18"/>
            <performer>
               <display value="The Central European Lab"/>
            </performer>
            <valueQuantity>
               <value value="8.2"/>
               <unit value="%"/>
               <system value="http://unitsofmeasure.org"/>
               <code value="%"/>
            </valueQuantity>
            <interpretation>
               <coding>
                  <system value="http://terminology.hl7.org/CodeSystem/v3-ObservationInterpretation"/>
                  <code value="L"/>
                  <display value="Low"/>
               </coding>
            </interpretation>
            <specimen>
               <reference value="urn:uuid:ef652533-ca68-47b0-bd22-97c336586df0"/>
            </specimen>
            <referenceRange>
               <low>
                  <value value="20"/>
                  <system value="http://unitsofmeasure.org"/>
                  <code value="%"/>
               </low>
            </referenceRange>
            <referenceRange>
               <high>
                  <value value="45"/>
                  <system value="http://unitsofmeasure.org"/>
                  <code value="%"/>
               </high>
            </referenceRange>
         </Observation>
      </resource>
   </entry>
   <entry>
      <fullUrl value="urn:uuid:0905a732-81fb-4cec-8e7f-252060de7a79"/>
      <resource>
         <Observation>
            <id value="0905a732-81fb-4cec-8e7f-252060de7a79"/>
            <meta>
               <profile value="http://hl7.eu/fhir/laboratory/StructureDefinition/Observation-resultslab-eu-lab"/>
            </meta>
            <status value="final"/>
            <category>
               <coding>
                  <system value="http://terminology.hl7.org/CodeSystem/observation-category"/>
                  <code value="laboratory"/>
               </coding>
            </category>
            <code>
               <coding>
                  <system value="http://loinc.org"/>
                  <code value="5905-5"/>
                  <display value="Monocytes/100 leukocytes in Blood by Automated count"/>
               </coding>
               <text value="Monocytes/100 leukocytes in Blood by Automated count"/>
            </code>
            <subject>
               <reference value="urn:uuid:71541cd5-9354-4c3c-bec5-48420400fcea"/>
            </subject>
            <effectiveDateTime value="2024-11-18"/>
            <performer>
               <display value="The Central European Lab"/>
            </performer>
            <valueQuantity>
               <value value="14.9"/>
               <unit value="%"/>
               <system value="http://unitsofmeasure.org"/>
               <code value="%"/>
            </valueQuantity>
            <interpretation>
               <coding>
                  <system value="http://terminology.hl7.org/CodeSystem/v3-ObservationInterpretation"/>
                  <code value="H"/>
                  <display value="High"/>
               </coding>
            </interpretation>
            <specimen>
               <reference value="urn:uuid:ef652533-ca68-47b0-bd22-97c336586df0"/>
            </specimen>
            <referenceRange>
               <low>
                  <value value="3"/>
                  <system value="http://unitsofmeasure.org"/>
                  <code value="%"/>
               </low>
            </referenceRange>
            <referenceRange>
               <high>
                  <value value="10"/>
                  <system value="http://unitsofmeasure.org"/>
                  <code value="%"/>
               </high>
            </referenceRange>
         </Observation>
      </resource>
   </entry>
   <entry>
      <fullUrl value="urn:uuid:ac42b2ee-2c06-4372-960b-200b804c7fce"/>
      <resource>
         <Observation>
            <id value="ac42b2ee-2c06-4372-960b-200b804c7fce"/>
            <meta>
               <profile value="http://hl7.eu/fhir/laboratory/StructureDefinition/Observation-resultslab-eu-lab"/>
            </meta>
            <status value="final"/>
            <category>
               <coding>
                  <system value="http://terminology.hl7.org/CodeSystem/observation-category"/>
                  <code value="laboratory"/>
               </coding>
            </category>
            <code>
               <coding>
                  <system value="http://loinc.org"/>
                  <code value="713-8"/>
                  <display value="Eosinophils/100 leukocytes in Blood by Automated count"/>
               </coding>
               <text value="Eosinophils/100 leukocytes in Blood by Automated count"/>
            </code>
            <subject>
               <reference value="urn:uuid:71541cd5-9354-4c3c-bec5-48420400fcea"/>
            </subject>
            <effectiveDateTime value="2024-11-18"/>
            <performer>
               <display value="The Central European Lab"/>
            </performer>
            <valueQuantity>
               <value value="3.3"/>
               <unit value="%"/>
               <system value="http://unitsofmeasure.org"/>
               <code value="%"/>
            </valueQuantity>
            <specimen>
               <reference value="urn:uuid:ef652533-ca68-47b0-bd22-97c336586df0"/>
            </specimen>
            <referenceRange>
               <low>
                  <value value="0"/>
                  <system value="http://unitsofmeasure.org"/>
                  <code value="%"/>
               </low>
            </referenceRange>
            <referenceRange>
               <high>
                  <value value="7"/>
                  <system value="http://unitsofmeasure.org"/>
                  <code value="%"/>
               </high>
            </referenceRange>
         </Observation>
      </resource>
   </entry>
   <entry>
      <fullUrl value="urn:uuid:0d546569-5765-4882-ad2d-58057597afa4"/>
      <resource>
         <Observation>
            <id value="0d546569-5765-4882-ad2d-58057597afa4"/>
            <meta>
               <profile value="http://hl7.eu/fhir/laboratory/StructureDefinition/Observation-resultslab-eu-lab"/>
            </meta>
            <status value="final"/>
            <category>
               <coding>
                  <system value="http://terminology.hl7.org/CodeSystem/observation-category"/>
                  <code value="laboratory"/>
               </coding>
            </category>
            <code>
               <coding>
                  <system value="http://loinc.org"/>
                  <code value="706-2"/>
                  <display value="Basophils/100 leukocytes in Blood by Automated count"/>
               </coding>
               <text value="Basophils/100 leukocytes in Blood by Automated count"/>
            </code>
            <subject>
               <reference value="urn:uuid:71541cd5-9354-4c3c-bec5-48420400fcea"/>
            </subject>
            <effectiveDateTime value="2024-11-18"/>
            <performer>
               <display value="The Central European Lab"/>
            </performer>
            <valueQuantity>
               <value value="3"/>
               <unit value="%"/>
               <system value="http://unitsofmeasure.org"/>
               <code value="%"/>
            </valueQuantity>
            <specimen>
               <reference value="urn:uuid:ef652533-ca68-47b0-bd22-97c336586df0"/>
            </specimen>
            <referenceRange>
               <low>
                  <value value="0"/>
                  <system value="http://unitsofmeasure.org"/>
                  <code value="%"/>
               </low>
            </referenceRange>
            <referenceRange>
               <high>
                  <value value="3"/>
                  <system value="http://unitsofmeasure.org"/>
                  <code value="%"/>
               </high>
            </referenceRange>
         </Observation>
      </resource>
   </entry>
   <entry>
      <fullUrl value="urn:uuid:e93ba20e-5ca1-447b-8f41-aad38bdef05d"/>
      <resource>
         <Observation>
            <id value="e93ba20e-5ca1-447b-8f41-aad38bdef05d"/>
            <meta>
               <profile value="http://hl7.eu/fhir/laboratory/StructureDefinition/Observation-resultslab-eu-lab"/>
            </meta>
            <status value="final"/>
            <category>
               <coding>
                  <system value="http://terminology.hl7.org/CodeSystem/observation-category"/>
                  <code value="laboratory"/>
               </coding>
            </category>
            <code>
               <coding>
                  <system value="http://loinc.org"/>
                  <code value="751-8"/>
                  <display value="Neutrophils [#/volume] in Blood by Automated count"/>
               </coding>
               <text value="Neutrophils [#/volume] in Blood by Automated count"/>
            </code>
            <subject>
               <reference value="urn:uuid:71541cd5-9354-4c3c-bec5-48420400fcea"/>
            </subject>
            <effectiveDateTime value="2024-11-18"/>
            <performer>
               <display value="The Central European Lab"/>
            </performer>
            <valueQuantity>
               <value value="3.2"/>
               <unit value="10*3/uL"/>
               <system value="http://unitsofmeasure.org"/>
               <code value="10*3/uL"/>
            </valueQuantity>
            <specimen>
               <reference value="urn:uuid:ef652533-ca68-47b0-bd22-97c336586df0"/>
            </specimen>
            <referenceRange>
               <low>
                  <value value="2"/>
                  <system value="http://unitsofmeasure.org"/>
                  <code value="10*3/uL"/>
               </low>
            </referenceRange>
            <referenceRange>
               <high>
                  <value value="7"/>
                  <system value="http://unitsofmeasure.org"/>
                  <code value="10*3/uL"/>
               </high>
            </referenceRange>
         </Observation>
      </resource>
   </entry>
   <entry>
      <fullUrl value="urn:uuid:277c23c3-4d51-48e6-8476-ec72c4f89890"/>
      <resource>
         <Observation>
            <id value="277c23c3-4d51-48e6-8476-ec72c4f89890"/>
            <meta>
               <profile value="http://hl7.eu/fhir/laboratory/StructureDefinition/Observation-resultslab-eu-lab"/>
            </meta>
            <status value="final"/>
            <category>
               <coding>
                  <system value="http://terminology.hl7.org/CodeSystem/observation-category"/>
                  <code value="laboratory"/>
               </coding>
            </category>
            <code>
               <coding>
                  <system value="http://loinc.org"/>
                  <code value="731-0"/>
                  <display value="Lymphocytes [#/volume] in Blood by Automated count"/>
               </coding>
               <text value="Lymphocytes [#/volume] in Blood by Automated count"/>
            </code>
            <subject>
               <reference value="urn:uuid:71541cd5-9354-4c3c-bec5-48420400fcea"/>
            </subject>
            <effectiveDateTime value="2024-11-18"/>
            <performer>
               <display value="The Central European Lab"/>
            </performer>
            <valueQuantity>
               <value value="1.1"/>
               <unit value="10*3/uL"/>
               <system value="http://unitsofmeasure.org"/>
               <code value="10*3/uL"/>
            </valueQuantity>
            <specimen>
               <reference value="urn:uuid:ef652533-ca68-47b0-bd22-97c336586df0"/>
            </specimen>
            <referenceRange>
               <low>
                  <value value="1"/>
                  <system value="http://unitsofmeasure.org"/>
                  <code value="10*3/uL"/>
               </low>
            </referenceRange>
            <referenceRange>
               <high>
                  <value value="4"/>
                  <system value="http://unitsofmeasure.org"/>
                  <code value="10*3/uL"/>
               </high>
            </referenceRange>
         </Observation>
      </resource>
   </entry>
   <entry>
      <fullUrl value="urn:uuid:cacf0c28-0d6f-41be-9ea4-9a358cee2c0b"/>
      <resource>
         <Observation>
            <id value="cacf0c28-0d6f-41be-9ea4-9a358cee2c0b"/>
            <meta>
               <profile value="http://hl7.eu/fhir/laboratory/StructureDefinition/Observation-resultslab-eu-lab"/>
            </meta>
            <status value="final"/>
            <category>
               <coding>
                  <system value="http://terminology.hl7.org/CodeSystem/observation-category"/>
                  <code value="laboratory"/>
               </coding>
            </category>
            <code>
               <coding>
                  <system value="http://loinc.org"/>
                  <code value="742-7"/>
                  <display value="Monocytes [#/volume] in Blood by Automated count"/>
               </coding>
               <text value="Monocytes [#/volume] in Blood by Automated count"/>
            </code>
            <subject>
               <reference value="urn:uuid:71541cd5-9354-4c3c-bec5-48420400fcea"/>
            </subject>
            <effectiveDateTime value="2024-11-18"/>
            <performer>
               <display value="The Central European Lab"/>
            </performer>
            <valueQuantity>
               <value value="1.1"/>
               <unit value="10*3/uL"/>
               <system value="http://unitsofmeasure.org"/>
               <code value="10*3/uL"/>
            </valueQuantity>
            <interpretation>
               <coding>
                  <system value="http://terminology.hl7.org/CodeSystem/v3-ObservationInterpretation"/>
                  <code value="H"/>
                  <display value="High"/>
               </coding>
            </interpretation>
            <specimen>
               <reference value="urn:uuid:ef652533-ca68-47b0-bd22-97c336586df0"/>
            </specimen>
            <referenceRange>
               <low>
                  <value value="0.7"/>
                  <system value="http://unitsofmeasure.org"/>
                  <code value="10*3/uL"/>
               </low>
            </referenceRange>
            <referenceRange>
               <high>
                  <value value="0.9"/>
                  <system value="http://unitsofmeasure.org"/>
                  <code value="10*3/uL"/>
               </high>
            </referenceRange>
         </Observation>
      </resource>
   </entry>
   <entry>
      <fullUrl value="urn:uuid:c3ddd102-057c-431a-89f9-0734126eef92"/>
      <resource>
         <Observation>
            <id value="c3ddd102-057c-431a-89f9-0734126eef92"/>
            <meta>
               <profile value="http://hl7.eu/fhir/laboratory/StructureDefinition/Observation-resultslab-eu-lab"/>
            </meta>
            <status value="final"/>
            <category>
               <coding>
                  <system value="http://terminology.hl7.org/CodeSystem/observation-category"/>
                  <code value="laboratory"/>
               </coding>
            </category>
            <code>
               <coding>
                  <system value="http://loinc.org"/>
                  <code value="711-2"/>
                  <display value="Eosinophils [#/volume] in Blood by Automated count"/>
               </coding>
               <text value="Eosinophils [#/volume] in Blood by Automated count"/>
            </code>
            <subject>
               <reference value="urn:uuid:71541cd5-9354-4c3c-bec5-48420400fcea"/>
            </subject>
            <effectiveDateTime value="2024-11-18"/>
            <performer>
               <display value="The Central European Lab"/>
            </performer>
            <valueQuantity>
               <value value="0.4"/>
               <unit value="10*3/uL"/>
               <system value="http://unitsofmeasure.org"/>
               <code value="10*3/uL"/>
            </valueQuantity>
            <specimen>
               <reference value="urn:uuid:ef652533-ca68-47b0-bd22-97c336586df0"/>
            </specimen>
            <referenceRange>
               <low>
                  <value value="0"/>
                  <system value="http://unitsofmeasure.org"/>
                  <code value="10*3/uL"/>
               </low>
            </referenceRange>
            <referenceRange>
               <high>
                  <value value="0.7"/>
                  <system value="http://unitsofmeasure.org"/>
                  <code value="10*3/uL"/>
               </high>
            </referenceRange>
         </Observation>
      </resource>
   </entry>
   <entry>
      <fullUrl value="urn:uuid:baf667c9-782a-4977-9189-dbc894539d56"/>
      <resource>
         <Observation>
            <id value="baf667c9-782a-4977-9189-dbc894539d56"/>
            <meta>
               <profile value="http://hl7.eu/fhir/laboratory/StructureDefinition/Observation-resultslab-eu-lab"/>
            </meta>
            <status value="final"/>
            <category>
               <coding>
                  <system value="http://terminology.hl7.org/CodeSystem/observation-category"/>
                  <code value="laboratory"/>
               </coding>
            </category>
            <code>
               <coding>
                  <system value="http://loinc.org"/>
                  <code value="704-7"/>
                  <display value="Basophils [#/volume] in Blood by Automated count"/>
               </coding>
               <text value="Basophils [#/volume] in Blood by Automated count"/>
            </code>
            <subject>
               <reference value="urn:uuid:71541cd5-9354-4c3c-bec5-48420400fcea"/>
            </subject>
            <effectiveDateTime value="2024-11-18"/>
            <performer>
               <display value="The Central European Lab"/>
            </performer>
            <valueQuantity>
               <value value="0.3"/>
               <unit value="10*3/uL"/>
               <system value="http://unitsofmeasure.org"/>
               <code value="10*3/uL"/>
            </valueQuantity>
            <interpretation>
               <coding>
                  <system value="http://terminology.hl7.org/CodeSystem/v3-ObservationInterpretation"/>
                  <code value="H"/>
                  <display value="High"/>
               </coding>
            </interpretation>
            <specimen>
               <reference value="urn:uuid:ef652533-ca68-47b0-bd22-97c336586df0"/>
            </specimen>
            <referenceRange>
               <low>
                  <value value="0.1"/>
                  <system value="http://unitsofmeasure.org"/>
                  <code value="10*3/uL"/>
               </low>
            </referenceRange>
            <referenceRange>
               <high>
                  <value value="0.2"/>
                  <system value="http://unitsofmeasure.org"/>
                  <code value="10*3/uL"/>
               </high>
            </referenceRange>
         </Observation>
      </resource>
   </entry>
   <entry>
      <fullUrl value="urn:uuid:daff25c2-5d2c-4695-bb75-2740e8784e01"/>
      <resource>
         <Observation>
            <id value="daff25c2-5d2c-4695-bb75-2740e8784e01"/>
            <meta>
               <profile value="http://hl7.eu/fhir/laboratory/StructureDefinition/Observation-resultslab-eu-lab"/>
            </meta>
            <status value="final"/>
            <category>
               <coding>
                  <system value="http://terminology.hl7.org/CodeSystem/observation-category"/>
                  <code value="laboratory"/>
               </coding>
            </category>
            <code>
               <coding>
                  <system value="http://loinc.org"/>
                  <code value="2345-7"/>
                  <display value="Glucose [Mass/volume] in Serum or Plasma"/>
               </coding>
               <text value="Glucose [Mass/volume] in Serum or Plasma"/>
            </code>
            <subject>
               <reference value="urn:uuid:71541cd5-9354-4c3c-bec5-48420400fcea"/>
            </subject>
            <effectiveDateTime value="2024-11-18"/>
            <performer>
               <display value="The Central European Lab"/>
            </performer>
            <valueQuantity>
               <value value="81.7"/>
               <unit value="mg/dL"/>
               <system value="http://unitsofmeasure.org"/>
               <code value="mg/dL"/>
            </valueQuantity>
            <specimen>
               <reference value="urn:uuid:21dea01c-387c-4272-bb04-02e482797933"/>
            </specimen>
            <referenceRange>
               <low>
                  <value value="70"/>
                  <system value="http://unitsofmeasure.org"/>
                  <code value="mg/dL"/>
               </low>
            </referenceRange>
            <referenceRange>
               <high>
                  <value value="140"/>
                  <system value="http://unitsofmeasure.org"/>
                  <code value="mg/dL"/>
               </high>
            </referenceRange>
         </Observation>
      </resource>
   </entry>
   <entry>
      <fullUrl value="urn:uuid:7541e418-d5f8-432b-b0b2-8336fc68bd2c"/>
      <resource>
         <Observation>
            <id value="7541e418-d5f8-432b-b0b2-8336fc68bd2c"/>
            <meta>
               <profile value="http://hl7.eu/fhir/laboratory/StructureDefinition/Observation-resultslab-eu-lab"/>
            </meta>
            <status value="final"/>
            <category>
               <coding>
                  <system value="http://terminology.hl7.org/CodeSystem/observation-category"/>
                  <code value="laboratory"/>
               </coding>
            </category>
            <code>
               <coding>
                  <system value="http://loinc.org"/>
                  <code value="3094-0"/>
                  <display value="Urea nitrogen [Mass/volume] in Serum or Plasma"/>
               </coding>
               <text value="Urea nitrogen [Mass/volume] in Serum or Plasma"/>
            </code>
            <subject>
               <reference value="urn:uuid:71541cd5-9354-4c3c-bec5-48420400fcea"/>
            </subject>
            <effectiveDateTime value="2024-11-18"/>
            <performer>
               <display value="The Central European Lab"/>
            </performer>
            <valueQuantity>
               <value value="9.8"/>
               <unit value="mg/dL"/>
               <system value="http://unitsofmeasure.org"/>
               <code value="mg/dL"/>
            </valueQuantity>
            <specimen>
               <reference value="urn:uuid:21dea01c-387c-4272-bb04-02e482797933"/>
            </specimen>
            <referenceRange>
               <low>
                  <value value="7"/>
                  <system value="http://unitsofmeasure.org"/>
                  <code value="mg/dL"/>
               </low>
            </referenceRange>
            <referenceRange>
               <high>
                  <value value="20"/>
                  <system value="http://unitsofmeasure.org"/>
                  <code value="mg/dL"/>
               </high>
            </referenceRange>
         </Observation>
      </resource>
   </entry>
   <entry>
      <fullUrl value="urn:uuid:c0ff5251-9c5d-424b-a209-850433e6ab3b"/>
      <resource>
         <Observation>
            <id value="c0ff5251-9c5d-424b-a209-850433e6ab3b"/>
            <meta>
               <profile value="http://hl7.eu/fhir/laboratory/StructureDefinition/Observation-resultslab-eu-lab"/>
            </meta>
            <status value="final"/>
            <category>
               <coding>
                  <system value="http://terminology.hl7.org/CodeSystem/observation-category"/>
                  <code value="laboratory"/>
               </coding>
            </category>
            <code>
               <coding>
                  <system value="http://loinc.org"/>
                  <code value="2160-0"/>
                  <display value="Creatinine [Mass/volume] in Serum or Plasma"/>
               </coding>
               <text value="Creatinine [Mass/volume] in Serum or Plasma"/>
            </code>
            <subject>
               <reference value="urn:uuid:71541cd5-9354-4c3c-bec5-48420400fcea"/>
            </subject>
            <effectiveDateTime value="2024-11-18"/>
            <performer>
               <display value="The Central European Lab"/>
            </performer>
            <valueQuantity>
               <value value="2.5"/>
               <unit value="mg/dL"/>
               <system value="http://unitsofmeasure.org"/>
               <code value="mg/dL"/>
            </valueQuantity>
            <interpretation>
               <coding>
                  <system value="http://terminology.hl7.org/CodeSystem/v3-ObservationInterpretation"/>
                  <code value="H"/>
                  <display value="High"/>
               </coding>
            </interpretation>
            <specimen>
               <reference value="urn:uuid:21dea01c-387c-4272-bb04-02e482797933"/>
            </specimen>
            <referenceRange>
               <low>
                  <value value="0.9"/>
                  <system value="http://unitsofmeasure.org"/>
                  <code value="mg/dL"/>
               </low>
            </referenceRange>
            <referenceRange>
               <high>
                  <value value="1.3"/>
                  <system value="http://unitsofmeasure.org"/>
                  <code value="mg/dL"/>
               </high>
            </referenceRange>
         </Observation>
      </resource>
   </entry>
   <entry>
      <fullUrl value="urn:uuid:e2e2af0c-d956-431d-9b47-417132323d8d"/>
      <resource>
         <Observation>
            <id value="e2e2af0c-d956-431d-9b47-417132323d8d"/>
            <meta>
               <profile value="http://hl7.eu/fhir/laboratory/StructureDefinition/Observation-resultslab-eu-lab"/>
            </meta>
            <status value="final"/>
            <category>
               <coding>
                  <system value="http://terminology.hl7.org/CodeSystem/observation-category"/>
                  <code value="laboratory"/>
               </coding>
            </category>
            <code>
               <coding>
                  <system value="http://loinc.org"/>
                  <code value="17861-6"/>
                  <display value="Calcium [Mass/volume] in Serum or Plasma"/>
               </coding>
               <text value="Calcium [Mass/volume] in Serum or Plasma"/>
            </code>
            <subject>
               <reference value="urn:uuid:71541cd5-9354-4c3c-bec5-48420400fcea"/>
            </subject>
            <effectiveDateTime value="2024-11-18"/>
            <performer>
               <display value="The Central European Lab"/>
            </performer>
            <valueQuantity>
               <value value="9"/>
               <unit value="mg/dL"/>
               <system value="http://unitsofmeasure.org"/>
               <code value="mg/dL"/>
            </valueQuantity>
            <specimen>
               <reference value="urn:uuid:21dea01c-387c-4272-bb04-02e482797933"/>
            </specimen>
            <referenceRange>
               <low>
                  <value value="8.5"/>
                  <system value="http://unitsofmeasure.org"/>
                  <code value="mg/dL"/>
               </low>
            </referenceRange>
            <referenceRange>
               <high>
                  <value value="10.5"/>
                  <system value="http://unitsofmeasure.org"/>
                  <code value="mg/dL"/>
               </high>
            </referenceRange>
         </Observation>
      </resource>
   </entry>
   <entry>
      <fullUrl value="urn:uuid:d71dc05b-9977-4b86-8b10-eba6e1dc6084"/>
      <resource>
         <Observation>
            <id value="d71dc05b-9977-4b86-8b10-eba6e1dc6084"/>
            <meta>
               <profile value="http://hl7.eu/fhir/laboratory/StructureDefinition/Observation-resultslab-eu-lab"/>
            </meta>
            <status value="final"/>
            <category>
               <coding>
                  <system value="http://terminology.hl7.org/CodeSystem/observation-category"/>
                  <code value="laboratory"/>
               </coding>
            </category>
            <code>
               <coding>
                  <system value="http://loinc.org"/>
                  <code value="2951-2"/>
                  <display value="Sodium [Moles/volume] in Serum or Plasma"/>
               </coding>
               <text value="Sodium [Moles/volume] in Serum or Plasma"/>
            </code>
            <subject>
               <reference value="urn:uuid:71541cd5-9354-4c3c-bec5-48420400fcea"/>
            </subject>
            <effectiveDateTime value="2024-11-18"/>
            <performer>
               <display value="The Central European Lab"/>
            </performer>
            <valueQuantity>
               <value value="138"/>
               <unit value="mmol/L"/>
               <system value="http://unitsofmeasure.org"/>
               <code value="mmol/L"/>
            </valueQuantity>
            <specimen>
               <reference value="urn:uuid:21dea01c-387c-4272-bb04-02e482797933"/>
            </specimen>
            <referenceRange>
               <low>
                  <value value="135"/>
                  <system value="http://unitsofmeasure.org"/>
                  <code value="mmol/L"/>
               </low>
            </referenceRange>
            <referenceRange>
               <high>
                  <value value="145"/>
                  <system value="http://unitsofmeasure.org"/>
                  <code value="mmol/L"/>
               </high>
            </referenceRange>
         </Observation>
      </resource>
   </entry>
   <entry>
      <fullUrl value="urn:uuid:da4111c1-8cea-4851-b095-87d765ce0dc8"/>
      <resource>
         <Observation>
            <id value="da4111c1-8cea-4851-b095-87d765ce0dc8"/>
            <meta>
               <profile value="http://hl7.eu/fhir/laboratory/StructureDefinition/Observation-resultslab-eu-lab"/>
            </meta>
            <status value="final"/>
            <category>
               <coding>
                  <system value="http://terminology.hl7.org/CodeSystem/observation-category"/>
                  <code value="laboratory"/>
               </coding>
            </category>
            <code>
               <coding>
                  <system value="http://loinc.org"/>
                  <code value="2823-3"/>
                  <display value="Potassium [Moles/volume] in Serum or Plasma"/>
               </coding>
               <text value="Potassium [Moles/volume] in Serum or Plasma"/>
            </code>
            <subject>
               <reference value="urn:uuid:71541cd5-9354-4c3c-bec5-48420400fcea"/>
            </subject>
            <effectiveDateTime value="2024-11-18"/>
            <performer>
               <display value="The Central European Lab"/>
            </performer>
            <valueQuantity>
               <value value="3.8"/>
               <unit value="mmol/L"/>
               <system value="http://unitsofmeasure.org"/>
               <code value="mmol/L"/>
            </valueQuantity>
            <specimen>
               <reference value="urn:uuid:21dea01c-387c-4272-bb04-02e482797933"/>
            </specimen>
            <referenceRange>
               <low>
                  <value value="3.5"/>
                  <system value="http://unitsofmeasure.org"/>
                  <code value="mmol/L"/>
               </low>
            </referenceRange>
            <referenceRange>
               <high>
                  <value value="5"/>
                  <system value="http://unitsofmeasure.org"/>
                  <code value="mmol/L"/>
               </high>
            </referenceRange>
         </Observation>
      </resource>
   </entry>
   <entry>
      <fullUrl value="urn:uuid:ef14aa1f-09a5-4a86-95b8-78208718074c"/>
      <resource>
         <Observation>
            <id value="ef14aa1f-09a5-4a86-95b8-78208718074c"/>
            <meta>
               <profile value="http://hl7.eu/fhir/laboratory/StructureDefinition/Observation-resultslab-eu-lab"/>
            </meta>
            <status value="final"/>
            <category>
               <coding>
                  <system value="http://terminology.hl7.org/CodeSystem/observation-category"/>
                  <code value="laboratory"/>
               </coding>
            </category>
            <code>
               <coding>
                  <system value="http://loinc.org"/>
                  <code value="2075-0"/>
                  <display value="Chloride [Moles/volume] in Serum or Plasma"/>
               </coding>
               <text value="Chloride [Moles/volume] in Serum or Plasma"/>
            </code>
            <subject>
               <reference value="urn:uuid:71541cd5-9354-4c3c-bec5-48420400fcea"/>
            </subject>
            <effectiveDateTime value="2024-11-18"/>
            <performer>
               <display value="The Central European Lab"/>
            </performer>
            <valueQuantity>
               <value value="105.2"/>
               <unit value="mmol/L"/>
               <system value="http://unitsofmeasure.org"/>
               <code value="mmol/L"/>
            </valueQuantity>
            <specimen>
               <reference value="urn:uuid:21dea01c-387c-4272-bb04-02e482797933"/>
            </specimen>
            <referenceRange>
               <low>
                  <value value="98"/>
                  <system value="http://unitsofmeasure.org"/>
                  <code value="mmol/L"/>
               </low>
            </referenceRange>
            <referenceRange>
               <high>
                  <value value="108"/>
                  <system value="http://unitsofmeasure.org"/>
                  <code value="mmol/L"/>
               </high>
            </referenceRange>
         </Observation>
      </resource>
   </entry>
   <entry>
      <fullUrl value="urn:uuid:e05d90e8-759c-4f43-9d37-acaaf3c16296"/>
      <resource>
         <Observation>
            <id value="e05d90e8-759c-4f43-9d37-acaaf3c16296"/>
            <meta>
               <profile value="http://hl7.eu/fhir/laboratory/StructureDefinition/Observation-resultslab-eu-lab"/>
            </meta>
            <status value="final"/>
            <category>
               <coding>
                  <system value="http://terminology.hl7.org/CodeSystem/observation-category"/>
                  <code value="laboratory"/>
               </coding>
            </category>
            <code>
               <coding>
                  <system value="http://loinc.org"/>
                  <code value="2028-9"/>
                  <display value="Carbon dioxide, total [Moles/volume] in Serum or Plasma"/>
               </coding>
               <text value="Carbon dioxide, total [Moles/volume] in Serum or Plasma"/>
            </code>
            <subject>
               <reference value="urn:uuid:71541cd5-9354-4c3c-bec5-48420400fcea"/>
            </subject>
            <effectiveDateTime value="2024-11-18"/>
            <performer>
               <display value="The Central European Lab"/>
            </performer>
            <valueQuantity>
               <value value="28.8"/>
               <unit value="mmol/L"/>
               <system value="http://unitsofmeasure.org"/>
               <code value="mmol/L"/>
            </valueQuantity>
            <specimen>
               <reference value="urn:uuid:21dea01c-387c-4272-bb04-02e482797933"/>
            </specimen>
            <referenceRange>
               <low>
                  <value value="22"/>
                  <system value="http://unitsofmeasure.org"/>
                  <code value="mmol/L"/>
               </low>
            </referenceRange>
            <referenceRange>
               <high>
                  <value value="32"/>
                  <system value="http://unitsofmeasure.org"/>
                  <code value="mmol/L"/>
               </high>
            </referenceRange>
         </Observation>
      </resource>
   </entry>
   <entry>
      <fullUrl value="urn:uuid:8198a0d4-7bd7-4ca5-9fc4-00955010c29d"/>
      <resource>
         <Observation>
            <id value="8198a0d4-7bd7-4ca5-9fc4-00955010c29d"/>
            <meta>
               <profile value="http://hl7.eu/fhir/laboratory/StructureDefinition/Observation-resultslab-eu-lab"/>
            </meta>
            <status value="final"/>
            <category>
               <coding>
                  <system value="http://terminology.hl7.org/CodeSystem/observation-category"/>
                  <code value="laboratory"/>
               </coding>
            </category>
            <code>
               <coding>
                  <system value="http://loinc.org"/>
                  <code value="2885-2"/>
                  <display value="Protein [Mass/volume] in Serum or Plasma"/>
               </coding>
               <text value="Protein [Mass/volume] in Serum or Plasma"/>
            </code>
            <subject>
               <reference value="urn:uuid:71541cd5-9354-4c3c-bec5-48420400fcea"/>
            </subject>
            <effectiveDateTime value="2024-11-18"/>
            <performer>
               <display value="The Central European Lab"/>
            </performer>
            <valueQuantity>
               <value value="7.5"/>
               <unit value="g/dL"/>
               <system value="http://unitsofmeasure.org"/>
               <code value="g/dL"/>
            </valueQuantity>
            <specimen>
               <reference value="urn:uuid:21dea01c-387c-4272-bb04-02e482797933"/>
            </specimen>
            <referenceRange>
               <low>
                  <value value="6"/>
                  <system value="http://unitsofmeasure.org"/>
                  <code value="g/dL"/>
               </low>
            </referenceRange>
            <referenceRange>
               <high>
                  <value value="8.3"/>
                  <system value="http://unitsofmeasure.org"/>
                  <code value="g/dL"/>
               </high>
            </referenceRange>
         </Observation>
      </resource>
   </entry>
   <entry>
      <fullUrl value="urn:uuid:3ac4b4b5-28b2-4e84-9440-f02b3e14e209"/>
      <resource>
         <Observation>
            <id value="3ac4b4b5-28b2-4e84-9440-f02b3e14e209"/>
            <meta>
               <profile value="http://hl7.eu/fhir/laboratory/StructureDefinition/Observation-resultslab-eu-lab"/>
            </meta>
            <status value="final"/>
            <category>
               <coding>
                  <system value="http://terminology.hl7.org/CodeSystem/observation-category"/>
                  <code value="laboratory"/>
               </coding>
            </category>
            <code>
               <coding>
                  <system value="http://loinc.org"/>
                  <code value="1751-7"/>
                  <display value="Albumin [Mass/volume] in Serum or Plasma"/>
               </coding>
               <text value="Albumin [Mass/volume] in Serum or Plasma"/>
            </code>
            <subject>
               <reference value="urn:uuid:71541cd5-9354-4c3c-bec5-48420400fcea"/>
            </subject>
            <effectiveDateTime value="2024-11-18"/>
            <performer>
               <display value="The Central European Lab"/>
            </performer>
            <valueQuantity>
               <value value="5.2"/>
               <unit value="g/dL"/>
               <system value="http://unitsofmeasure.org"/>
               <code value="g/dL"/>
            </valueQuantity>
            <specimen>
               <reference value="urn:uuid:21dea01c-387c-4272-bb04-02e482797933"/>
            </specimen>
            <referenceRange>
               <low>
                  <value value="3.5"/>
                  <system value="http://unitsofmeasure.org"/>
                  <code value="g/dL"/>
               </low>
            </referenceRange>
            <referenceRange>
               <high>
                  <value value="5.5"/>
                  <system value="http://unitsofmeasure.org"/>
                  <code value="g/dL"/>
               </high>
            </referenceRange>
         </Observation>
      </resource>
   </entry>
   <entry>
      <fullUrl value="urn:uuid:2be9d43f-605a-4600-b4f0-113c30f2d4a4"/>
      <resource>
         <Observation>
            <id value="2be9d43f-605a-4600-b4f0-113c30f2d4a4"/>
            <meta>
               <profile value="http://hl7.eu/fhir/laboratory/StructureDefinition/Observation-resultslab-eu-lab"/>
            </meta>
            <status value="final"/>
            <category>
               <coding>
                  <system value="http://terminology.hl7.org/CodeSystem/observation-category"/>
                  <code value="laboratory"/>
               </coding>
            </category>
            <code>
               <coding>
                  <system value="http://loinc.org"/>
                  <code value="1975-2"/>
                  <display value="Bilirubin.total [Mass/volume] in Serum or Plasma"/>
               </coding>
               <text value="Bilirubin.total [Mass/volume] in Serum or Plasma"/>
            </code>
            <subject>
               <reference value="urn:uuid:71541cd5-9354-4c3c-bec5-48420400fcea"/>
            </subject>
            <effectiveDateTime value="2024-11-18"/>
            <performer>
               <display value="The Central European Lab"/>
            </performer>
            <valueQuantity>
               <value value="9.5"/>
               <unit value="mg/dL"/>
               <system value="http://unitsofmeasure.org"/>
               <code value="mg/dL"/>
            </valueQuantity>
            <interpretation>
               <coding>
                  <system value="http://terminology.hl7.org/CodeSystem/v3-ObservationInterpretation"/>
                  <code value="H"/>
                  <display value="High"/>
               </coding>
            </interpretation>
            <specimen>
               <reference value="urn:uuid:21dea01c-387c-4272-bb04-02e482797933"/>
            </specimen>
            <referenceRange>
               <low>
                  <value value="0.3"/>
                  <system value="http://unitsofmeasure.org"/>
                  <code value="mg/dL"/>
               </low>
            </referenceRange>
            <referenceRange>
               <high>
                  <value value="1.2"/>
                  <system value="http://unitsofmeasure.org"/>
                  <code value="mg/dL"/>
               </high>
            </referenceRange>
         </Observation>
      </resource>
   </entry>
   <entry>
      <fullUrl value="urn:uuid:f1f38135-64d1-4e6c-9248-944c35591889"/>
      <resource>
         <Observation>
            <id value="f1f38135-64d1-4e6c-9248-944c35591889"/>
            <meta>
               <profile value="http://hl7.eu/fhir/laboratory/StructureDefinition/Observation-resultslab-eu-lab"/>
            </meta>
            <status value="final"/>
            <category>
               <coding>
                  <system value="http://terminology.hl7.org/CodeSystem/observation-category"/>
                  <code value="laboratory"/>
               </coding>
            </category>
            <code>
               <coding>
                  <system value="http://loinc.org"/>
                  <code value="6768-6"/>
                  <display value="Alkaline phosphatase [Enzymatic activity/volume] in Serum or Plasma"/>
               </coding>
               <text value="Alkaline phosphatase [Enzymatic activity/volume] in Serum or Plasma"/>
            </code>
            <subject>
               <reference value="urn:uuid:71541cd5-9354-4c3c-bec5-48420400fcea"/>
            </subject>
            <effectiveDateTime value="2024-11-18"/>
            <performer>
               <display value="The Central European Lab"/>
            </performer>
            <valueQuantity>
               <value value="57.8"/>
               <unit value="U/L"/>
               <system value="http://unitsofmeasure.org"/>
               <code value="U/L"/>
            </valueQuantity>
            <specimen>
               <reference value="urn:uuid:21dea01c-387c-4272-bb04-02e482797933"/>
            </specimen>
            <referenceRange>
               <low>
                  <value value="39"/>
                  <system value="http://unitsofmeasure.org"/>
                  <code value="U/L"/>
               </low>
            </referenceRange>
            <referenceRange>
               <high>
                  <value value="147"/>
                  <system value="http://unitsofmeasure.org"/>
                  <code value="U/L"/>
               </high>
            </referenceRange>
         </Observation>
      </resource>
   </entry>
   <entry>
      <fullUrl value="urn:uuid:79262729-db93-40f5-abc7-a46c924fbf47"/>
      <resource>
         <Observation>
            <id value="79262729-db93-40f5-abc7-a46c924fbf47"/>
            <meta>
               <profile value="http://hl7.eu/fhir/laboratory/StructureDefinition/Observation-resultslab-eu-lab"/>
            </meta>
            <status value="final"/>
            <category>
               <coding>
                  <system value="http://terminology.hl7.org/CodeSystem/observation-category"/>
                  <code value="laboratory"/>
               </coding>
            </category>
            <code>
               <coding>
                  <system value="http://loinc.org"/>
                  <code value="1742-6"/>
                  <display value="Alanine aminotransferase [Enzymatic activity/volume] in Serum or Plasma"/>
               </coding>
               <text value="Alanine aminotransferase [Enzymatic activity/volume] in Serum or Plasma"/>
            </code>
            <subject>
               <reference value="urn:uuid:71541cd5-9354-4c3c-bec5-48420400fcea"/>
            </subject>
            <effectiveDateTime value="2024-11-18"/>
            <performer>
               <display value="The Central European Lab"/>
            </performer>
            <valueQuantity>
               <value value="26"/>
               <unit value="U/L"/>
               <system value="http://unitsofmeasure.org"/>
               <code value="U/L"/>
            </valueQuantity>
            <specimen>
               <reference value="urn:uuid:21dea01c-387c-4272-bb04-02e482797933"/>
            </specimen>
            <referenceRange>
               <low>
                  <value value="7"/>
                  <system value="http://unitsofmeasure.org"/>
                  <code value="U/L"/>
               </low>
            </referenceRange>
            <referenceRange>
               <high>
                  <value value="60"/>
                  <system value="http://unitsofmeasure.org"/>
                  <code value="U/L"/>
               </high>
            </referenceRange>
         </Observation>
      </resource>
   </entry>
   <entry>
      <fullUrl value="urn:uuid:3bfeac4b-2f5d-45df-8d07-76aeb33332c2"/>
      <resource>
         <Observation>
            <id value="3bfeac4b-2f5d-45df-8d07-76aeb33332c2"/>
            <meta>
               <profile value="http://hl7.eu/fhir/laboratory/StructureDefinition/Observation-resultslab-eu-lab"/>
            </meta>
            <status value="final"/>
            <category>
               <coding>
                  <system value="http://terminology.hl7.org/CodeSystem/observation-category"/>
                  <code value="laboratory"/>
               </coding>
            </category>
            <code>
               <coding>
                  <system value="http://loinc.org"/>
                  <code value="1920-8"/>
                  <display value="Aspartate aminotransferase [Enzymatic activity/volume] in Serum or Plasma"/>
               </coding>
               <text value="Aspartate aminotransferase [Enzymatic activity/volume] in Serum or Plasma"/>
            </code>
            <subject>
               <reference value="urn:uuid:71541cd5-9354-4c3c-bec5-48420400fcea"/>
            </subject>
            <effectiveDateTime value="2024-11-18"/>
            <performer>
               <display value="The Central European Lab"/>
            </performer>
            <valueQuantity>
               <value value="27.7"/>
               <unit value="U/L"/>
               <system value="http://unitsofmeasure.org"/>
               <code value="U/L"/>
            </valueQuantity>
            <specimen>
               <reference value="urn:uuid:21dea01c-387c-4272-bb04-02e482797933"/>
            </specimen>
            <referenceRange>
               <low>
                  <value value="10"/>
                  <system value="http://unitsofmeasure.org"/>
                  <code value="U/L"/>
               </low>
            </referenceRange>
            <referenceRange>
               <high>
                  <value value="40"/>
                  <system value="http://unitsofmeasure.org"/>
                  <code value="U/L"/>
               </high>
            </referenceRange>
         </Observation>
      </resource>
   </entry>
   <entry>
      <fullUrl value="urn:uuid:6e4a1bdd-bc88-4570-a5bd-955386c9f421"/>
      <resource>
         <Observation>
            <id value="6e4a1bdd-bc88-4570-a5bd-955386c9f421"/>
            <meta>
               <profile value="http://hl7.eu/fhir/laboratory/StructureDefinition/Observation-resultslab-eu-lab"/>
            </meta>
            <status value="final"/>
            <category>
               <coding>
                  <system value="http://terminology.hl7.org/CodeSystem/observation-category"/>
                  <code value="laboratory"/>
               </coding>
            </category>
            <code>
               <coding>
                  <system value="http://loinc.org"/>
                  <code value="48065-7"/>
                  <display value="Fibrin D-dimer FEU [Mass/volume] in Platelet poor plasma"/>
               </coding>
               <text value="Fibrin D-dimer FEU [Mass/volume] in Platelet poor plasma"/>
            </code>
            <subject>
               <reference value="urn:uuid:71541cd5-9354-4c3c-bec5-48420400fcea"/>
            </subject>
            <effectiveDateTime value="2024-11-18"/>
            <performer>
               <display value="The Central European Lab"/>
            </performer>
            <valueQuantity>
               <value value="0.3"/>
               <unit value="ug/mL"/>
               <system value="http://unitsofmeasure.org"/>
               <code value="ug/mL"/>
            </valueQuantity>
            <specimen>
               <reference value="urn:uuid:e1e360e4-386b-4b46-ae52-cf7488cb3099"/>
            </specimen>
            <referenceRange>
               <low>
                  <value value="0"/>
                  <system value="http://unitsofmeasure.org"/>
                  <code value="ug/mL"/>
               </low>
            </referenceRange>
            <referenceRange>
               <high>
                  <value value="0.5"/>
                  <system value="http://unitsofmeasure.org"/>
                  <code value="ug/mL"/>
               </high>
            </referenceRange>
         </Observation>
      </resource>
   </entry>
   <entry>
      <fullUrl value="urn:uuid:814b709d-b942-4dff-b9f0-da63a67bed89"/>
      <resource>
         <Observation>
            <id value="814b709d-b942-4dff-b9f0-da63a67bed89"/>
            <meta>
               <profile value="http://hl7.eu/fhir/laboratory/StructureDefinition/Observation-resultslab-eu-lab"/>
            </meta>
            <status value="final"/>
            <category>
               <coding>
                  <system value="http://terminology.hl7.org/CodeSystem/observation-category"/>
                  <code value="laboratory"/>
               </coding>
            </category>
            <code>
               <coding>
                  <system value="http://loinc.org"/>
                  <code value="2276-4"/>
                  <display value="Ferritin [Mass/volume] in Serum or Plasma"/>
               </coding>
               <text value="Ferritin [Mass/volume] in Serum or Plasma"/>
            </code>
            <subject>
               <reference value="urn:uuid:71541cd5-9354-4c3c-bec5-48420400fcea"/>
            </subject>
            <effectiveDateTime value="2024-11-18"/>
            <performer>
               <display value="The Central European Lab"/>
            </performer>
            <valueQuantity>
               <value value="356.6"/>
               <unit value="ug/L"/>
               <system value="http://unitsofmeasure.org"/>
               <code value="ug/L"/>
            </valueQuantity>
            <specimen>
               <reference value="urn:uuid:21dea01c-387c-4272-bb04-02e482797933"/>
            </specimen>
            <referenceRange>
               <low>
                  <value value="30"/>
                  <system value="http://unitsofmeasure.org"/>
                  <code value="ug/L"/>
               </low>
            </referenceRange>
            <referenceRange>
               <high>
                  <value value="400"/>
                  <system value="http://unitsofmeasure.org"/>
                  <code value="ug/L"/>
               </high>
            </referenceRange>
         </Observation>
      </resource>
   </entry>
   <entry>
      <fullUrl value="urn:uuid:8b1ccb08-2ff1-4fd4-ab9c-e4f117751d4a"/>
      <resource>
         <Observation>
            <id value="8b1ccb08-2ff1-4fd4-ab9c-e4f117751d4a"/>
            <meta>
               <profile value="http://hl7.eu/fhir/laboratory/StructureDefinition/Observation-resultslab-eu-lab"/>
            </meta>
            <status value="final"/>
            <category>
               <coding>
                  <system value="http://terminology.hl7.org/CodeSystem/observation-category"/>
                  <code value="laboratory"/>
               </coding>
            </category>
            <code>
               <coding>
                  <system value="http://loinc.org"/>
                  <code value="89579-7"/>
                  <display value="Troponin I.cardiac [Mass/volume] in Serum or Plasma by High sensitivity method"/>
               </coding>
               <text value="Troponin I.cardiac [Mass/volume] in Serum or Plasma by High sensitivity method"/>
            </code>
            <subject>
               <reference value="urn:uuid:71541cd5-9354-4c3c-bec5-48420400fcea"/>
            </subject>
            <effectiveDateTime value="2024-11-18"/>
            <performer>
               <display value="The Central European Lab"/>
            </performer>
            <valueQuantity>
               <value value="1.8"/>
               <unit value="pg/mL"/>
               <system value="http://unitsofmeasure.org"/>
               <code value="pg/mL"/>
            </valueQuantity>
            <specimen>
               <reference value="urn:uuid:21dea01c-387c-4272-bb04-02e482797933"/>
            </specimen>
            <referenceRange>
               <low>
                  <value value="0"/>
                  <system value="http://unitsofmeasure.org"/>
                  <code value="pg/mL"/>
               </low>
            </referenceRange>
            <referenceRange>
               <high>
                  <value value="19.9"/>
                  <system value="http://unitsofmeasure.org"/>
                  <code value="pg/mL"/>
               </high>
            </referenceRange>
         </Observation>
      </resource>
   </entry>
   <entry>
      <fullUrl value="urn:uuid:681cde7f-ed59-4ea1-96ef-1b5a58af3ed3"/>
      <resource>
         <Observation>
            <id value="681cde7f-ed59-4ea1-96ef-1b5a58af3ed3"/>
            <meta>
               <profile value="http://hl7.eu/fhir/laboratory/StructureDefinition/Observation-resultslab-eu-lab"/>
            </meta>
            <status value="final"/>
            <category>
               <coding>
                  <system value="http://terminology.hl7.org/CodeSystem/observation-category"/>
                  <code value="laboratory"/>
               </coding>
            </category>
            <code>
               <coding>
                  <system value="http://loinc.org"/>
                  <code value="14804-9"/>
                  <display value="Lactate dehydrogenase [Enzymatic activity/volume] in Serum or Plasma by Lactate to pyruvate reaction"/>
               </coding>
               <text value="Lactate dehydrogenase [Enzymatic activity/volume] in Serum or Plasma by Lactate to pyruvate reaction"/>
            </code>
            <subject>
               <reference value="urn:uuid:71541cd5-9354-4c3c-bec5-48420400fcea"/>
            </subject>
            <effectiveDateTime value="2024-11-18"/>
            <performer>
               <display value="The Central European Lab"/>
            </performer>
            <valueQuantity>
               <value value="239.4"/>
               <unit value="U/L"/>
               <system value="http://unitsofmeasure.org"/>
               <code value="U/L"/>
            </valueQuantity>
            <specimen>
               <reference value="urn:uuid:21dea01c-387c-4272-bb04-02e482797933"/>
            </specimen>
            <referenceRange>
               <low>
                  <value value="100"/>
                  <system value="http://unitsofmeasure.org"/>
                  <code value="U/L"/>
               </low>
            </referenceRange>
            <referenceRange>
               <high>
                  <value value="248"/>
                  <system value="http://unitsofmeasure.org"/>
                  <code value="U/L"/>
               </high>
            </referenceRange>
         </Observation>
      </resource>
   </entry>
   <entry>
      <fullUrl value="urn:uuid:eed88c9e-282b-4cce-aaa4-930a3d6ce7bf"/>
      <resource>
         <Observation>
            <id value="eed88c9e-282b-4cce-aaa4-930a3d6ce7bf"/>
            <meta>
               <profile value="http://hl7.eu/fhir/laboratory/StructureDefinition/Observation-resultslab-eu-lab"/>
            </meta>
            <status value="final"/>
            <category>
               <coding>
                  <system value="http://terminology.hl7.org/CodeSystem/observation-category"/>
                  <code value="laboratory"/>
               </coding>
            </category>
            <code>
               <coding>
                  <system value="http://loinc.org"/>
                  <code value="2157-6"/>
                  <display value="Creatine kinase [Enzymatic activity/volume] in Serum or Plasma"/>
               </coding>
               <text value="Creatine kinase [Enzymatic activity/volume] in Serum or Plasma"/>
            </code>
            <subject>
               <reference value="urn:uuid:71541cd5-9354-4c3c-bec5-48420400fcea"/>
            </subject>
            <effectiveDateTime value="2024-11-18"/>
            <performer>
               <display value="The Central European Lab"/>
            </performer>
            <valueQuantity>
               <value value="19.6"/>
               <unit value="U/L"/>
               <system value="http://unitsofmeasure.org"/>
               <code value="U/L"/>
            </valueQuantity>
            <interpretation>
               <coding>
                  <system value="http://terminology.hl7.org/CodeSystem/v3-ObservationInterpretation"/>
                  <code value="L"/>
                  <display value="Low"/>
               </coding>
            </interpretation>
            <specimen>
               <reference value="urn:uuid:21dea01c-387c-4272-bb04-02e482797933"/>
            </specimen>
            <referenceRange>
               <low>
                  <value value="38"/>
                  <system value="http://unitsofmeasure.org"/>
                  <code value="U/L"/>
               </low>
            </referenceRange>
            <referenceRange>
               <high>
                  <value value="215"/>
                  <system value="http://unitsofmeasure.org"/>
                  <code value="U/L"/>
               </high>
            </referenceRange>
         </Observation>
      </resource>
   </entry>
   <entry>
      <fullUrl value="urn:uuid:9b328e35-6c6f-4154-a647-4a620f789ab0"/>
      <resource>
         <Observation>
            <id value="9b328e35-6c6f-4154-a647-4a620f789ab0"/>
            <meta>
               <profile value="http://hl7.eu/fhir/laboratory/StructureDefinition/Observation-resultslab-eu-lab"/>
            </meta>
            <status value="final"/>
            <category>
               <coding>
                  <system value="http://terminology.hl7.org/CodeSystem/observation-category"/>
                  <code value="laboratory"/>
               </coding>
            </category>
            <code>
               <coding>
                  <system value="http://loinc.org"/>
                  <code value="1988-5"/>
                  <display value="C reactive protein [Mass/volume] in Serum or Plasma"/>
               </coding>
               <text value="C reactive protein [Mass/volume] in Serum or Plasma"/>
            </code>
            <subject>
               <reference value="urn:uuid:71541cd5-9354-4c3c-bec5-48420400fcea"/>
            </subject>
            <effectiveDateTime value="2024-11-18"/>
            <performer>
               <display value="The Central European Lab"/>
            </performer>
            <valueQuantity>
               <value value="8.6"/>
               <unit value="mg/L"/>
               <system value="http://unitsofmeasure.org"/>
               <code value="mg/L"/>
            </valueQuantity>
            <specimen>
               <reference value="urn:uuid:21dea01c-387c-4272-bb04-02e482797933"/>
            </specimen>
            <referenceRange>
               <low>
                  <value value="0"/>
                  <system value="http://unitsofmeasure.org"/>
                  <code value="mg/L"/>
               </low>
            </referenceRange>
            <referenceRange>
               <high>
                  <value value="10"/>
                  <system value="http://unitsofmeasure.org"/>
                  <code value="mg/L"/>
               </high>
            </referenceRange>
         </Observation>
      </resource>
   </entry>
   <entry>
      <fullUrl value="urn:uuid:80919029-52c9-4618-870a-81e75d3f06a0"/>
      <resource>
         <Observation>
            <id value="80919029-52c9-4618-870a-81e75d3f06a0"/>
            <meta>
               <profile value="http://hl7.eu/fhir/laboratory/StructureDefinition/Observation-resultslab-eu-lab"/>
            </meta>
            <status value="final"/>
            <category>
               <coding>
                  <system value="http://terminology.hl7.org/CodeSystem/observation-category"/>
                  <code value="laboratory"/>
               </coding>
            </category>
            <code>
               <coding>
                  <system value="http://loinc.org"/>
                  <code value="5902-2"/>
                  <display value="Prothrombin time (PT)"/>
               </coding>
               <text value="Prothrombin time (PT)"/>
            </code>
            <subject>
               <reference value="urn:uuid:71541cd5-9354-4c3c-bec5-48420400fcea"/>
            </subject>
            <effectiveDateTime value="2024-11-18"/>
            <performer>
               <display value="The Central European Lab"/>
            </performer>
            <valueQuantity>
               <value value="10.9"/>
               <unit value="s"/>
               <system value="http://unitsofmeasure.org"/>
               <code value="s"/>
            </valueQuantity>
            <interpretation>
               <coding>
                  <system value="http://terminology.hl7.org/CodeSystem/v3-ObservationInterpretation"/>
                  <code value="L"/>
                  <display value="Low"/>
               </coding>
            </interpretation>
            <specimen>
               <reference value="urn:uuid:e1e360e4-386b-4b46-ae52-cf7488cb3099"/>
            </specimen>
            <referenceRange>
               <low>
                  <value value="11"/>
                  <system value="http://unitsofmeasure.org"/>
                  <code value="s"/>
               </low>
            </referenceRange>
            <referenceRange>
               <high>
                  <value value="13.5"/>
                  <system value="http://unitsofmeasure.org"/>
                  <code value="s"/>
               </high>
            </referenceRange>
         </Observation>
      </resource>
   </entry>
   <entry>
      <fullUrl value="urn:uuid:8879e970-74bb-4ed1-b14a-d7c40d12ab09"/>
      <resource>
         <Observation>
            <id value="8879e970-74bb-4ed1-b14a-d7c40d12ab09"/>
            <meta>
               <profile value="http://hl7.eu/fhir/laboratory/StructureDefinition/Observation-resultslab-eu-lab"/>
            </meta>
            <status value="final"/>
            <category>
               <coding>
                  <system value="http://terminology.hl7.org/CodeSystem/observation-category"/>
                  <code value="laboratory"/>
               </coding>
            </category>
            <code>
               <coding>
                  <system value="http://loinc.org"/>
                  <code value="6301-6"/>
                  <display value="INR in Platelet poor plasma by Coagulation assay"/>
               </coding>
               <text value="INR in Platelet poor plasma by Coagulation assay"/>
            </code>
            <subject>
               <reference value="urn:uuid:71541cd5-9354-4c3c-bec5-48420400fcea"/>
            </subject>
            <effectiveDateTime value="2024-11-18"/>
            <performer>
               <display value="The Central European Lab"/>
            </performer>
            <valueQuantity>
               <value value="1.2"/>
               <unit value="{INR}"/>
               <system value="http://unitsofmeasure.org"/>
               <code value="{INR}"/>
            </valueQuantity>
            <specimen>
               <reference value="urn:uuid:e1e360e4-386b-4b46-ae52-cf7488cb3099"/>
            </specimen>
            <referenceRange>
               <low>
                  <value value="0.9"/>
                  <system value="http://unitsofmeasure.org"/>
                  <code value="{INR}"/>
               </low>
            </referenceRange>
            <referenceRange>
               <high>
                  <value value="2"/>
                  <system value="http://unitsofmeasure.org"/>
                  <code value="{INR}"/>
               </high>
            </referenceRange>
         </Observation>
      </resource>
   </entry>
   <entry>
      <fullUrl value="urn:uuid:e39791cd-377e-4417-af43-b20eb8e78f43"/>
      <resource>
         <Observation>
            <id value="e39791cd-377e-4417-af43-b20eb8e78f43"/>
            <meta>
               <profile value="http://hl7.eu/fhir/laboratory/StructureDefinition/Observation-resultslab-eu-lab"/>
            </meta>
            <status value="final"/>
            <category>
               <coding>
                  <system value="http://terminology.hl7.org/CodeSystem/observation-category"/>
                  <code value="laboratory"/>
               </coding>
            </category>
            <code>
               <coding>
                  <system value="http://loinc.org"/>
                  <code value="33959-8"/>
                  <display value="Procalcitonin [Mass/volume] in Serum or Plasma"/>
               </coding>
               <text value="Procalcitonin [Mass/volume] in Serum or Plasma"/>
            </code>
            <subject>
               <reference value="urn:uuid:71541cd5-9354-4c3c-bec5-48420400fcea"/>
            </subject>
            <effectiveDateTime value="2024-11-18"/>
            <performer>
               <display value="The Central European Lab"/>
            </performer>
            <valueQuantity>
               <value value="0"/>
               <unit value="ng/mL"/>
               <system value="http://unitsofmeasure.org"/>
               <code value="ng/mL"/>
            </valueQuantity>
            <specimen>
               <reference value="urn:uuid:21dea01c-387c-4272-bb04-02e482797933"/>
            </specimen>
            <referenceRange>
               <low>
                  <value value="0"/>
                  <system value="http://unitsofmeasure.org"/>
                  <code value="ng/mL"/>
               </low>
            </referenceRange>
            <referenceRange>
               <high>
                  <value value="0.5"/>
                  <system value="http://unitsofmeasure.org"/>
                  <code value="ng/mL"/>
               </high>
            </referenceRange>
         </Observation>
      </resource>
   </entry>
</Bundle>
