{
  "resourceType": "Bundle",
  "id": "Instance-Bundle-e9c159f7-4cb3-491a-a583-4d59afad5de2",
  "meta": {
    "profile": [
      "http://hl7.eu/fhir/laboratory/StructureDefinition/Bundle-eu-lab"
    ]
  },
  "identifier": {
    "assigner": {
      "display": "HL7 Europe"
    },
    "system": "urn:oid:2.16.840.1.113883.2.51.999",
    "value": "e604a29a-be7e-4efe-9b66-023705ae17e2"
  },
  "entry": [
    {
      "fullUrl": "urn:uuid:ccb46604-4873-45c2-94b3-3d580b145cc9",
      "resource": {
        "resourceType": "Composition",
        "id": "ccb46604-4873-45c2-94b3-3d580b145cc9",
        "meta": {
          "profile": [
            "http://hl7.eu/fhir/laboratory/StructureDefinition/Composition-eu-lab"
          ]
        },
        "identifier": {
          "assigner": {
            "display": "HL7 Europe"
          },
          "system": "urn:oid:2.16.840.1.113883.2.51.999",
          "value": "36e1e0a1-1358-4c41-b75c-c298d7c5028f"
        },
        "author": [
          {
            "reference": "urn:uuid:56f5f17e-ee0e-40e8-8b7e-6f56aa70b3bc"
          }
        ],
        "category": [
          {
            "coding": [
              {
                "code": "26436-6",
                "system": "http://loinc.org",
                "display": "Laboratory studies (set)"
              }
            ]
          }
        ],
        "type": {
          "text": "Laboratory Report"
        },
        "section": [
          {
            "code": {
              "coding": [
                {
                  "code": "26436-6",
                  "system": "http://loinc.org",
                  "display": "Laboratory studies (set)"
                }
              ],
              "text": "Laboratory studies"
            },
            "section": [
              {
                "code": {
                  "coding": [
                    {
                      "code": "18719-5",
                      "system": "http://loinc.org",
                      "display": "Chemistry studies (set)"
                    }
                  ],
                  "text": "Chemistry"
                },
                "entry": [
                  {
                    "reference": "urn:uuid:ba8554a2-56c8-46e9-9275-596a59c5a801"
                  }
                ],
                "text": {
                  "status": "generated",
                  "div": "<div xmlns=\"http://www.w3.org/1999/xhtml\"><h3 id=\"section-1\">Chemistry</h3><table class=\"hl7__eu__lab__report\"><thead><tr><th>Test</th><th>18 Nov 2024</th><th>Reference Range</th><th>Unit</th></tr></thead><tbody><tr><td>Oxygen saturation in Arterial blood</td><td><strong>87.4 L</strong></td><td>95 - 100</td><td>%</td></tr></tbody></table></div>"
                },
                "title": "Chemistry"
              },
              {
                "code": {
                  "coding": [
                    {
                      "code": "18725-2",
                      "system": "http://loinc.org",
                      "display": "Microbiology studies"
                    }
                  ],
                  "text": "Microbiology"
                },
                "entry": [
                  {
                    "reference": "urn:uuid:d1a7bbf7-040e-468d-a2eb-bc3ff20b5a39"
                  },
                  {
                    "reference": "urn:uuid:48ad529c-04bc-4d69-988c-65c88eecceb2"
                  },
                  {
                    "reference": "urn:uuid:477aa47b-f971-4399-9900-c3857dd63c69"
                  },
                  {
                    "reference": "urn:uuid:49f21514-2dd7-4635-bed0-1369d855ca75"
                  },
                  {
                    "reference": "urn:uuid:d1b54704-f970-48f8-917e-55778a30f760"
                  },
                  {
                    "reference": "urn:uuid:96c1afb2-8e8f-4d54-a504-76f200461da5"
                  },
                  {
                    "reference": "urn:uuid:183c7209-4a27-45a3-aafd-020ebae27931"
                  },
                  {
                    "reference": "urn:uuid:3736c593-18b0-4b7b-b397-4415df95aa87"
                  },
                  {
                    "reference": "urn:uuid:b2185878-0194-44b2-ba0b-1f30d7f20565"
                  }
                ],
                "text": {
                  "status": "generated",
                  "div": "<div xmlns=\"http://www.w3.org/1999/xhtml\"><h3 id=\"section-2\">Microbiology</h3><table class=\"hl7__eu__lab__report\"><thead><tr><th>Test</th><th>18 Nov 2024</th><th>Reference Range</th><th>Unit</th></tr></thead><tbody><tr><td>Influenza virus A RNA [Presence] in Respiratory system specimen by NAA with probe detection</td><td>Negative</td><td></td><td></td></tr><tr><td>Influenza virus B RNA [Presence] in Respiratory system specimen by NAA with probe detection</td><td>Negative</td><td></td><td></td></tr><tr><td>Respiratory syncytial virus RNA [Presence] in Respiratory system specimen by NAA with probe detection</td><td>Negative</td><td></td><td></td></tr><tr><td>Parainfluenza virus 1 RNA [Presence] in Respiratory system specimen by NAA with probe detection</td><td>Negative</td><td></td><td></td></tr><tr><td>Parainfluenza virus 2 RNA [Presence] in Respiratory system specimen by NAA with probe detection</td><td>Negative</td><td></td><td></td></tr><tr><td>Parainfluenza virus 3 RNA [Presence] in Respiratory system specimen by NAA with probe detection</td><td>Negative</td><td></td><td></td></tr><tr><td>Rhinovirus RNA [Presence] in Respiratory system specimen by NAA with probe detection</td><td>Negative</td><td></td><td></td></tr><tr><td>Human metapneumovirus RNA [Presence] in Respiratory system specimen by NAA with probe detection</td><td>Negative</td><td></td><td></td></tr><tr><td>Adenovirus A+B+C+D+E DNA [Presence] in Respiratory system specimen by NAA with probe detection</td><td>Negative</td><td></td><td></td></tr></tbody></table></div>"
                },
                "title": "Microbiology"
              },
              {
                "code": {
                  "coding": [
                    {
                      "code": "18725-2",
                      "system": "http://loinc.org",
                      "display": "Microbiology studies"
                    }
                  ],
                  "text": "Microbiology Panel"
                },
                "entry": [
                  {
                    "reference": "urn:uuid:7ddf8a5d-1698-456b-822a-3b890b4a55fb"
                  }
                ],
                "text": {
                  "status": "generated",
                  "div": "<div xmlns=\"http://www.w3.org/1999/xhtml\"><h3 id=\"section-3\">Microbiology Panel</h3><table class=\"hl7__eu__lab__report\"><thead><tr><th>Test</th><th>18 Nov 2024</th><th>Reference Range</th><th>Unit</th></tr></thead><tbody><tr><td>SARS-CoV-2 (COVID-19) RNA panel - Respiratory system specimen by NAA with probe detection</td><td>Detected</td><td></td><td></td></tr></tbody></table></div>"
                },
                "title": "Microbiology Panel"
              }
            ],
            "title": "Laboratory Report"
          }
        ],
        "status": "final",
        "subject": {
          "reference": "urn:uuid:5176a3ef-e71f-4683-833a-a3d8184d1958"
        },
        "date": "2024-11-19T18:40:54Z",
        "title": "Laboratory Report",
        "confidentiality": "N"
      }
    },
    {
      "fullUrl": "urn:uuid:8c9471c4-8c69-492a-bc04-382ef53b05ac",
      "resource": {
        "resourceType": "DiagnosticReport",
        "id": "8c9471c4-8c69-492a-bc04-382ef53b05ac",
        "meta": {
          "profile": [
            "http://hl7.eu/fhir/laboratory/StructureDefinition/DiagnosticReport-eu-lab"
          ]
        },
        "identifier": [
          {
            "assigner": {
              "display": "HL7 Europe"
            },
            "system": "urn:oid:2.16.840.1.113883.2.51.999",
            "value": "1673f86f-fd9a-4968-8cfa-24df172b5180"
          }
        ],
        "extension": [
          {
            "url": "http://hl7.org/fhir/5.0/StructureDefinition/extension-DiagnosticReport.composition",
            "valueReference": {
              "reference": "urn:uuid:ccb46604-4873-45c2-94b3-3d580b145cc9"
            }
          }
        ],
        "category": [
          {
            "coding": [
              {
                "code": "18719-5",
                "system": "http://loinc.org",
                "display": "Chemistry studies (set)"
              }
            ]
          }
        ],
        "specimen": [
          {
            "reference": "urn:uuid:8d992be1-5cc4-4941-ac9e-ad2e8264b7e5"
          },
          {
            "reference": "urn:uuid:7d2413f6-4856-44b9-a4e3-540560cd5970"
          }
        ],
        "result": [
          {
            "reference": "urn:uuid:ba8554a2-56c8-46e9-9275-596a59c5a801"
          },
          {
            "reference": "urn:uuid:d1a7bbf7-040e-468d-a2eb-bc3ff20b5a39"
          },
          {
            "reference": "urn:uuid:48ad529c-04bc-4d69-988c-65c88eecceb2"
          },
          {
            "reference": "urn:uuid:477aa47b-f971-4399-9900-c3857dd63c69"
          },
          {
            "reference": "urn:uuid:49f21514-2dd7-4635-bed0-1369d855ca75"
          },
          {
            "reference": "urn:uuid:d1b54704-f970-48f8-917e-55778a30f760"
          },
          {
            "reference": "urn:uuid:96c1afb2-8e8f-4d54-a504-76f200461da5"
          },
          {
            "reference": "urn:uuid:183c7209-4a27-45a3-aafd-020ebae27931"
          },
          {
            "reference": "urn:uuid:3736c593-18b0-4b7b-b397-4415df95aa87"
          },
          {
            "reference": "urn:uuid:b2185878-0194-44b2-ba0b-1f30d7f20565"
          },
          {
            "reference": "urn:uuid:7ddf8a5d-1698-456b-822a-3b890b4a55fb"
          }
        ],
        "status": "registered",
        "code": {
          "coding": [
            {
              "code": "11502-2",
              "system": "http://loinc.org",
              "display": "Laboratory report"
            }
          ]
        },
        "subject": {
          "reference": "urn:uuid:5176a3ef-e71f-4683-833a-a3d8184d1958"
        }
      }
    },
    {
      "fullUrl": "urn:uuid:5176a3ef-e71f-4683-833a-a3d8184d1958",
      "resource": {
        "resourceType": "Patient",
        "id": "5176a3ef-e71f-4683-833a-a3d8184d1958",
        "meta": {
          "profile": [
            "http://hl7.eu/fhir/laboratory/StructureDefinition/Patient-eu-lab"
          ]
        },
        "identifier": [
          {
            "type": {
              "coding": [
                {
                  "code": "NI",
                  "system": "http://terminology.hl7.org/CodeSystem/v2-0203"
                }
              ]
            },
            "system": "http://ec.europa.eu/identifier/eci",
            "value": "2347-406534-1"
          },
          {
            "type": {
              "coding": [
                {
                  "code": "MR",
                  "system": "http://terminology.hl7.org/CodeSystem/v2-0203"
                }
              ]
            },
            "system": "http://local.setting.eu/identifier",
            "value": "05463347-f478-411f-9238-4e876a2793e0"
          }
        ],
        "name": [
          {
            "given": [
              "Ruaraidh"
            ],
            "family": "Allard",
            "text": "Ruaraidh Allard"
          }
        ],
        "address": [
          {
            "line": [
              "R Patrão Caramelho 76"
            ],
            "use": "home",
            "type": "physical",
            "city": "Malta",
            "postalCode": "4485-463",
            "country": "Portugal"
          }
        ],
        "telecom": [
          {
            "system": "phone",
            "value": "+351 21 221 869 1166"
          }
        ],
        "gender": "male",
        "birthDate": "2003-11-02"
      }
    },
    {
      "fullUrl": "urn:uuid:8d4b2b4c-fb0d-47d5-8319-5a7bef0cd76e",
      "resource": {
        "resourceType": "ServiceRequest",
        "id": "8d4b2b4c-fb0d-47d5-8319-5a7bef0cd76e",
        "meta": {
          "profile": [
            "http://hl7.eu/fhir/laboratory/StructureDefinition/ServiceRequest-eu-lab"
          ]
        },
        "identifier": [
          {
            "system": "http://example.org",
            "value": "9ebd0a93-5aec-47c2-bd0e-44b402db3cc1"
          }
        ],
        "specimen": [
          {
            "reference": "urn:uuid:8d992be1-5cc4-4941-ac9e-ad2e8264b7e5"
          },
          {
            "reference": "urn:uuid:7d2413f6-4856-44b9-a4e3-540560cd5970"
          }
        ],
        "status": "active",
        "intent": "order",
        "code": {
          "coding": [
            {
              "code": "108252007",
              "system": "http://snomed.info/sct",
              "display": "Laboratory procedure"
            }
          ]
        },
        "subject": {
          "reference": "urn:uuid:5176a3ef-e71f-4683-833a-a3d8184d1958"
        },
        "requester": {
          "reference": "urn:uuid:6009e819-e8f2-454a-b807-3768ba469f85"
        }
      }
    },
    {
      "fullUrl": "urn:uuid:6009e819-e8f2-454a-b807-3768ba469f85",
      "resource": {
        "resourceType": "PractitionerRole",
        "id": "6009e819-e8f2-454a-b807-3768ba469f85",
        "meta": {
          "profile": [
            "http://hl7.eu/fhir/laboratory/StructureDefinition/PractitionerRole-eu-lab"
          ]
        },
        "organization": {
          "reference": "urn:uuid:4b2ee6c7-d7ab-4b12-9162-d6ec3f71c7f8"
        }
      }
    },
    {
      "fullUrl": "urn:uuid:4b2ee6c7-d7ab-4b12-9162-d6ec3f71c7f8",
      "resource": {
        "resourceType": "Organization",
        "id": "4b2ee6c7-d7ab-4b12-9162-d6ec3f71c7f8",
        "meta": {
          "profile": [
            "http://hl7.org/fhir/uv/ips/StructureDefinition/Organization-uv-ips"
          ]
        },
        "identifier": [
          {
            "assigner": {
              "display": "HL7 Europe"
            },
            "system": "urn:oid:2.16.840.1.113883.2.51.999",
            "value": "8e757975-2a94-4c09-9d1f-7164c427d27f"
          }
        ],
        "address": [
          {
            "city": "Baião",
            "postalCode": "4640-147",
            "country": "pt"
          }
        ],
        "name": "Centro de Saúde de Baião"
      }
    },
    {
      "fullUrl": "urn:uuid:56f5f17e-ee0e-40e8-8b7e-6f56aa70b3bc",
      "resource": {
        "resourceType": "PractitionerRole",
        "id": "56f5f17e-ee0e-40e8-8b7e-6f56aa70b3bc",
        "meta": {
          "profile": [
            "http://hl7.eu/fhir/laboratory/StructureDefinition/PractitionerRole-eu-lab"
          ]
        },
        "practitioner": {
          "reference": "urn:uuid:a6ff40a2-6123-45b7-938c-528600fa555a"
        }
      }
    },
    {
      "fullUrl": "urn:uuid:a6ff40a2-6123-45b7-938c-528600fa555a",
      "resource": {
        "resourceType": "Practitioner",
        "id": "a6ff40a2-6123-45b7-938c-528600fa555a",
        "meta": {
          "profile": [
            "http://hl7.eu/fhir/laboratory/StructureDefinition/Practitioner-eu-lab"
          ]
        },
        "identifier": [
          {
            "assigner": {
              "display": "HL7 Europe"
            },
            "system": "urn:oid:2.16.840.1.113883.2.51.999",
            "value": "4926c3f8-ea1e-431b-9056-6b0820a139fd"
          }
        ],
        "name": [
          {
            "prefix": [
              "dr"
            ],
            "given": [
              "Ex"
            ],
            "family": "Ample"
          }
        ],
        "address": [
          {
            "line": [
              "Boulevard du Jardin Botanique 32"
            ],
            "city": "Brussels",
            "postalCode": "1000"
          }
        ]
      }
    },
    {
      "fullUrl": "urn:uuid:8d992be1-5cc4-4941-ac9e-ad2e8264b7e5",
      "resource": {
        "resourceType": "Specimen",
        "id": "8d992be1-5cc4-4941-ac9e-ad2e8264b7e5",
        "meta": {
          "profile": [
            "http://hl7.eu/fhir/laboratory/StructureDefinition/Specimen-eu-lab"
          ]
        },
        "collection": {
          "collectedDateTime": "2024-11-18"
        },
        "status": "available",
        "type": {
          "coding": [
            {
              "code": "122552005",
              "system": "http://snomed.info/sct",
              "display": "Arterial blood specimen (specimen)"
            }
          ]
        }
      }
    },
    {
      "fullUrl": "urn:uuid:7d2413f6-4856-44b9-a4e3-540560cd5970",
      "resource": {
        "resourceType": "Specimen",
        "id": "7d2413f6-4856-44b9-a4e3-540560cd5970",
        "meta": {
          "profile": [
            "http://hl7.eu/fhir/laboratory/StructureDefinition/Specimen-eu-lab"
          ]
        },
        "collection": {
          "collectedDateTime": "2024-11-18"
        },
        "status": "available",
        "type": {
          "coding": [
            {
              "code": "258603007",
              "system": "http://snomed.info/sct",
              "display": "Respiratory specimen (specimen)"
            }
          ]
        }
      }
    },
    {
      "fullUrl": "urn:uuid:ba8554a2-56c8-46e9-9275-596a59c5a801",
      "resource": {
        "resourceType": "Observation",
        "id": "ba8554a2-56c8-46e9-9275-596a59c5a801",
        "meta": {
          "profile": [
            "http://hl7.eu/fhir/laboratory/StructureDefinition/Observation-resultslab-eu-lab"
          ]
        },
        "performer": [
          {
            "display": "The Central European Lab"
          }
        ],
        "category": [
          {
            "coding": [
              {
                "code": "laboratory",
                "system": "http://terminology.hl7.org/CodeSystem/observation-category"
              }
            ]
          }
        ],
        "code": {
          "coding": [
            {
              "code": "2708-6",
              "system": "http://loinc.org",
              "display": "Oxygen saturation in Arterial blood"
            }
          ],
          "text": "Oxygen saturation in Arterial blood"
        },
        "valueQuantity": {
          "system": "http://unitsofmeasure.org",
          "value": 87.4,
          "unit": "%",
          "code": "%"
        },
        "referenceRange": [
          {
            "low": {
              "value": 95,
              "code": "%",
              "system": "http://unitsofmeasure.org"
            }
          },
          {
            "high": {
              "value": 100,
              "code": "%",
              "system": "http://unitsofmeasure.org"
            }
          }
        ],
        "interpretation": [
          {
            "coding": [
              {
                "code": "L",
                "system": "http://terminology.hl7.org/CodeSystem/v3-ObservationInterpretation",
                "display": "Low"
              }
            ]
          }
        ],
        "status": "final",
        "subject": {
          "reference": "urn:uuid:5176a3ef-e71f-4683-833a-a3d8184d1958"
        },
        "effectiveDateTime": "2024-11-18",
        "specimen": {
          "reference": "urn:uuid:8d992be1-5cc4-4941-ac9e-ad2e8264b7e5"
        }
      }
    },
    {
      "fullUrl": "urn:uuid:d1a7bbf7-040e-468d-a2eb-bc3ff20b5a39",
      "resource": {
        "resourceType": "Observation",
        "id": "d1a7bbf7-040e-468d-a2eb-bc3ff20b5a39",
        "meta": {
          "profile": [
            "http://hl7.eu/fhir/laboratory/StructureDefinition/Observation-resultslab-eu-lab"
          ]
        },
        "performer": [
          {
            "display": "The Central European Lab"
          }
        ],
        "category": [
          {
            "coding": [
              {
                "code": "laboratory",
                "system": "http://terminology.hl7.org/CodeSystem/observation-category"
              }
            ]
          }
        ],
        "code": {
          "coding": [
            {
              "code": "92142-9",
              "system": "http://loinc.org",
              "display": "Influenza virus A RNA [Presence] in Respiratory system specimen by NAA with probe detection"
            }
          ],
          "text": "Influenza virus A RNA [Presence] in Respiratory system specimen by NAA with probe detection"
        },
        "status": "final",
        "subject": {
          "reference": "urn:uuid:5176a3ef-e71f-4683-833a-a3d8184d1958"
        },
        "effectiveDateTime": "2024-11-18",
        "valueCodeableConcept": {
          "coding": [
            {
              "code": "260385009",
              "system": "http://snomed.info/sct",
              "display": "Negative"
            }
          ]
        },
        "specimen": {
          "reference": "urn:uuid:7d2413f6-4856-44b9-a4e3-540560cd5970"
        }
      }
    },
    {
      "fullUrl": "urn:uuid:48ad529c-04bc-4d69-988c-65c88eecceb2",
      "resource": {
        "resourceType": "Observation",
        "id": "48ad529c-04bc-4d69-988c-65c88eecceb2",
        "meta": {
          "profile": [
            "http://hl7.eu/fhir/laboratory/StructureDefinition/Observation-resultslab-eu-lab"
          ]
        },
        "performer": [
          {
            "display": "The Central European Lab"
          }
        ],
        "category": [
          {
            "coding": [
              {
                "code": "laboratory",
                "system": "http://terminology.hl7.org/CodeSystem/observation-category"
              }
            ]
          }
        ],
        "code": {
          "coding": [
            {
              "code": "92141-1",
              "system": "http://loinc.org",
              "display": "Influenza virus B RNA [Presence] in Respiratory system specimen by NAA with probe detection"
            }
          ],
          "text": "Influenza virus B RNA [Presence] in Respiratory system specimen by NAA with probe detection"
        },
        "status": "final",
        "subject": {
          "reference": "urn:uuid:5176a3ef-e71f-4683-833a-a3d8184d1958"
        },
        "effectiveDateTime": "2024-11-18",
        "valueCodeableConcept": {
          "coding": [
            {
              "code": "260385009",
              "system": "http://snomed.info/sct",
              "display": "Negative"
            }
          ]
        },
        "specimen": {
          "reference": "urn:uuid:7d2413f6-4856-44b9-a4e3-540560cd5970"
        }
      }
    },
    {
      "fullUrl": "urn:uuid:477aa47b-f971-4399-9900-c3857dd63c69",
      "resource": {
        "resourceType": "Observation",
        "id": "477aa47b-f971-4399-9900-c3857dd63c69",
        "meta": {
          "profile": [
            "http://hl7.eu/fhir/laboratory/StructureDefinition/Observation-resultslab-eu-lab"
          ]
        },
        "performer": [
          {
            "display": "The Central European Lab"
          }
        ],
        "category": [
          {
            "coding": [
              {
                "code": "laboratory",
                "system": "http://terminology.hl7.org/CodeSystem/observation-category"
              }
            ]
          }
        ],
        "code": {
          "coding": [
            {
              "code": "92131-2",
              "system": "http://loinc.org",
              "display": "Respiratory syncytial virus RNA [Presence] in Respiratory system specimen by NAA with probe detection"
            }
          ],
          "text": "Respiratory syncytial virus RNA [Presence] in Respiratory system specimen by NAA with probe detection"
        },
        "status": "final",
        "subject": {
          "reference": "urn:uuid:5176a3ef-e71f-4683-833a-a3d8184d1958"
        },
        "effectiveDateTime": "2024-11-18",
        "valueCodeableConcept": {
          "coding": [
            {
              "code": "260385009",
              "system": "http://snomed.info/sct",
              "display": "Negative"
            }
          ]
        },
        "specimen": {
          "reference": "urn:uuid:7d2413f6-4856-44b9-a4e3-540560cd5970"
        }
      }
    },
    {
      "fullUrl": "urn:uuid:49f21514-2dd7-4635-bed0-1369d855ca75",
      "resource": {
        "resourceType": "Observation",
        "id": "49f21514-2dd7-4635-bed0-1369d855ca75",
        "meta": {
          "profile": [
            "http://hl7.eu/fhir/laboratory/StructureDefinition/Observation-resultslab-eu-lab"
          ]
        },
        "performer": [
          {
            "display": "The Central European Lab"
          }
        ],
        "category": [
          {
            "coding": [
              {
                "code": "laboratory",
                "system": "http://terminology.hl7.org/CodeSystem/observation-category"
              }
            ]
          }
        ],
        "code": {
          "coding": [
            {
              "code": "92140-3",
              "system": "http://loinc.org",
              "display": "Parainfluenza virus 1 RNA [Presence] in Respiratory system specimen by NAA with probe detection"
            }
          ],
          "text": "Parainfluenza virus 1 RNA [Presence] in Respiratory system specimen by NAA with probe detection"
        },
        "status": "final",
        "subject": {
          "reference": "urn:uuid:5176a3ef-e71f-4683-833a-a3d8184d1958"
        },
        "effectiveDateTime": "2024-11-18",
        "valueCodeableConcept": {
          "coding": [
            {
              "code": "260385009",
              "system": "http://snomed.info/sct",
              "display": "Negative"
            }
          ]
        },
        "specimen": {
          "reference": "urn:uuid:7d2413f6-4856-44b9-a4e3-540560cd5970"
        }
      }
    },
    {
      "fullUrl": "urn:uuid:d1b54704-f970-48f8-917e-55778a30f760",
      "resource": {
        "resourceType": "Observation",
        "id": "d1b54704-f970-48f8-917e-55778a30f760",
        "meta": {
          "profile": [
            "http://hl7.eu/fhir/laboratory/StructureDefinition/Observation-resultslab-eu-lab"
          ]
        },
        "performer": [
          {
            "display": "The Central European Lab"
          }
        ],
        "category": [
          {
            "coding": [
              {
                "code": "laboratory",
                "system": "http://terminology.hl7.org/CodeSystem/observation-category"
              }
            ]
          }
        ],
        "code": {
          "coding": [
            {
              "code": "92139-5",
              "system": "http://loinc.org",
              "display": "Parainfluenza virus 2 RNA [Presence] in Respiratory system specimen by NAA with probe detection"
            }
          ],
          "text": "Parainfluenza virus 2 RNA [Presence] in Respiratory system specimen by NAA with probe detection"
        },
        "status": "final",
        "subject": {
          "reference": "urn:uuid:5176a3ef-e71f-4683-833a-a3d8184d1958"
        },
        "effectiveDateTime": "2024-11-18",
        "valueCodeableConcept": {
          "coding": [
            {
              "code": "260385009",
              "system": "http://snomed.info/sct",
              "display": "Negative"
            }
          ]
        },
        "specimen": {
          "reference": "urn:uuid:7d2413f6-4856-44b9-a4e3-540560cd5970"
        }
      }
    },
    {
      "fullUrl": "urn:uuid:96c1afb2-8e8f-4d54-a504-76f200461da5",
      "resource": {
        "resourceType": "Observation",
        "id": "96c1afb2-8e8f-4d54-a504-76f200461da5",
        "meta": {
          "profile": [
            "http://hl7.eu/fhir/laboratory/StructureDefinition/Observation-resultslab-eu-lab"
          ]
        },
        "performer": [
          {
            "display": "The Central European Lab"
          }
        ],
        "category": [
          {
            "coding": [
              {
                "code": "laboratory",
                "system": "http://terminology.hl7.org/CodeSystem/observation-category"
              }
            ]
          }
        ],
        "code": {
          "coding": [
            {
              "code": "92138-7",
              "system": "http://loinc.org",
              "display": "Parainfluenza virus 3 RNA [Presence] in Respiratory system specimen by NAA with probe detection"
            }
          ],
          "text": "Parainfluenza virus 3 RNA [Presence] in Respiratory system specimen by NAA with probe detection"
        },
        "status": "final",
        "subject": {
          "reference": "urn:uuid:5176a3ef-e71f-4683-833a-a3d8184d1958"
        },
        "effectiveDateTime": "2024-11-18",
        "valueCodeableConcept": {
          "coding": [
            {
              "code": "260385009",
              "system": "http://snomed.info/sct",
              "display": "Negative"
            }
          ]
        },
        "specimen": {
          "reference": "urn:uuid:7d2413f6-4856-44b9-a4e3-540560cd5970"
        }
      }
    },
    {
      "fullUrl": "urn:uuid:183c7209-4a27-45a3-aafd-020ebae27931",
      "resource": {
        "resourceType": "Observation",
        "id": "183c7209-4a27-45a3-aafd-020ebae27931",
        "meta": {
          "profile": [
            "http://hl7.eu/fhir/laboratory/StructureDefinition/Observation-resultslab-eu-lab"
          ]
        },
        "performer": [
          {
            "display": "The Central European Lab"
          }
        ],
        "category": [
          {
            "coding": [
              {
                "code": "laboratory",
                "system": "http://terminology.hl7.org/CodeSystem/observation-category"
              }
            ]
          }
        ],
        "code": {
          "coding": [
            {
              "code": "92130-4",
              "system": "http://loinc.org",
              "display": "Rhinovirus RNA [Presence] in Respiratory system specimen by NAA with probe detection"
            }
          ],
          "text": "Rhinovirus RNA [Presence] in Respiratory system specimen by NAA with probe detection"
        },
        "status": "final",
        "subject": {
          "reference": "urn:uuid:5176a3ef-e71f-4683-833a-a3d8184d1958"
        },
        "effectiveDateTime": "2024-11-18",
        "valueCodeableConcept": {
          "coding": [
            {
              "code": "260385009",
              "system": "http://snomed.info/sct",
              "display": "Negative"
            }
          ]
        },
        "specimen": {
          "reference": "urn:uuid:7d2413f6-4856-44b9-a4e3-540560cd5970"
        }
      }
    },
    {
      "fullUrl": "urn:uuid:3736c593-18b0-4b7b-b397-4415df95aa87",
      "resource": {
        "resourceType": "Observation",
        "id": "3736c593-18b0-4b7b-b397-4415df95aa87",
        "meta": {
          "profile": [
            "http://hl7.eu/fhir/laboratory/StructureDefinition/Observation-resultslab-eu-lab"
          ]
        },
        "performer": [
          {
            "display": "The Central European Lab"
          }
        ],
        "category": [
          {
            "coding": [
              {
                "code": "laboratory",
                "system": "http://terminology.hl7.org/CodeSystem/observation-category"
              }
            ]
          }
        ],
        "code": {
          "coding": [
            {
              "code": "92134-6",
              "system": "http://loinc.org",
              "display": "Human metapneumovirus RNA [Presence] in Respiratory system specimen by NAA with probe detection"
            }
          ],
          "text": "Human metapneumovirus RNA [Presence] in Respiratory system specimen by NAA with probe detection"
        },
        "status": "final",
        "subject": {
          "reference": "urn:uuid:5176a3ef-e71f-4683-833a-a3d8184d1958"
        },
        "effectiveDateTime": "2024-11-18",
        "valueCodeableConcept": {
          "coding": [
            {
              "code": "260385009",
              "system": "http://snomed.info/sct",
              "display": "Negative"
            }
          ]
        },
        "specimen": {
          "reference": "urn:uuid:7d2413f6-4856-44b9-a4e3-540560cd5970"
        }
      }
    },
    {
      "fullUrl": "urn:uuid:b2185878-0194-44b2-ba0b-1f30d7f20565",
      "resource": {
        "resourceType": "Observation",
        "id": "b2185878-0194-44b2-ba0b-1f30d7f20565",
        "meta": {
          "profile": [
            "http://hl7.eu/fhir/laboratory/StructureDefinition/Observation-resultslab-eu-lab"
          ]
        },
        "performer": [
          {
            "display": "The Central European Lab"
          }
        ],
        "category": [
          {
            "coding": [
              {
                "code": "laboratory",
                "system": "http://terminology.hl7.org/CodeSystem/observation-category"
              }
            ]
          }
        ],
        "code": {
          "coding": [
            {
              "code": "94040-3",
              "system": "http://loinc.org",
              "display": "Adenovirus A+B+C+D+E DNA [Presence] in Respiratory system specimen by NAA with probe detection"
            }
          ],
          "text": "Adenovirus A+B+C+D+E DNA [Presence] in Respiratory system specimen by NAA with probe detection"
        },
        "status": "final",
        "subject": {
          "reference": "urn:uuid:5176a3ef-e71f-4683-833a-a3d8184d1958"
        },
        "effectiveDateTime": "2024-11-18",
        "valueCodeableConcept": {
          "coding": [
            {
              "code": "260385009",
              "system": "http://snomed.info/sct",
              "display": "Negative"
            }
          ]
        },
        "specimen": {
          "reference": "urn:uuid:7d2413f6-4856-44b9-a4e3-540560cd5970"
        }
      }
    },
    {
      "fullUrl": "urn:uuid:7ddf8a5d-1698-456b-822a-3b890b4a55fb",
      "resource": {
        "resourceType": "Observation",
        "id": "7ddf8a5d-1698-456b-822a-3b890b4a55fb",
        "meta": {
          "profile": [
            "http://hl7.eu/fhir/laboratory/StructureDefinition/Observation-resultslab-eu-lab"
          ]
        },
        "performer": [
          {
            "display": "The Central European Lab"
          }
        ],
        "category": [
          {
            "coding": [
              {
                "code": "laboratory",
                "system": "http://terminology.hl7.org/CodeSystem/observation-category"
              }
            ]
          }
        ],
        "code": {
          "coding": [
            {
              "code": "94531-1",
              "system": "http://loinc.org",
              "display": "SARS-CoV-2 (COVID-19) RNA panel - Respiratory system specimen by NAA with probe detection"
            }
          ],
          "text": "SARS-CoV-2 (COVID-19) RNA panel - Respiratory system specimen by NAA with probe detection"
        },
        "status": "final",
        "subject": {
          "reference": "urn:uuid:5176a3ef-e71f-4683-833a-a3d8184d1958"
        },
        "effectiveDateTime": "2024-11-18",
        "valueCodeableConcept": {
          "coding": [
            {
              "code": "260373001",
              "system": "http://snomed.info/sct",
              "display": "Detected"
            }
          ]
        },
        "specimen": {
          "reference": "urn:uuid:7d2413f6-4856-44b9-a4e3-540560cd5970"
        }
      }
    }
  ],
  "type": "document",
  "timestamp": "2024-11-19T18:40:54Z"
}
