<Bundle xmlns="http://hl7.org/fhir">
   <id value="Instance-Bundle-e5e64f9f-5196-4288-b7ee-d8da33ec9ac9"/>
   <meta>
      <profile value="http://hl7.eu/fhir/laboratory/StructureDefinition/Bundle-eu-lab"/>
   </meta>
   <identifier>
      <system value="urn:oid:2.16.840.1.113883.2.51.999"/>
      <value value="e2889e83-c81c-446c-adf7-d59ff1cf8667"/>
      <assigner>
         <display value="HL7 Europe"/>
      </assigner>
   </identifier>
   <type value="document"/>
   <timestamp value="2024-11-19T18:38:47Z"/>
   <entry>
      <fullUrl value="urn:uuid:8061dc78-d84a-493b-8b46-1dde7fb6ed4b"/>
      <resource>
         <Composition>
            <id value="8061dc78-d84a-493b-8b46-1dde7fb6ed4b"/>
            <meta>
               <profile value="http://hl7.eu/fhir/laboratory/StructureDefinition/Composition-eu-lab"/>
            </meta>
            <identifier>
               <system value="urn:oid:2.16.840.1.113883.2.51.999"/>
               <value value="6135b748-bf96-4466-88f0-8b4c5c2fcffe"/>
               <assigner>
                  <display value="HL7 Europe"/>
               </assigner>
            </identifier>
            <status value="final"/>
            <type>
               <text value="Laboratory Report"/>
            </type>
            <category>
               <coding>
                  <system value="http://loinc.org"/>
                  <code value="26436-6"/>
                  <display value="Laboratory studies (set)"/>
               </coding>
            </category>
            <subject>
               <reference value="urn:uuid:62da47e9-326e-492a-b54e-bf62e7dcc7f3"/>
            </subject>
            <date value="2024-11-19T18:38:47Z"/>
            <author>
               <reference value="urn:uuid:e169a2e3-b5e6-4d28-897b-0494976d7acc"/>
            </author>
            <title value="Laboratory Report"/>
            <confidentiality value="N"/>
            <section>
               <title value="Laboratory Report"/>
               <code>
                  <coding>
                     <system value="http://loinc.org"/>
                     <code value="26436-6"/>
                     <display value="Laboratory studies (set)"/>
                  </coding>
                  <text value="Laboratory studies"/>
               </code>
               <section>
                  <title value="Hematology"/>
                  <code>
                     <coding>
                        <system value="http://loinc.org"/>
                        <code value="18723-7"/>
                        <display value="Hematology studies (set)"/>
                     </coding>
                     <text value="Hematology"/>
                  </code>
                  <text>
                     <status value="generated"/>
                     <div xmlns="http://www.w3.org/1999/xhtml">
                        <h3 id="section-1">Hematology</h3>
                        <table class="hl7__eu__lab__report">
                           <thead>
                              <tr>
                                 <th>Test</th>
                                 <th>18 Nov 2024</th>
                                 <th>Reference Range</th>
                                 <th>Unit</th>
                              </tr>
                           </thead>
                           <tbody>
                              <tr>
                                 <td>Leukocytes [#/volume] in Blood by Automated count</td>
                                 <td>3.8</td>
                                 <td>3.4 - 10.6</td>
                                 <td>10*3/uL</td>
                              </tr>
                              <tr>
                                 <td>Erythrocytes [#/volume] in Blood by Automated count</td>
                                 <td>4.8</td>
                                 <td>4.5 - 6.2</td>
                                 <td>10*6/uL</td>
                              </tr>
                              <tr>
                                 <td>Hemoglobin [Mass/volume] in Blood</td>
                                 <td>
                                    <strong>13.4 L</strong>
                                 </td>
                                 <td>13.5 - 17.5</td>
                                 <td>g/dL</td>
                              </tr>
                              <tr>
                                 <td>Hematocrit [Volume Fraction] of Blood by Automated count</td>
                                 <td>40.8</td>
                                 <td>38 - 50</td>
                                 <td>%</td>
                              </tr>
                              <tr>
                                 <td>MCV [Entitic volume] by Automated count</td>
                                 <td>86.8</td>
                                 <td>82 - 98</td>
                                 <td>fL</td>
                              </tr>
                              <tr>
                                 <td>MCH [Entitic mass] by Automated count</td>
                                 <td>31.2</td>
                                 <td>27 - 34</td>
                                 <td>pg</td>
                              </tr>
                              <tr>
                                 <td>MCHC [Mass/volume] by Automated count</td>
                                 <td>33.9</td>
                                 <td>31 - 35</td>
                                 <td>g/dL</td>
                              </tr>
                              <tr>
                                 <td>Erythrocyte distribution width [Ratio] by Automated count</td>
                                 <td>15.0</td>
                                 <td>11.5 - 16.5</td>
                                 <td>%</td>
                              </tr>
                              <tr>
                                 <td>Platelets [#/volume] in Blood by Automated count</td>
                                 <td>
                                    <strong>99.9 L</strong>
                                 </td>
                                 <td>150 - 300</td>
                                 <td>10*3/uL</td>
                              </tr>
                              <tr>
                                 <td>Neutrophils/100 leukocytes in Blood by Automated count</td>
                                 <td>
                                    <strong>39.3 L</strong>
                                 </td>
                                 <td>40 - 74</td>
                                 <td>%</td>
                              </tr>
                              <tr>
                                 <td>Lymphocytes/100 leukocytes in Blood by Automated count</td>
                                 <td>
                                    <strong>15.0 L</strong>
                                 </td>
                                 <td>20 - 40</td>
                                 <td>%</td>
                              </tr>
                              <tr>
                                 <td>Monocytes/100 leukocytes in Blood by Automated count</td>
                                 <td>8.4</td>
                                 <td>2 - 10</td>
                                 <td>%</td>
                              </tr>
                              <tr>
                                 <td>Eosinophils/100 leukocytes in Blood by Automated count</td>
                                 <td>3.7</td>
                                 <td>0 - 6</td>
                                 <td>%</td>
                              </tr>
                              <tr>
                                 <td>Basophils/100 leukocytes in Blood by Automated count</td>
                                 <td>2.2</td>
                                 <td>0.5 - 3</td>
                                 <td>%</td>
                              </tr>
                              <tr>
                                 <td>Neutrophils [#/volume] in Blood by Automated count</td>
                                 <td>3.4</td>
                                 <td>2 - 7</td>
                                 <td>10*3/uL</td>
                              </tr>
                              <tr>
                                 <td>Lymphocytes [#/volume] in Blood by Automated count</td>
                                 <td>1.0</td>
                                 <td>1 - 4.8</td>
                                 <td>10*3/uL</td>
                              </tr>
                              <tr>
                                 <td>Monocytes [#/volume] in Blood by Automated count</td>
                                 <td>
                                    <strong>1.0 H</strong>
                                 </td>
                                 <td>0.7 - 0.9</td>
                                 <td>10*3/uL</td>
                              </tr>
                              <tr>
                                 <td>Eosinophils [#/volume] in Blood by Automated count</td>
                                 <td>0.6</td>
                                 <td>0 - 0.7</td>
                                 <td>10*3/uL</td>
                              </tr>
                              <tr>
                                 <td>Basophils [#/volume] in Blood by Automated count</td>
                                 <td>
                                    <strong>0.3 H</strong>
                                 </td>
                                 <td>0.1 - 0.2</td>
                                 <td>10*3/uL</td>
                              </tr>
                           </tbody>
                        </table>
                     </div>
                  </text>
                  <entry>
                     <reference value="urn:uuid:c2bf886f-7b70-48cd-9bef-424a65d08ffb"/>
                  </entry>
                  <entry>
                     <reference value="urn:uuid:48ff5d2c-f791-4413-a1af-a64462030717"/>
                  </entry>
                  <entry>
                     <reference value="urn:uuid:48aad6e7-a9d6-4c86-ae1b-293a44508984"/>
                  </entry>
                  <entry>
                     <reference value="urn:uuid:bcb12945-82e9-4d40-b086-d9efb2aae855"/>
                  </entry>
                  <entry>
                     <reference value="urn:uuid:a1581b42-f6a3-41bb-bbc4-aa6486b48dd7"/>
                  </entry>
                  <entry>
                     <reference value="urn:uuid:c794dc62-b56a-4ed8-8789-b14c497d83ac"/>
                  </entry>
                  <entry>
                     <reference value="urn:uuid:79ea0d09-d4fa-4256-b5f0-7af7cf586de5"/>
                  </entry>
                  <entry>
                     <reference value="urn:uuid:acfba6de-89d4-48e2-965c-d811a61f843e"/>
                  </entry>
                  <entry>
                     <reference value="urn:uuid:252346f5-1224-4212-9461-a71f957633fb"/>
                  </entry>
                  <entry>
                     <reference value="urn:uuid:c4755bdc-a922-4650-a7a0-614d0e7961d0"/>
                  </entry>
                  <entry>
                     <reference value="urn:uuid:855aa6d2-352a-409d-ba1d-34dc21323cf8"/>
                  </entry>
                  <entry>
                     <reference value="urn:uuid:2b2cbfa8-8897-4afc-af8c-d84c5f1170fe"/>
                  </entry>
                  <entry>
                     <reference value="urn:uuid:2d8a4e80-1459-4ef8-8bbb-13e9ac20e246"/>
                  </entry>
                  <entry>
                     <reference value="urn:uuid:d8d760e0-7cef-4796-9dfd-0ab688164c41"/>
                  </entry>
                  <entry>
                     <reference value="urn:uuid:4d603f4b-f62a-4089-9a28-f4a29d0a8b50"/>
                  </entry>
                  <entry>
                     <reference value="urn:uuid:b0f15438-f462-48c6-bfcd-9c949f0be6e9"/>
                  </entry>
                  <entry>
                     <reference value="urn:uuid:df7f7931-10e3-49f9-b1a2-56a7d9995716"/>
                  </entry>
                  <entry>
                     <reference value="urn:uuid:043e21ea-8be8-4e53-82f8-dbb06f82c811"/>
                  </entry>
                  <entry>
                     <reference value="urn:uuid:af9ef7e7-19b7-4ed4-a8d0-8acef00cd3a4"/>
                  </entry>
               </section>
               <section>
                  <title value="Chemistry"/>
                  <code>
                     <coding>
                        <system value="http://loinc.org"/>
                        <code value="18719-5"/>
                        <display value="Chemistry studies (set)"/>
                     </coding>
                     <text value="Chemistry"/>
                  </code>
                  <text>
                     <status value="generated"/>
                     <div xmlns="http://www.w3.org/1999/xhtml">
                        <h3 id="section-2">Chemistry</h3>
                        <table class="hl7__eu__lab__report">
                           <thead>
                              <tr>
                                 <th>Test</th>
                                 <th>18 Nov 2024</th>
                                 <th>Reference Range</th>
                                 <th>Unit</th>
                              </tr>
                           </thead>
                           <tbody>
                              <tr>
                                 <td>Oxygen saturation in Arterial blood</td>
                                 <td>
                                    <strong>87.5 L</strong>
                                 </td>
                                 <td>95 - 100</td>
                                 <td>%</td>
                              </tr>
                              <tr>
                                 <td>Oxygen saturation in Arterial blood</td>
                                 <td>
                                    <strong>78.4 L</strong>
                                 </td>
                                 <td>95 - 100</td>
                                 <td>%</td>
                              </tr>
                              <tr>
                                 <td>Glucose [Mass/volume] in Serum or Plasma</td>
                                 <td>
                                    <strong>69.5 L</strong>
                                 </td>
                                 <td>70 - 99</td>
                                 <td>mg/dL</td>
                              </tr>
                              <tr>
                                 <td>Urea nitrogen [Mass/volume] in Serum or Plasma</td>
                                 <td>12.6</td>
                                 <td>7 - 20</td>
                                 <td>mg/dL</td>
                              </tr>
                              <tr>
                                 <td>Creatinine [Mass/volume] in Serum or Plasma</td>
                                 <td>
                                    <strong>2.9 H</strong>
                                 </td>
                                 <td>0.9 - 1.3</td>
                                 <td>mg/dL</td>
                              </tr>
                              <tr>
                                 <td>Calcium [Mass/volume] in Serum or Plasma</td>
                                 <td>9.0</td>
                                 <td>8.5 - 10.5</td>
                                 <td>mg/dL</td>
                              </tr>
                              <tr>
                                 <td>Sodium [Moles/volume] in Serum or Plasma</td>
                                 <td>137.8</td>
                                 <td>135 - 145</td>
                                 <td>mmol/L</td>
                              </tr>
                              <tr>
                                 <td>Potassium [Moles/volume] in Serum or Plasma</td>
                                 <td>3.8</td>
                                 <td>3.5 - 5</td>
                                 <td>mmol/L</td>
                              </tr>
                              <tr>
                                 <td>Chloride [Moles/volume] in Serum or Plasma</td>
                                 <td>104.4</td>
                                 <td>98 - 106</td>
                                 <td>mmol/L</td>
                              </tr>
                              <tr>
                                 <td>Carbon dioxide, total [Moles/volume] in Serum or Plasma</td>
                                 <td>23.1</td>
                                 <td>22 - 29</td>
                                 <td>mmol/L</td>
                              </tr>
                              <tr>
                                 <td>Protein [Mass/volume] in Serum or Plasma</td>
                                 <td>
                                    <strong>6.2 L</strong>
                                 </td>
                                 <td>6.6 - 8.3</td>
                                 <td>g/dL</td>
                              </tr>
                              <tr>
                                 <td>Albumin [Mass/volume] in Serum or Plasma</td>
                                 <td>4.8</td>
                                 <td>3.5 - 5.5</td>
                                 <td>g/dL</td>
                              </tr>
                              <tr>
                                 <td>Bilirubin.total [Mass/volume] in Serum or Plasma</td>
                                 <td>
                                    <strong>9.1 H</strong>
                                 </td>
                                 <td>0.3 - 1.2</td>
                                 <td>mg/dL</td>
                              </tr>
                              <tr>
                                 <td>Alkaline phosphatase [Enzymatic activity/volume] in Serum or Plasma</td>
                                 <td>85.9</td>
                                 <td>39 - 129</td>
                                 <td>U/L</td>
                              </tr>
                              <tr>
                                 <td>Alanine aminotransferase [Enzymatic activity/volume] in Serum or Plasma</td>
                                 <td>21.0</td>
                                 <td>10 - 60</td>
                                 <td>U/L</td>
                              </tr>
                              <tr>
                                 <td>Aspartate aminotransferase [Enzymatic activity/volume] in Serum or Plasma</td>
                                 <td>30.8</td>
                                 <td>10 - 50</td>
                                 <td>U/L</td>
                              </tr>
                              <tr>
                                 <td>pH of Arterial blood</td>
                                 <td>
                                    <strong>7.1 L</strong>
                                 </td>
                                 <td>7.35 - 7.45</td>
                                 <td>[pH]</td>
                              </tr>
                              <tr>
                                 <td>Carbon dioxide [Partial pressure] in Arterial blood</td>
                                 <td>37.5</td>
                                 <td>35 - 45</td>
                                 <td>mm[Hg]</td>
                              </tr>
                              <tr>
                                 <td>Oxygen [Partial pressure] in Arterial blood</td>
                                 <td>
                                    <strong>53.8 L</strong>
                                 </td>
                                 <td>80 - 100</td>
                                 <td>mm[Hg]</td>
                              </tr>
                              <tr>
                                 <td>Bicarbonate [Moles/volume] in Arterial blood</td>
                                 <td>24.1</td>
                                 <td>21 - 31</td>
                                 <td>mmol/L</td>
                              </tr>
                              <tr>
                                 <td>Oxygen saturation in Arterial blood</td>
                                 <td>
                                    <strong>75.6 L</strong>
                                 </td>
                                 <td>95 - 100</td>
                                 <td>%</td>
                              </tr>
                              <tr>
                                 <td>Ferritin [Mass/volume] in Serum or Plasma</td>
                                 <td>382.3</td>
                                 <td>24 - 400</td>
                                 <td>ug/L</td>
                              </tr>
                              <tr>
                                 <td>Troponin I.cardiac [Mass/volume] in Serum or Plasma by High sensitivity method</td>
                                 <td>3.0</td>
                                 <td>0 - 19.9</td>
                                 <td>pg/mL</td>
                              </tr>
                              <tr>
                                 <td>Lactate dehydrogenase [Enzymatic activity/volume] in Serum or Plasma by Lactate to pyruvate reaction</td>
                                 <td>241.1</td>
                                 <td>100 - 248</td>
                                 <td>U/L</td>
                              </tr>
                              <tr>
                                 <td>Creatine kinase [Enzymatic activity/volume] in Serum or Plasma</td>
                                 <td>41.4</td>
                                 <td>30 - 204</td>
                                 <td>U/L</td>
                              </tr>
                              <tr>
                                 <td>C reactive protein [Mass/volume] in Serum or Plasma</td>
                                 <td>8.4</td>
                                 <td>0 - 10</td>
                                 <td>mg/L</td>
                              </tr>
                              <tr>
                                 <td>Procalcitonin [Mass/volume] in Serum or Plasma</td>
                                 <td>0.0</td>
                                 <td>0 - 0.5</td>
                                 <td>ng/mL</td>
                              </tr>
                           </tbody>
                        </table>
                     </div>
                  </text>
                  <entry>
                     <reference value="urn:uuid:7db46b66-7c51-460e-99e4-7ba139685f55"/>
                  </entry>
                  <entry>
                     <reference value="urn:uuid:bd39b903-6f1e-450d-b900-187bf2c0bb2d"/>
                  </entry>
                  <entry>
                     <reference value="urn:uuid:38790e6a-1c70-484f-8ce8-7cc0056948c2"/>
                  </entry>
                  <entry>
                     <reference value="urn:uuid:ec3259a9-1170-4651-8968-7589b52e8afa"/>
                  </entry>
                  <entry>
                     <reference value="urn:uuid:44ad851c-be8f-4c36-bb58-436f3f95f855"/>
                  </entry>
                  <entry>
                     <reference value="urn:uuid:dd3f1dac-c7ba-4aa4-bf01-cd7a20bc4d9a"/>
                  </entry>
                  <entry>
                     <reference value="urn:uuid:5f23ed18-9bc4-4e8a-84c6-0ad1f6fd6842"/>
                  </entry>
                  <entry>
                     <reference value="urn:uuid:d8d63dad-2afd-4ff5-87e9-4b4315f96827"/>
                  </entry>
                  <entry>
                     <reference value="urn:uuid:55713f41-a671-4f0a-bf55-8642481f38d2"/>
                  </entry>
                  <entry>
                     <reference value="urn:uuid:b01a3d64-c55a-4bd4-98c7-92e223914478"/>
                  </entry>
                  <entry>
                     <reference value="urn:uuid:68fcfd84-2fff-47f2-8079-231d18fd3e6b"/>
                  </entry>
                  <entry>
                     <reference value="urn:uuid:a712c734-bffb-44b9-97a6-eee097eb1db4"/>
                  </entry>
                  <entry>
                     <reference value="urn:uuid:e74325eb-b36c-4996-9437-ba7384637f79"/>
                  </entry>
                  <entry>
                     <reference value="urn:uuid:eb3889bb-4320-4db9-8cfa-394326c4134d"/>
                  </entry>
                  <entry>
                     <reference value="urn:uuid:26dfe082-c6a0-48e9-b03d-d3f531eb2c0f"/>
                  </entry>
                  <entry>
                     <reference value="urn:uuid:33e11629-15ce-496b-aa60-700ba1f4a2de"/>
                  </entry>
                  <entry>
                     <reference value="urn:uuid:141d6c7f-3892-47cf-b298-fba6d68dd4cc"/>
                  </entry>
                  <entry>
                     <reference value="urn:uuid:fb342dfb-c7e9-4711-a59c-fb8166c0a20e"/>
                  </entry>
                  <entry>
                     <reference value="urn:uuid:44918e60-d59f-44b7-9eea-6e68fb324b72"/>
                  </entry>
                  <entry>
                     <reference value="urn:uuid:f200dc2f-777d-4ef9-995b-a802c6dfe63a"/>
                  </entry>
                  <entry>
                     <reference value="urn:uuid:a735cf46-1252-4a73-b522-c22842236e06"/>
                  </entry>
                  <entry>
                     <reference value="urn:uuid:77d3baaf-73a6-43f7-a4b1-570a80cfa7f0"/>
                  </entry>
                  <entry>
                     <reference value="urn:uuid:a37522bf-2389-4f86-85e3-fbdca961b782"/>
                  </entry>
                  <entry>
                     <reference value="urn:uuid:ef56d25d-2c99-493a-bdc7-982d49b8927f"/>
                  </entry>
                  <entry>
                     <reference value="urn:uuid:4b842bd0-27a2-44d1-a1dd-bf1a6dc0a829"/>
                  </entry>
                  <entry>
                     <reference value="urn:uuid:116f9d55-0ead-47fa-be0c-83ec2446d21d"/>
                  </entry>
                  <entry>
                     <reference value="urn:uuid:8e3f38b2-1899-4191-b444-029afc407eb7"/>
                  </entry>
               </section>
               <section>
                  <title value="Coagulation"/>
                  <code>
                     <coding>
                        <system value="http://loinc.org"/>
                        <code value="18720-3"/>
                        <display value="Coagulation studies (set)"/>
                     </coding>
                     <text value="Coagulation"/>
                  </code>
                  <text>
                     <status value="generated"/>
                     <div xmlns="http://www.w3.org/1999/xhtml">
                        <h3 id="section-3">Coagulation</h3>
                        <table class="hl7__eu__lab__report">
                           <thead>
                              <tr>
                                 <th>Test</th>
                                 <th>18 Nov 2024</th>
                                 <th>Reference Range</th>
                                 <th>Unit</th>
                              </tr>
                           </thead>
                           <tbody>
                              <tr>
                                 <td>Fibrin D-dimer FEU [Mass/volume] in Platelet poor plasma</td>
                                 <td>0.3</td>
                                 <td>0 - 0.5</td>
                                 <td>ug/mL</td>
                              </tr>
                              <tr>
                                 <td>Prothrombin time (PT)</td>
                                 <td>
                                    <strong>10.9 L</strong>
                                 </td>
                                 <td>11.5 - 13.5</td>
                                 <td>s</td>
                              </tr>
                              <tr>
                                 <td>INR in Platelet poor plasma by Coagulation assay</td>
                                 <td>
                                    <strong>1.8 L</strong>
                                 </td>
                                 <td>2 - 3</td>
                                 <td>{INR}</td>
                              </tr>
                           </tbody>
                        </table>
                     </div>
                  </text>
                  <entry>
                     <reference value="urn:uuid:ea643738-fe7f-428f-9b98-67d944e3f188"/>
                  </entry>
                  <entry>
                     <reference value="urn:uuid:149d4c68-ff79-4580-88df-e401534dcc2a"/>
                  </entry>
                  <entry>
                     <reference value="urn:uuid:4a544c1e-6d4c-4c4f-8b2e-cd35b24f7a51"/>
                  </entry>
               </section>
               <section>
                  <title value="Microbiology"/>
                  <code>
                     <coding>
                        <system value="http://loinc.org"/>
                        <code value="18725-2"/>
                        <display value="Microbiology studies"/>
                     </coding>
                     <text value="Microbiology"/>
                  </code>
                  <text>
                     <status value="generated"/>
                     <div xmlns="http://www.w3.org/1999/xhtml">
                        <h3 id="section-4">Microbiology</h3>
                        <table class="hl7__eu__lab__report">
                           <thead>
                              <tr>
                                 <th>Test</th>
                                 <th>18 Nov 2024</th>
                                 <th>Reference Range</th>
                                 <th>Unit</th>
                              </tr>
                           </thead>
                           <tbody>
                              <tr>
                                 <td>Influenza virus A Ag [Presence] in Upper respiratory specimen by Rapid immunoassay</td>
                                 <td>Not detected</td>
                                 <td/>
                                 <td/>
                              </tr>
                              <tr>
                                 <td>Influenza virus B Ag [Presence] in Upper respiratory specimen by Rapid immunoassay</td>
                                 <td>Not detected</td>
                                 <td/>
                                 <td/>
                              </tr>
                           </tbody>
                        </table>
                     </div>
                  </text>
                  <entry>
                     <reference value="urn:uuid:6eb34344-866c-4ffa-9e3b-1791be10cad2"/>
                  </entry>
                  <entry>
                     <reference value="urn:uuid:6539b541-54e7-470b-9c44-faad2af49431"/>
                  </entry>
               </section>
               <section>
                  <title value="Microbiology Panel"/>
                  <code>
                     <coding>
                        <system value="http://loinc.org"/>
                        <code value="18725-2"/>
                        <display value="Microbiology studies"/>
                     </coding>
                     <text value="Microbiology Panel"/>
                  </code>
                  <text>
                     <status value="generated"/>
                     <div xmlns="http://www.w3.org/1999/xhtml">
                        <h3 id="section-5">Microbiology Panel</h3>
                        <table class="hl7__eu__lab__report">
                           <thead>
                              <tr>
                                 <th>Test</th>
                                 <th>18 Nov 2024</th>
                                 <th>Reference Range</th>
                                 <th>Unit</th>
                              </tr>
                           </thead>
                           <tbody>
                              <tr>
                                 <td>SARS-CoV-2 (COVID-19) RNA panel - Respiratory system specimen by NAA with probe detection</td>
                                 <td>Detected</td>
                                 <td/>
                                 <td/>
                              </tr>
                           </tbody>
                        </table>
                     </div>
                  </text>
                  <entry>
                     <reference value="urn:uuid:ddd3d393-9ad5-48db-98d0-021bb18a3330"/>
                  </entry>
               </section>
            </section>
         </Composition>
      </resource>
   </entry>
   <entry>
      <fullUrl value="urn:uuid:f4618b6f-a8e3-427d-8831-1207549de471"/>
      <resource>
         <DiagnosticReport>
            <id value="f4618b6f-a8e3-427d-8831-1207549de471"/>
            <meta>
               <profile value="http://hl7.eu/fhir/laboratory/StructureDefinition/DiagnosticReport-eu-lab"/>
            </meta>
            <extension url="http://hl7.org/fhir/5.0/StructureDefinition/extension-DiagnosticReport.composition">
               <valueReference>
                  <reference value="urn:uuid:8061dc78-d84a-493b-8b46-1dde7fb6ed4b"/>
               </valueReference>
            </extension>
            <identifier>
               <system value="urn:oid:2.16.840.1.113883.2.51.999"/>
               <value value="cfbbae5b-6de3-4ff7-abc6-813af5f7b902"/>
               <assigner>
                  <display value="HL7 Europe"/>
               </assigner>
            </identifier>
            <status value="registered"/>
            <category>
               <coding>
                  <system value="http://loinc.org"/>
                  <code value="18719-5"/>
                  <display value="Chemistry studies (set)"/>
               </coding>
            </category>
            <code>
               <coding>
                  <system value="http://loinc.org"/>
                  <code value="11502-2"/>
                  <display value="Laboratory report"/>
               </coding>
            </code>
            <subject>
               <reference value="urn:uuid:62da47e9-326e-492a-b54e-bf62e7dcc7f3"/>
            </subject>
            <specimen>
               <reference value="urn:uuid:add7de57-628f-49ce-848e-cfca997201cb"/>
            </specimen>
            <specimen>
               <reference value="urn:uuid:b3bb6891-e5cf-4202-bc0b-7c94bd6ece69"/>
            </specimen>
            <specimen>
               <reference value="urn:uuid:91b85a5d-a0b1-463e-9a26-9ae3f1dc2288"/>
            </specimen>
            <specimen>
               <reference value="urn:uuid:b6ef6ef4-3bcd-42dc-b02a-08922d783654"/>
            </specimen>
            <specimen>
               <reference value="urn:uuid:9327abc7-52ad-4001-9c02-9fdba49fa907"/>
            </specimen>
            <specimen>
               <reference value="urn:uuid:e1412f51-f319-468a-9feb-55bb488d8f5f"/>
            </specimen>
            <specimen>
               <reference value="urn:uuid:61ddc26b-1912-44a7-814c-7079fcfc3026"/>
            </specimen>
            <result>
               <reference value="urn:uuid:7db46b66-7c51-460e-99e4-7ba139685f55"/>
            </result>
            <result>
               <reference value="urn:uuid:6eb34344-866c-4ffa-9e3b-1791be10cad2"/>
            </result>
            <result>
               <reference value="urn:uuid:6539b541-54e7-470b-9c44-faad2af49431"/>
            </result>
            <result>
               <reference value="urn:uuid:ddd3d393-9ad5-48db-98d0-021bb18a3330"/>
            </result>
            <result>
               <reference value="urn:uuid:bd39b903-6f1e-450d-b900-187bf2c0bb2d"/>
            </result>
            <result>
               <reference value="urn:uuid:c2bf886f-7b70-48cd-9bef-424a65d08ffb"/>
            </result>
            <result>
               <reference value="urn:uuid:48ff5d2c-f791-4413-a1af-a64462030717"/>
            </result>
            <result>
               <reference value="urn:uuid:48aad6e7-a9d6-4c86-ae1b-293a44508984"/>
            </result>
            <result>
               <reference value="urn:uuid:bcb12945-82e9-4d40-b086-d9efb2aae855"/>
            </result>
            <result>
               <reference value="urn:uuid:a1581b42-f6a3-41bb-bbc4-aa6486b48dd7"/>
            </result>
            <result>
               <reference value="urn:uuid:c794dc62-b56a-4ed8-8789-b14c497d83ac"/>
            </result>
            <result>
               <reference value="urn:uuid:79ea0d09-d4fa-4256-b5f0-7af7cf586de5"/>
            </result>
            <result>
               <reference value="urn:uuid:acfba6de-89d4-48e2-965c-d811a61f843e"/>
            </result>
            <result>
               <reference value="urn:uuid:252346f5-1224-4212-9461-a71f957633fb"/>
            </result>
            <result>
               <reference value="urn:uuid:c4755bdc-a922-4650-a7a0-614d0e7961d0"/>
            </result>
            <result>
               <reference value="urn:uuid:855aa6d2-352a-409d-ba1d-34dc21323cf8"/>
            </result>
            <result>
               <reference value="urn:uuid:2b2cbfa8-8897-4afc-af8c-d84c5f1170fe"/>
            </result>
            <result>
               <reference value="urn:uuid:2d8a4e80-1459-4ef8-8bbb-13e9ac20e246"/>
            </result>
            <result>
               <reference value="urn:uuid:d8d760e0-7cef-4796-9dfd-0ab688164c41"/>
            </result>
            <result>
               <reference value="urn:uuid:4d603f4b-f62a-4089-9a28-f4a29d0a8b50"/>
            </result>
            <result>
               <reference value="urn:uuid:b0f15438-f462-48c6-bfcd-9c949f0be6e9"/>
            </result>
            <result>
               <reference value="urn:uuid:df7f7931-10e3-49f9-b1a2-56a7d9995716"/>
            </result>
            <result>
               <reference value="urn:uuid:043e21ea-8be8-4e53-82f8-dbb06f82c811"/>
            </result>
            <result>
               <reference value="urn:uuid:af9ef7e7-19b7-4ed4-a8d0-8acef00cd3a4"/>
            </result>
            <result>
               <reference value="urn:uuid:38790e6a-1c70-484f-8ce8-7cc0056948c2"/>
            </result>
            <result>
               <reference value="urn:uuid:ec3259a9-1170-4651-8968-7589b52e8afa"/>
            </result>
            <result>
               <reference value="urn:uuid:44ad851c-be8f-4c36-bb58-436f3f95f855"/>
            </result>
            <result>
               <reference value="urn:uuid:dd3f1dac-c7ba-4aa4-bf01-cd7a20bc4d9a"/>
            </result>
            <result>
               <reference value="urn:uuid:5f23ed18-9bc4-4e8a-84c6-0ad1f6fd6842"/>
            </result>
            <result>
               <reference value="urn:uuid:d8d63dad-2afd-4ff5-87e9-4b4315f96827"/>
            </result>
            <result>
               <reference value="urn:uuid:55713f41-a671-4f0a-bf55-8642481f38d2"/>
            </result>
            <result>
               <reference value="urn:uuid:b01a3d64-c55a-4bd4-98c7-92e223914478"/>
            </result>
            <result>
               <reference value="urn:uuid:68fcfd84-2fff-47f2-8079-231d18fd3e6b"/>
            </result>
            <result>
               <reference value="urn:uuid:a712c734-bffb-44b9-97a6-eee097eb1db4"/>
            </result>
            <result>
               <reference value="urn:uuid:e74325eb-b36c-4996-9437-ba7384637f79"/>
            </result>
            <result>
               <reference value="urn:uuid:eb3889bb-4320-4db9-8cfa-394326c4134d"/>
            </result>
            <result>
               <reference value="urn:uuid:26dfe082-c6a0-48e9-b03d-d3f531eb2c0f"/>
            </result>
            <result>
               <reference value="urn:uuid:33e11629-15ce-496b-aa60-700ba1f4a2de"/>
            </result>
            <result>
               <reference value="urn:uuid:141d6c7f-3892-47cf-b298-fba6d68dd4cc"/>
            </result>
            <result>
               <reference value="urn:uuid:fb342dfb-c7e9-4711-a59c-fb8166c0a20e"/>
            </result>
            <result>
               <reference value="urn:uuid:44918e60-d59f-44b7-9eea-6e68fb324b72"/>
            </result>
            <result>
               <reference value="urn:uuid:f200dc2f-777d-4ef9-995b-a802c6dfe63a"/>
            </result>
            <result>
               <reference value="urn:uuid:a735cf46-1252-4a73-b522-c22842236e06"/>
            </result>
            <result>
               <reference value="urn:uuid:ea643738-fe7f-428f-9b98-67d944e3f188"/>
            </result>
            <result>
               <reference value="urn:uuid:77d3baaf-73a6-43f7-a4b1-570a80cfa7f0"/>
            </result>
            <result>
               <reference value="urn:uuid:a37522bf-2389-4f86-85e3-fbdca961b782"/>
            </result>
            <result>
               <reference value="urn:uuid:ef56d25d-2c99-493a-bdc7-982d49b8927f"/>
            </result>
            <result>
               <reference value="urn:uuid:4b842bd0-27a2-44d1-a1dd-bf1a6dc0a829"/>
            </result>
            <result>
               <reference value="urn:uuid:116f9d55-0ead-47fa-be0c-83ec2446d21d"/>
            </result>
            <result>
               <reference value="urn:uuid:149d4c68-ff79-4580-88df-e401534dcc2a"/>
            </result>
            <result>
               <reference value="urn:uuid:4a544c1e-6d4c-4c4f-8b2e-cd35b24f7a51"/>
            </result>
            <result>
               <reference value="urn:uuid:8e3f38b2-1899-4191-b444-029afc407eb7"/>
            </result>
         </DiagnosticReport>
      </resource>
   </entry>
   <entry>
      <fullUrl value="urn:uuid:62da47e9-326e-492a-b54e-bf62e7dcc7f3"/>
      <resource>
         <Patient>
            <id value="62da47e9-326e-492a-b54e-bf62e7dcc7f3"/>
            <meta>
               <profile value="http://hl7.eu/fhir/laboratory/StructureDefinition/Patient-eu-lab"/>
            </meta>
            <identifier>
               <type>
                  <coding>
                     <system value="http://terminology.hl7.org/CodeSystem/v2-0203"/>
                     <code value="NI"/>
                  </coding>
               </type>
               <system value="http://ec.europa.eu/identifier/eci"/>
               <value value="6603-351860-7"/>
            </identifier>
            <identifier>
               <type>
                  <coding>
                     <system value="http://terminology.hl7.org/CodeSystem/v2-0203"/>
                     <code value="MR"/>
                  </coding>
               </type>
               <system value="http://local.setting.eu/identifier"/>
               <value value="aca2ed80-6a99-4c35-a147-c63ccd4455b1"/>
            </identifier>
            <name>
               <text value="Oskar Zakariassen"/>
               <family value="Zakariassen"/>
               <given value="Oskar"/>
            </name>
            <telecom>
               <system value="phone"/>
               <value value="+47 992 33 863"/>
            </telecom>
            <gender value="male"/>
            <birthDate value="1961-02-02"/>
            <address>
               <use value="home"/>
               <type value="physical"/>
               <line value="Staales Bakke 74"/>
               <city value="Grimstad"/>
               <postalCode value="4876"/>
               <country value="Norway"/>
            </address>
         </Patient>
      </resource>
   </entry>
   <entry>
      <fullUrl value="urn:uuid:695e525e-addd-4049-bd28-0f432d06d91e"/>
      <resource>
         <ServiceRequest>
            <id value="695e525e-addd-4049-bd28-0f432d06d91e"/>
            <meta>
               <profile value="http://hl7.eu/fhir/laboratory/StructureDefinition/ServiceRequest-eu-lab"/>
            </meta>
            <identifier>
               <system value="http://example.org"/>
               <value value="0fa8e076-8ffa-459c-bba6-15cbfb860287"/>
            </identifier>
            <status value="active"/>
            <intent value="order"/>
            <code>
               <coding>
                  <system value="http://snomed.info/sct"/>
                  <code value="108252007"/>
                  <display value="Laboratory procedure"/>
               </coding>
            </code>
            <subject>
               <reference value="urn:uuid:62da47e9-326e-492a-b54e-bf62e7dcc7f3"/>
            </subject>
            <requester>
               <reference value="urn:uuid:d840654a-7079-44b4-902e-d71f094a8252"/>
            </requester>
            <specimen>
               <reference value="urn:uuid:add7de57-628f-49ce-848e-cfca997201cb"/>
            </specimen>
            <specimen>
               <reference value="urn:uuid:b3bb6891-e5cf-4202-bc0b-7c94bd6ece69"/>
            </specimen>
            <specimen>
               <reference value="urn:uuid:91b85a5d-a0b1-463e-9a26-9ae3f1dc2288"/>
            </specimen>
            <specimen>
               <reference value="urn:uuid:b6ef6ef4-3bcd-42dc-b02a-08922d783654"/>
            </specimen>
            <specimen>
               <reference value="urn:uuid:9327abc7-52ad-4001-9c02-9fdba49fa907"/>
            </specimen>
            <specimen>
               <reference value="urn:uuid:e1412f51-f319-468a-9feb-55bb488d8f5f"/>
            </specimen>
            <specimen>
               <reference value="urn:uuid:61ddc26b-1912-44a7-814c-7079fcfc3026"/>
            </specimen>
         </ServiceRequest>
      </resource>
   </entry>
   <entry>
      <fullUrl value="urn:uuid:d840654a-7079-44b4-902e-d71f094a8252"/>
      <resource>
         <PractitionerRole>
            <id value="d840654a-7079-44b4-902e-d71f094a8252"/>
            <meta>
               <profile value="http://hl7.eu/fhir/laboratory/StructureDefinition/PractitionerRole-eu-lab"/>
            </meta>
            <organization>
               <reference value="urn:uuid:ee3028c7-1245-4c79-a6e1-8cdd6674ac50"/>
            </organization>
         </PractitionerRole>
      </resource>
   </entry>
   <entry>
      <fullUrl value="urn:uuid:ee3028c7-1245-4c79-a6e1-8cdd6674ac50"/>
      <resource>
         <Organization>
            <id value="ee3028c7-1245-4c79-a6e1-8cdd6674ac50"/>
            <meta>
               <profile value="http://hl7.org/fhir/uv/ips/StructureDefinition/Organization-uv-ips"/>
            </meta>
            <identifier>
               <system value="urn:oid:2.16.840.1.113883.2.51.999"/>
               <value value="cb36a2f1-622c-4830-ba17-9bc14d774655"/>
               <assigner>
                  <display value="HL7 Europe"/>
               </assigner>
            </identifier>
            <name value="Sørlandet Sykehus Arendal"/>
            <address>
               <city value="Arendal"/>
               <postalCode value="4838"/>
               <country value="no"/>
            </address>
         </Organization>
      </resource>
   </entry>
   <entry>
      <fullUrl value="urn:uuid:e169a2e3-b5e6-4d28-897b-0494976d7acc"/>
      <resource>
         <PractitionerRole>
            <id value="e169a2e3-b5e6-4d28-897b-0494976d7acc"/>
            <meta>
               <profile value="http://hl7.eu/fhir/laboratory/StructureDefinition/PractitionerRole-eu-lab"/>
            </meta>
            <practitioner>
               <reference value="urn:uuid:702ecad3-4f67-4f7e-a67d-77bfb90e15ec"/>
            </practitioner>
         </PractitionerRole>
      </resource>
   </entry>
   <entry>
      <fullUrl value="urn:uuid:702ecad3-4f67-4f7e-a67d-77bfb90e15ec"/>
      <resource>
         <Practitioner>
            <id value="702ecad3-4f67-4f7e-a67d-77bfb90e15ec"/>
            <meta>
               <profile value="http://hl7.eu/fhir/laboratory/StructureDefinition/Practitioner-eu-lab"/>
            </meta>
            <identifier>
               <system value="urn:oid:2.16.840.1.113883.2.51.999"/>
               <value value="eb90faf9-a444-4c7c-8a2f-5793d391cc87"/>
               <assigner>
                  <display value="HL7 Europe"/>
               </assigner>
            </identifier>
            <name>
               <family value="Ample"/>
               <given value="Ex"/>
               <prefix value="dr"/>
            </name>
            <address>
               <line value="Boulevard du Jardin Botanique 32"/>
               <city value="Brussels"/>
               <postalCode value="1000"/>
            </address>
         </Practitioner>
      </resource>
   </entry>
   <entry>
      <fullUrl value="urn:uuid:add7de57-628f-49ce-848e-cfca997201cb"/>
      <resource>
         <Specimen>
            <id value="add7de57-628f-49ce-848e-cfca997201cb"/>
            <meta>
               <profile value="http://hl7.eu/fhir/laboratory/StructureDefinition/Specimen-eu-lab"/>
            </meta>
            <status value="available"/>
            <type>
               <coding>
                  <system value="http://snomed.info/sct"/>
                  <code value="122552005"/>
                  <display value="Arterial blood specimen (specimen)"/>
               </coding>
            </type>
            <collection>
               <collectedDateTime value="2024-11-18"/>
            </collection>
         </Specimen>
      </resource>
   </entry>
   <entry>
      <fullUrl value="urn:uuid:b3bb6891-e5cf-4202-bc0b-7c94bd6ece69"/>
      <resource>
         <Specimen>
            <id value="b3bb6891-e5cf-4202-bc0b-7c94bd6ece69"/>
            <meta>
               <profile value="http://hl7.eu/fhir/laboratory/StructureDefinition/Specimen-eu-lab"/>
            </meta>
            <status value="available"/>
            <type>
               <coding>
                  <system value="http://snomed.info/sct"/>
                  <code value="258604001"/>
                  <display value="Upper respiratory specimen (specimen)"/>
               </coding>
            </type>
            <collection>
               <collectedDateTime value="2024-11-18"/>
            </collection>
         </Specimen>
      </resource>
   </entry>
   <entry>
      <fullUrl value="urn:uuid:91b85a5d-a0b1-463e-9a26-9ae3f1dc2288"/>
      <resource>
         <Specimen>
            <id value="91b85a5d-a0b1-463e-9a26-9ae3f1dc2288"/>
            <meta>
               <profile value="http://hl7.eu/fhir/laboratory/StructureDefinition/Specimen-eu-lab"/>
            </meta>
            <status value="available"/>
            <type>
               <coding>
                  <system value="http://snomed.info/sct"/>
                  <code value="258603007"/>
                  <display value="Respiratory specimen (specimen)"/>
               </coding>
            </type>
            <collection>
               <collectedDateTime value="2024-11-18"/>
            </collection>
         </Specimen>
      </resource>
   </entry>
   <entry>
      <fullUrl value="urn:uuid:b6ef6ef4-3bcd-42dc-b02a-08922d783654"/>
      <resource>
         <Specimen>
            <id value="b6ef6ef4-3bcd-42dc-b02a-08922d783654"/>
            <meta>
               <profile value="http://hl7.eu/fhir/laboratory/StructureDefinition/Specimen-eu-lab"/>
            </meta>
            <status value="available"/>
            <type>
               <coding>
                  <system value="http://snomed.info/sct"/>
                  <code value="258580003"/>
                  <display value="Whole blood specimen (specimen)"/>
               </coding>
            </type>
            <collection>
               <collectedDateTime value="2024-11-18"/>
            </collection>
         </Specimen>
      </resource>
   </entry>
   <entry>
      <fullUrl value="urn:uuid:9327abc7-52ad-4001-9c02-9fdba49fa907"/>
      <resource>
         <Specimen>
            <id value="9327abc7-52ad-4001-9c02-9fdba49fa907"/>
            <meta>
               <profile value="http://hl7.eu/fhir/laboratory/StructureDefinition/Specimen-eu-lab"/>
            </meta>
            <status value="available"/>
            <type>
               <coding>
                  <system value="http://snomed.info/sct"/>
                  <code value="258580003"/>
                  <display value="Whole blood specimen (specimen)"/>
               </coding>
            </type>
            <collection>
               <collectedDateTime value="2024-11-18"/>
            </collection>
         </Specimen>
      </resource>
   </entry>
   <entry>
      <fullUrl value="urn:uuid:e1412f51-f319-468a-9feb-55bb488d8f5f"/>
      <resource>
         <Specimen>
            <id value="e1412f51-f319-468a-9feb-55bb488d8f5f"/>
            <meta>
               <profile value="http://hl7.eu/fhir/laboratory/StructureDefinition/Specimen-eu-lab"/>
            </meta>
            <status value="available"/>
            <type>
               <coding>
                  <system value="http://snomed.info/sct"/>
                  <code value="122592007"/>
                  <display value="Acellular blood (serum or plasma) specimen (specimen)"/>
               </coding>
            </type>
            <collection>
               <collectedDateTime value="2024-11-18"/>
            </collection>
         </Specimen>
      </resource>
   </entry>
   <entry>
      <fullUrl value="urn:uuid:61ddc26b-1912-44a7-814c-7079fcfc3026"/>
      <resource>
         <Specimen>
            <id value="61ddc26b-1912-44a7-814c-7079fcfc3026"/>
            <meta>
               <profile value="http://hl7.eu/fhir/laboratory/StructureDefinition/Specimen-eu-lab"/>
            </meta>
            <status value="available"/>
            <type>
               <coding>
                  <system value="http://snomed.info/sct"/>
                  <code value="119362004"/>
                  <display value="Platelet poor plasma specimen (specimen) "/>
               </coding>
            </type>
            <collection>
               <collectedDateTime value="2024-11-18"/>
            </collection>
         </Specimen>
      </resource>
   </entry>
   <entry>
      <fullUrl value="urn:uuid:7db46b66-7c51-460e-99e4-7ba139685f55"/>
      <resource>
         <Observation>
            <id value="7db46b66-7c51-460e-99e4-7ba139685f55"/>
            <meta>
               <profile value="http://hl7.eu/fhir/laboratory/StructureDefinition/Observation-resultslab-eu-lab"/>
            </meta>
            <status value="final"/>
            <category>
               <coding>
                  <system value="http://terminology.hl7.org/CodeSystem/observation-category"/>
                  <code value="laboratory"/>
               </coding>
            </category>
            <code>
               <coding>
                  <system value="http://loinc.org"/>
                  <code value="2708-6"/>
                  <display value="Oxygen saturation in Arterial blood"/>
               </coding>
               <text value="Oxygen saturation in Arterial blood"/>
            </code>
            <subject>
               <reference value="urn:uuid:62da47e9-326e-492a-b54e-bf62e7dcc7f3"/>
            </subject>
            <effectiveDateTime value="2024-11-18"/>
            <performer>
               <display value="The Central European Lab"/>
            </performer>
            <valueQuantity>
               <value value="87.5"/>
               <unit value="%"/>
               <system value="http://unitsofmeasure.org"/>
               <code value="%"/>
            </valueQuantity>
            <interpretation>
               <coding>
                  <system value="http://terminology.hl7.org/CodeSystem/v3-ObservationInterpretation"/>
                  <code value="L"/>
                  <display value="Low"/>
               </coding>
            </interpretation>
            <specimen>
               <reference value="urn:uuid:add7de57-628f-49ce-848e-cfca997201cb"/>
            </specimen>
            <referenceRange>
               <low>
                  <value value="95"/>
                  <system value="http://unitsofmeasure.org"/>
                  <code value="%"/>
               </low>
            </referenceRange>
            <referenceRange>
               <high>
                  <value value="100"/>
                  <system value="http://unitsofmeasure.org"/>
                  <code value="%"/>
               </high>
            </referenceRange>
         </Observation>
      </resource>
   </entry>
   <entry>
      <fullUrl value="urn:uuid:6eb34344-866c-4ffa-9e3b-1791be10cad2"/>
      <resource>
         <Observation>
            <id value="6eb34344-866c-4ffa-9e3b-1791be10cad2"/>
            <meta>
               <profile value="http://hl7.eu/fhir/laboratory/StructureDefinition/Observation-resultslab-eu-lab"/>
            </meta>
            <status value="final"/>
            <category>
               <coding>
                  <system value="http://terminology.hl7.org/CodeSystem/observation-category"/>
                  <code value="laboratory"/>
               </coding>
            </category>
            <code>
               <coding>
                  <system value="http://loinc.org"/>
                  <code value="80382-5"/>
                  <display value="Influenza virus A Ag [Presence] in Upper respiratory specimen by Rapid immunoassay"/>
               </coding>
               <text value="Influenza virus A Ag [Presence] in Upper respiratory specimen by Rapid immunoassay"/>
            </code>
            <subject>
               <reference value="urn:uuid:62da47e9-326e-492a-b54e-bf62e7dcc7f3"/>
            </subject>
            <effectiveDateTime value="2024-11-18"/>
            <performer>
               <display value="The Central European Lab"/>
            </performer>
            <valueCodeableConcept>
               <coding>
                  <system value="http://snomed.info/sct"/>
                  <code value="260415000"/>
                  <display value="Not detected"/>
               </coding>
            </valueCodeableConcept>
            <specimen>
               <reference value="urn:uuid:b3bb6891-e5cf-4202-bc0b-7c94bd6ece69"/>
            </specimen>
         </Observation>
      </resource>
   </entry>
   <entry>
      <fullUrl value="urn:uuid:6539b541-54e7-470b-9c44-faad2af49431"/>
      <resource>
         <Observation>
            <id value="6539b541-54e7-470b-9c44-faad2af49431"/>
            <meta>
               <profile value="http://hl7.eu/fhir/laboratory/StructureDefinition/Observation-resultslab-eu-lab"/>
            </meta>
            <status value="final"/>
            <category>
               <coding>
                  <system value="http://terminology.hl7.org/CodeSystem/observation-category"/>
                  <code value="laboratory"/>
               </coding>
            </category>
            <code>
               <coding>
                  <system value="http://loinc.org"/>
                  <code value="80383-3"/>
                  <display value="Influenza virus B Ag [Presence] in Upper respiratory specimen by Rapid immunoassay"/>
               </coding>
               <text value="Influenza virus B Ag [Presence] in Upper respiratory specimen by Rapid immunoassay"/>
            </code>
            <subject>
               <reference value="urn:uuid:62da47e9-326e-492a-b54e-bf62e7dcc7f3"/>
            </subject>
            <effectiveDateTime value="2024-11-18"/>
            <performer>
               <display value="The Central European Lab"/>
            </performer>
            <valueCodeableConcept>
               <coding>
                  <system value="http://snomed.info/sct"/>
                  <code value="260415000"/>
                  <display value="Not detected"/>
               </coding>
            </valueCodeableConcept>
            <specimen>
               <reference value="urn:uuid:b3bb6891-e5cf-4202-bc0b-7c94bd6ece69"/>
            </specimen>
         </Observation>
      </resource>
   </entry>
   <entry>
      <fullUrl value="urn:uuid:ddd3d393-9ad5-48db-98d0-021bb18a3330"/>
      <resource>
         <Observation>
            <id value="ddd3d393-9ad5-48db-98d0-021bb18a3330"/>
            <meta>
               <profile value="http://hl7.eu/fhir/laboratory/StructureDefinition/Observation-resultslab-eu-lab"/>
            </meta>
            <status value="final"/>
            <category>
               <coding>
                  <system value="http://terminology.hl7.org/CodeSystem/observation-category"/>
                  <code value="laboratory"/>
               </coding>
            </category>
            <code>
               <coding>
                  <system value="http://loinc.org"/>
                  <code value="94531-1"/>
                  <display value="SARS-CoV-2 (COVID-19) RNA panel - Respiratory system specimen by NAA with probe detection"/>
               </coding>
               <text value="SARS-CoV-2 (COVID-19) RNA panel - Respiratory system specimen by NAA with probe detection"/>
            </code>
            <subject>
               <reference value="urn:uuid:62da47e9-326e-492a-b54e-bf62e7dcc7f3"/>
            </subject>
            <effectiveDateTime value="2024-11-18"/>
            <performer>
               <display value="The Central European Lab"/>
            </performer>
            <valueCodeableConcept>
               <coding>
                  <system value="http://snomed.info/sct"/>
                  <code value="260373001"/>
                  <display value="Detected"/>
               </coding>
            </valueCodeableConcept>
            <specimen>
               <reference value="urn:uuid:91b85a5d-a0b1-463e-9a26-9ae3f1dc2288"/>
            </specimen>
         </Observation>
      </resource>
   </entry>
   <entry>
      <fullUrl value="urn:uuid:bd39b903-6f1e-450d-b900-187bf2c0bb2d"/>
      <resource>
         <Observation>
            <id value="bd39b903-6f1e-450d-b900-187bf2c0bb2d"/>
            <meta>
               <profile value="http://hl7.eu/fhir/laboratory/StructureDefinition/Observation-resultslab-eu-lab"/>
            </meta>
            <status value="final"/>
            <category>
               <coding>
                  <system value="http://terminology.hl7.org/CodeSystem/observation-category"/>
                  <code value="laboratory"/>
               </coding>
            </category>
            <code>
               <coding>
                  <system value="http://loinc.org"/>
                  <code value="2708-6"/>
                  <display value="Oxygen saturation in Arterial blood"/>
               </coding>
               <text value="Oxygen saturation in Arterial blood"/>
            </code>
            <subject>
               <reference value="urn:uuid:62da47e9-326e-492a-b54e-bf62e7dcc7f3"/>
            </subject>
            <effectiveDateTime value="2024-11-18"/>
            <performer>
               <display value="The Central European Lab"/>
            </performer>
            <valueQuantity>
               <value value="78.4"/>
               <unit value="%"/>
               <system value="http://unitsofmeasure.org"/>
               <code value="%"/>
            </valueQuantity>
            <interpretation>
               <coding>
                  <system value="http://terminology.hl7.org/CodeSystem/v3-ObservationInterpretation"/>
                  <code value="L"/>
                  <display value="Low"/>
               </coding>
            </interpretation>
            <specimen>
               <reference value="urn:uuid:add7de57-628f-49ce-848e-cfca997201cb"/>
            </specimen>
            <referenceRange>
               <low>
                  <value value="95"/>
                  <system value="http://unitsofmeasure.org"/>
                  <code value="%"/>
               </low>
            </referenceRange>
            <referenceRange>
               <high>
                  <value value="100"/>
                  <system value="http://unitsofmeasure.org"/>
                  <code value="%"/>
               </high>
            </referenceRange>
         </Observation>
      </resource>
   </entry>
   <entry>
      <fullUrl value="urn:uuid:c2bf886f-7b70-48cd-9bef-424a65d08ffb"/>
      <resource>
         <Observation>
            <id value="c2bf886f-7b70-48cd-9bef-424a65d08ffb"/>
            <meta>
               <profile value="http://hl7.eu/fhir/laboratory/StructureDefinition/Observation-resultslab-eu-lab"/>
            </meta>
            <status value="final"/>
            <category>
               <coding>
                  <system value="http://terminology.hl7.org/CodeSystem/observation-category"/>
                  <code value="laboratory"/>
               </coding>
            </category>
            <code>
               <coding>
                  <system value="http://loinc.org"/>
                  <code value="6690-2"/>
                  <display value="Leukocytes [#/volume] in Blood by Automated count"/>
               </coding>
               <text value="Leukocytes [#/volume] in Blood by Automated count"/>
            </code>
            <subject>
               <reference value="urn:uuid:62da47e9-326e-492a-b54e-bf62e7dcc7f3"/>
            </subject>
            <effectiveDateTime value="2024-11-18"/>
            <performer>
               <display value="The Central European Lab"/>
            </performer>
            <valueQuantity>
               <value value="3.8"/>
               <unit value="10*3/uL"/>
               <system value="http://unitsofmeasure.org"/>
               <code value="10*3/uL"/>
            </valueQuantity>
            <specimen>
               <reference value="urn:uuid:b6ef6ef4-3bcd-42dc-b02a-08922d783654"/>
            </specimen>
            <referenceRange>
               <low>
                  <value value="3.4"/>
                  <system value="http://unitsofmeasure.org"/>
                  <code value="10*3/uL"/>
               </low>
            </referenceRange>
            <referenceRange>
               <high>
                  <value value="10.6"/>
                  <system value="http://unitsofmeasure.org"/>
                  <code value="10*3/uL"/>
               </high>
            </referenceRange>
         </Observation>
      </resource>
   </entry>
   <entry>
      <fullUrl value="urn:uuid:48ff5d2c-f791-4413-a1af-a64462030717"/>
      <resource>
         <Observation>
            <id value="48ff5d2c-f791-4413-a1af-a64462030717"/>
            <meta>
               <profile value="http://hl7.eu/fhir/laboratory/StructureDefinition/Observation-resultslab-eu-lab"/>
            </meta>
            <status value="final"/>
            <category>
               <coding>
                  <system value="http://terminology.hl7.org/CodeSystem/observation-category"/>
                  <code value="laboratory"/>
               </coding>
            </category>
            <code>
               <coding>
                  <system value="http://loinc.org"/>
                  <code value="789-8"/>
                  <display value="Erythrocytes [#/volume] in Blood by Automated count"/>
               </coding>
               <text value="Erythrocytes [#/volume] in Blood by Automated count"/>
            </code>
            <subject>
               <reference value="urn:uuid:62da47e9-326e-492a-b54e-bf62e7dcc7f3"/>
            </subject>
            <effectiveDateTime value="2024-11-18"/>
            <performer>
               <display value="The Central European Lab"/>
            </performer>
            <valueQuantity>
               <value value="4.8"/>
               <unit value="10*6/uL"/>
               <system value="http://unitsofmeasure.org"/>
               <code value="10*6/uL"/>
            </valueQuantity>
            <specimen>
               <reference value="urn:uuid:b6ef6ef4-3bcd-42dc-b02a-08922d783654"/>
            </specimen>
            <referenceRange>
               <low>
                  <value value="4.5"/>
                  <system value="http://unitsofmeasure.org"/>
                  <code value="10*6/uL"/>
               </low>
            </referenceRange>
            <referenceRange>
               <high>
                  <value value="6.2"/>
                  <system value="http://unitsofmeasure.org"/>
                  <code value="10*6/uL"/>
               </high>
            </referenceRange>
         </Observation>
      </resource>
   </entry>
   <entry>
      <fullUrl value="urn:uuid:48aad6e7-a9d6-4c86-ae1b-293a44508984"/>
      <resource>
         <Observation>
            <id value="48aad6e7-a9d6-4c86-ae1b-293a44508984"/>
            <meta>
               <profile value="http://hl7.eu/fhir/laboratory/StructureDefinition/Observation-resultslab-eu-lab"/>
            </meta>
            <status value="final"/>
            <category>
               <coding>
                  <system value="http://terminology.hl7.org/CodeSystem/observation-category"/>
                  <code value="laboratory"/>
               </coding>
            </category>
            <code>
               <coding>
                  <system value="http://loinc.org"/>
                  <code value="718-7"/>
                  <display value="Hemoglobin [Mass/volume] in Blood"/>
               </coding>
               <text value="Hemoglobin [Mass/volume] in Blood"/>
            </code>
            <subject>
               <reference value="urn:uuid:62da47e9-326e-492a-b54e-bf62e7dcc7f3"/>
            </subject>
            <effectiveDateTime value="2024-11-18"/>
            <performer>
               <display value="The Central European Lab"/>
            </performer>
            <valueQuantity>
               <value value="13.4"/>
               <unit value="g/dL"/>
               <system value="http://unitsofmeasure.org"/>
               <code value="g/dL"/>
            </valueQuantity>
            <interpretation>
               <coding>
                  <system value="http://terminology.hl7.org/CodeSystem/v3-ObservationInterpretation"/>
                  <code value="L"/>
                  <display value="Low"/>
               </coding>
            </interpretation>
            <specimen>
               <reference value="urn:uuid:b6ef6ef4-3bcd-42dc-b02a-08922d783654"/>
            </specimen>
            <referenceRange>
               <low>
                  <value value="13.5"/>
                  <system value="http://unitsofmeasure.org"/>
                  <code value="g/dL"/>
               </low>
            </referenceRange>
            <referenceRange>
               <high>
                  <value value="17.5"/>
                  <system value="http://unitsofmeasure.org"/>
                  <code value="g/dL"/>
               </high>
            </referenceRange>
         </Observation>
      </resource>
   </entry>
   <entry>
      <fullUrl value="urn:uuid:bcb12945-82e9-4d40-b086-d9efb2aae855"/>
      <resource>
         <Observation>
            <id value="bcb12945-82e9-4d40-b086-d9efb2aae855"/>
            <meta>
               <profile value="http://hl7.eu/fhir/laboratory/StructureDefinition/Observation-resultslab-eu-lab"/>
            </meta>
            <status value="final"/>
            <category>
               <coding>
                  <system value="http://terminology.hl7.org/CodeSystem/observation-category"/>
                  <code value="laboratory"/>
               </coding>
            </category>
            <code>
               <coding>
                  <system value="http://loinc.org"/>
                  <code value="4544-3"/>
                  <display value="Hematocrit [Volume Fraction] of Blood by Automated count"/>
               </coding>
               <text value="Hematocrit [Volume Fraction] of Blood by Automated count"/>
            </code>
            <subject>
               <reference value="urn:uuid:62da47e9-326e-492a-b54e-bf62e7dcc7f3"/>
            </subject>
            <effectiveDateTime value="2024-11-18"/>
            <performer>
               <display value="The Central European Lab"/>
            </performer>
            <valueQuantity>
               <value value="40.8"/>
               <unit value="%"/>
               <system value="http://unitsofmeasure.org"/>
               <code value="%"/>
            </valueQuantity>
            <specimen>
               <reference value="urn:uuid:b6ef6ef4-3bcd-42dc-b02a-08922d783654"/>
            </specimen>
            <referenceRange>
               <low>
                  <value value="38"/>
                  <system value="http://unitsofmeasure.org"/>
                  <code value="%"/>
               </low>
            </referenceRange>
            <referenceRange>
               <high>
                  <value value="50"/>
                  <system value="http://unitsofmeasure.org"/>
                  <code value="%"/>
               </high>
            </referenceRange>
         </Observation>
      </resource>
   </entry>
   <entry>
      <fullUrl value="urn:uuid:a1581b42-f6a3-41bb-bbc4-aa6486b48dd7"/>
      <resource>
         <Observation>
            <id value="a1581b42-f6a3-41bb-bbc4-aa6486b48dd7"/>
            <meta>
               <profile value="http://hl7.eu/fhir/laboratory/StructureDefinition/Observation-resultslab-eu-lab"/>
            </meta>
            <status value="final"/>
            <category>
               <coding>
                  <system value="http://terminology.hl7.org/CodeSystem/observation-category"/>
                  <code value="laboratory"/>
               </coding>
            </category>
            <code>
               <coding>
                  <system value="http://loinc.org"/>
                  <code value="787-2"/>
                  <display value="MCV [Entitic volume] by Automated count"/>
               </coding>
               <text value="MCV [Entitic volume] by Automated count"/>
            </code>
            <subject>
               <reference value="urn:uuid:62da47e9-326e-492a-b54e-bf62e7dcc7f3"/>
            </subject>
            <effectiveDateTime value="2024-11-18"/>
            <performer>
               <display value="The Central European Lab"/>
            </performer>
            <valueQuantity>
               <value value="86.8"/>
               <unit value="fL"/>
               <system value="http://unitsofmeasure.org"/>
               <code value="fL"/>
            </valueQuantity>
            <specimen>
               <reference value="urn:uuid:9327abc7-52ad-4001-9c02-9fdba49fa907"/>
            </specimen>
            <referenceRange>
               <low>
                  <value value="82"/>
                  <system value="http://unitsofmeasure.org"/>
                  <code value="fL"/>
               </low>
            </referenceRange>
            <referenceRange>
               <high>
                  <value value="98"/>
                  <system value="http://unitsofmeasure.org"/>
                  <code value="fL"/>
               </high>
            </referenceRange>
         </Observation>
      </resource>
   </entry>
   <entry>
      <fullUrl value="urn:uuid:c794dc62-b56a-4ed8-8789-b14c497d83ac"/>
      <resource>
         <Observation>
            <id value="c794dc62-b56a-4ed8-8789-b14c497d83ac"/>
            <meta>
               <profile value="http://hl7.eu/fhir/laboratory/StructureDefinition/Observation-resultslab-eu-lab"/>
            </meta>
            <status value="final"/>
            <category>
               <coding>
                  <system value="http://terminology.hl7.org/CodeSystem/observation-category"/>
                  <code value="laboratory"/>
               </coding>
            </category>
            <code>
               <coding>
                  <system value="http://loinc.org"/>
                  <code value="785-6"/>
                  <display value="MCH [Entitic mass] by Automated count"/>
               </coding>
               <text value="MCH [Entitic mass] by Automated count"/>
            </code>
            <subject>
               <reference value="urn:uuid:62da47e9-326e-492a-b54e-bf62e7dcc7f3"/>
            </subject>
            <effectiveDateTime value="2024-11-18"/>
            <performer>
               <display value="The Central European Lab"/>
            </performer>
            <valueQuantity>
               <value value="31.2"/>
               <unit value="pg"/>
               <system value="http://unitsofmeasure.org"/>
               <code value="pg"/>
            </valueQuantity>
            <specimen>
               <reference value="urn:uuid:9327abc7-52ad-4001-9c02-9fdba49fa907"/>
            </specimen>
            <referenceRange>
               <low>
                  <value value="27"/>
                  <system value="http://unitsofmeasure.org"/>
                  <code value="pg"/>
               </low>
            </referenceRange>
            <referenceRange>
               <high>
                  <value value="34"/>
                  <system value="http://unitsofmeasure.org"/>
                  <code value="pg"/>
               </high>
            </referenceRange>
         </Observation>
      </resource>
   </entry>
   <entry>
      <fullUrl value="urn:uuid:79ea0d09-d4fa-4256-b5f0-7af7cf586de5"/>
      <resource>
         <Observation>
            <id value="79ea0d09-d4fa-4256-b5f0-7af7cf586de5"/>
            <meta>
               <profile value="http://hl7.eu/fhir/laboratory/StructureDefinition/Observation-resultslab-eu-lab"/>
            </meta>
            <status value="final"/>
            <category>
               <coding>
                  <system value="http://terminology.hl7.org/CodeSystem/observation-category"/>
                  <code value="laboratory"/>
               </coding>
            </category>
            <code>
               <coding>
                  <system value="http://loinc.org"/>
                  <code value="786-4"/>
                  <display value="MCHC [Mass/volume] by Automated count"/>
               </coding>
               <text value="MCHC [Mass/volume] by Automated count"/>
            </code>
            <subject>
               <reference value="urn:uuid:62da47e9-326e-492a-b54e-bf62e7dcc7f3"/>
            </subject>
            <effectiveDateTime value="2024-11-18"/>
            <performer>
               <display value="The Central European Lab"/>
            </performer>
            <valueQuantity>
               <value value="33.9"/>
               <unit value="g/dL"/>
               <system value="http://unitsofmeasure.org"/>
               <code value="g/dL"/>
            </valueQuantity>
            <specimen>
               <reference value="urn:uuid:9327abc7-52ad-4001-9c02-9fdba49fa907"/>
            </specimen>
            <referenceRange>
               <low>
                  <value value="31"/>
                  <system value="http://unitsofmeasure.org"/>
                  <code value="g/dL"/>
               </low>
            </referenceRange>
            <referenceRange>
               <high>
                  <value value="35"/>
                  <system value="http://unitsofmeasure.org"/>
                  <code value="g/dL"/>
               </high>
            </referenceRange>
         </Observation>
      </resource>
   </entry>
   <entry>
      <fullUrl value="urn:uuid:acfba6de-89d4-48e2-965c-d811a61f843e"/>
      <resource>
         <Observation>
            <id value="acfba6de-89d4-48e2-965c-d811a61f843e"/>
            <meta>
               <profile value="http://hl7.eu/fhir/laboratory/StructureDefinition/Observation-resultslab-eu-lab"/>
            </meta>
            <status value="final"/>
            <category>
               <coding>
                  <system value="http://terminology.hl7.org/CodeSystem/observation-category"/>
                  <code value="laboratory"/>
               </coding>
            </category>
            <code>
               <coding>
                  <system value="http://loinc.org"/>
                  <code value="788-0"/>
                  <display value="Erythrocyte distribution width [Ratio] by Automated count"/>
               </coding>
               <text value="Erythrocyte distribution width [Ratio] by Automated count"/>
            </code>
            <subject>
               <reference value="urn:uuid:62da47e9-326e-492a-b54e-bf62e7dcc7f3"/>
            </subject>
            <effectiveDateTime value="2024-11-18"/>
            <performer>
               <display value="The Central European Lab"/>
            </performer>
            <valueQuantity>
               <value value="15"/>
               <unit value="%"/>
               <system value="http://unitsofmeasure.org"/>
               <code value="%"/>
            </valueQuantity>
            <specimen>
               <reference value="urn:uuid:9327abc7-52ad-4001-9c02-9fdba49fa907"/>
            </specimen>
            <referenceRange>
               <low>
                  <value value="11.5"/>
                  <system value="http://unitsofmeasure.org"/>
                  <code value="%"/>
               </low>
            </referenceRange>
            <referenceRange>
               <high>
                  <value value="16.5"/>
                  <system value="http://unitsofmeasure.org"/>
                  <code value="%"/>
               </high>
            </referenceRange>
         </Observation>
      </resource>
   </entry>
   <entry>
      <fullUrl value="urn:uuid:252346f5-1224-4212-9461-a71f957633fb"/>
      <resource>
         <Observation>
            <id value="252346f5-1224-4212-9461-a71f957633fb"/>
            <meta>
               <profile value="http://hl7.eu/fhir/laboratory/StructureDefinition/Observation-resultslab-eu-lab"/>
            </meta>
            <status value="final"/>
            <category>
               <coding>
                  <system value="http://terminology.hl7.org/CodeSystem/observation-category"/>
                  <code value="laboratory"/>
               </coding>
            </category>
            <code>
               <coding>
                  <system value="http://loinc.org"/>
                  <code value="777-3"/>
                  <display value="Platelets [#/volume] in Blood by Automated count"/>
               </coding>
               <text value="Platelets [#/volume] in Blood by Automated count"/>
            </code>
            <subject>
               <reference value="urn:uuid:62da47e9-326e-492a-b54e-bf62e7dcc7f3"/>
            </subject>
            <effectiveDateTime value="2024-11-18"/>
            <performer>
               <display value="The Central European Lab"/>
            </performer>
            <valueQuantity>
               <value value="99.9"/>
               <unit value="10*3/uL"/>
               <system value="http://unitsofmeasure.org"/>
               <code value="10*3/uL"/>
            </valueQuantity>
            <interpretation>
               <coding>
                  <system value="http://terminology.hl7.org/CodeSystem/v3-ObservationInterpretation"/>
                  <code value="L"/>
                  <display value="Low"/>
               </coding>
            </interpretation>
            <specimen>
               <reference value="urn:uuid:b6ef6ef4-3bcd-42dc-b02a-08922d783654"/>
            </specimen>
            <referenceRange>
               <low>
                  <value value="150"/>
                  <system value="http://unitsofmeasure.org"/>
                  <code value="10*3/uL"/>
               </low>
            </referenceRange>
            <referenceRange>
               <high>
                  <value value="300"/>
                  <system value="http://unitsofmeasure.org"/>
                  <code value="10*3/uL"/>
               </high>
            </referenceRange>
         </Observation>
      </resource>
   </entry>
   <entry>
      <fullUrl value="urn:uuid:c4755bdc-a922-4650-a7a0-614d0e7961d0"/>
      <resource>
         <Observation>
            <id value="c4755bdc-a922-4650-a7a0-614d0e7961d0"/>
            <meta>
               <profile value="http://hl7.eu/fhir/laboratory/StructureDefinition/Observation-resultslab-eu-lab"/>
            </meta>
            <status value="final"/>
            <category>
               <coding>
                  <system value="http://terminology.hl7.org/CodeSystem/observation-category"/>
                  <code value="laboratory"/>
               </coding>
            </category>
            <code>
               <coding>
                  <system value="http://loinc.org"/>
                  <code value="770-8"/>
                  <display value="Neutrophils/100 leukocytes in Blood by Automated count"/>
               </coding>
               <text value="Neutrophils/100 leukocytes in Blood by Automated count"/>
            </code>
            <subject>
               <reference value="urn:uuid:62da47e9-326e-492a-b54e-bf62e7dcc7f3"/>
            </subject>
            <effectiveDateTime value="2024-11-18"/>
            <performer>
               <display value="The Central European Lab"/>
            </performer>
            <valueQuantity>
               <value value="39.3"/>
               <unit value="%"/>
               <system value="http://unitsofmeasure.org"/>
               <code value="%"/>
            </valueQuantity>
            <interpretation>
               <coding>
                  <system value="http://terminology.hl7.org/CodeSystem/v3-ObservationInterpretation"/>
                  <code value="L"/>
                  <display value="Low"/>
               </coding>
            </interpretation>
            <specimen>
               <reference value="urn:uuid:b6ef6ef4-3bcd-42dc-b02a-08922d783654"/>
            </specimen>
            <referenceRange>
               <low>
                  <value value="40"/>
                  <system value="http://unitsofmeasure.org"/>
                  <code value="%"/>
               </low>
            </referenceRange>
            <referenceRange>
               <high>
                  <value value="74"/>
                  <system value="http://unitsofmeasure.org"/>
                  <code value="%"/>
               </high>
            </referenceRange>
         </Observation>
      </resource>
   </entry>
   <entry>
      <fullUrl value="urn:uuid:855aa6d2-352a-409d-ba1d-34dc21323cf8"/>
      <resource>
         <Observation>
            <id value="855aa6d2-352a-409d-ba1d-34dc21323cf8"/>
            <meta>
               <profile value="http://hl7.eu/fhir/laboratory/StructureDefinition/Observation-resultslab-eu-lab"/>
            </meta>
            <status value="final"/>
            <category>
               <coding>
                  <system value="http://terminology.hl7.org/CodeSystem/observation-category"/>
                  <code value="laboratory"/>
               </coding>
            </category>
            <code>
               <coding>
                  <system value="http://loinc.org"/>
                  <code value="736-9"/>
                  <display value="Lymphocytes/100 leukocytes in Blood by Automated count"/>
               </coding>
               <text value="Lymphocytes/100 leukocytes in Blood by Automated count"/>
            </code>
            <subject>
               <reference value="urn:uuid:62da47e9-326e-492a-b54e-bf62e7dcc7f3"/>
            </subject>
            <effectiveDateTime value="2024-11-18"/>
            <performer>
               <display value="The Central European Lab"/>
            </performer>
            <valueQuantity>
               <value value="15"/>
               <unit value="%"/>
               <system value="http://unitsofmeasure.org"/>
               <code value="%"/>
            </valueQuantity>
            <interpretation>
               <coding>
                  <system value="http://terminology.hl7.org/CodeSystem/v3-ObservationInterpretation"/>
                  <code value="L"/>
                  <display value="Low"/>
               </coding>
            </interpretation>
            <specimen>
               <reference value="urn:uuid:b6ef6ef4-3bcd-42dc-b02a-08922d783654"/>
            </specimen>
            <referenceRange>
               <low>
                  <value value="20"/>
                  <system value="http://unitsofmeasure.org"/>
                  <code value="%"/>
               </low>
            </referenceRange>
            <referenceRange>
               <high>
                  <value value="40"/>
                  <system value="http://unitsofmeasure.org"/>
                  <code value="%"/>
               </high>
            </referenceRange>
         </Observation>
      </resource>
   </entry>
   <entry>
      <fullUrl value="urn:uuid:2b2cbfa8-8897-4afc-af8c-d84c5f1170fe"/>
      <resource>
         <Observation>
            <id value="2b2cbfa8-8897-4afc-af8c-d84c5f1170fe"/>
            <meta>
               <profile value="http://hl7.eu/fhir/laboratory/StructureDefinition/Observation-resultslab-eu-lab"/>
            </meta>
            <status value="final"/>
            <category>
               <coding>
                  <system value="http://terminology.hl7.org/CodeSystem/observation-category"/>
                  <code value="laboratory"/>
               </coding>
            </category>
            <code>
               <coding>
                  <system value="http://loinc.org"/>
                  <code value="5905-5"/>
                  <display value="Monocytes/100 leukocytes in Blood by Automated count"/>
               </coding>
               <text value="Monocytes/100 leukocytes in Blood by Automated count"/>
            </code>
            <subject>
               <reference value="urn:uuid:62da47e9-326e-492a-b54e-bf62e7dcc7f3"/>
            </subject>
            <effectiveDateTime value="2024-11-18"/>
            <performer>
               <display value="The Central European Lab"/>
            </performer>
            <valueQuantity>
               <value value="8.4"/>
               <unit value="%"/>
               <system value="http://unitsofmeasure.org"/>
               <code value="%"/>
            </valueQuantity>
            <specimen>
               <reference value="urn:uuid:b6ef6ef4-3bcd-42dc-b02a-08922d783654"/>
            </specimen>
            <referenceRange>
               <low>
                  <value value="2"/>
                  <system value="http://unitsofmeasure.org"/>
                  <code value="%"/>
               </low>
            </referenceRange>
            <referenceRange>
               <high>
                  <value value="10"/>
                  <system value="http://unitsofmeasure.org"/>
                  <code value="%"/>
               </high>
            </referenceRange>
         </Observation>
      </resource>
   </entry>
   <entry>
      <fullUrl value="urn:uuid:2d8a4e80-1459-4ef8-8bbb-13e9ac20e246"/>
      <resource>
         <Observation>
            <id value="2d8a4e80-1459-4ef8-8bbb-13e9ac20e246"/>
            <meta>
               <profile value="http://hl7.eu/fhir/laboratory/StructureDefinition/Observation-resultslab-eu-lab"/>
            </meta>
            <status value="final"/>
            <category>
               <coding>
                  <system value="http://terminology.hl7.org/CodeSystem/observation-category"/>
                  <code value="laboratory"/>
               </coding>
            </category>
            <code>
               <coding>
                  <system value="http://loinc.org"/>
                  <code value="713-8"/>
                  <display value="Eosinophils/100 leukocytes in Blood by Automated count"/>
               </coding>
               <text value="Eosinophils/100 leukocytes in Blood by Automated count"/>
            </code>
            <subject>
               <reference value="urn:uuid:62da47e9-326e-492a-b54e-bf62e7dcc7f3"/>
            </subject>
            <effectiveDateTime value="2024-11-18"/>
            <performer>
               <display value="The Central European Lab"/>
            </performer>
            <valueQuantity>
               <value value="3.7"/>
               <unit value="%"/>
               <system value="http://unitsofmeasure.org"/>
               <code value="%"/>
            </valueQuantity>
            <specimen>
               <reference value="urn:uuid:b6ef6ef4-3bcd-42dc-b02a-08922d783654"/>
            </specimen>
            <referenceRange>
               <low>
                  <value value="0"/>
                  <system value="http://unitsofmeasure.org"/>
                  <code value="%"/>
               </low>
            </referenceRange>
            <referenceRange>
               <high>
                  <value value="6"/>
                  <system value="http://unitsofmeasure.org"/>
                  <code value="%"/>
               </high>
            </referenceRange>
         </Observation>
      </resource>
   </entry>
   <entry>
      <fullUrl value="urn:uuid:d8d760e0-7cef-4796-9dfd-0ab688164c41"/>
      <resource>
         <Observation>
            <id value="d8d760e0-7cef-4796-9dfd-0ab688164c41"/>
            <meta>
               <profile value="http://hl7.eu/fhir/laboratory/StructureDefinition/Observation-resultslab-eu-lab"/>
            </meta>
            <status value="final"/>
            <category>
               <coding>
                  <system value="http://terminology.hl7.org/CodeSystem/observation-category"/>
                  <code value="laboratory"/>
               </coding>
            </category>
            <code>
               <coding>
                  <system value="http://loinc.org"/>
                  <code value="706-2"/>
                  <display value="Basophils/100 leukocytes in Blood by Automated count"/>
               </coding>
               <text value="Basophils/100 leukocytes in Blood by Automated count"/>
            </code>
            <subject>
               <reference value="urn:uuid:62da47e9-326e-492a-b54e-bf62e7dcc7f3"/>
            </subject>
            <effectiveDateTime value="2024-11-18"/>
            <performer>
               <display value="The Central European Lab"/>
            </performer>
            <valueQuantity>
               <value value="2.2"/>
               <unit value="%"/>
               <system value="http://unitsofmeasure.org"/>
               <code value="%"/>
            </valueQuantity>
            <specimen>
               <reference value="urn:uuid:b6ef6ef4-3bcd-42dc-b02a-08922d783654"/>
            </specimen>
            <referenceRange>
               <low>
                  <value value="0.5"/>
                  <system value="http://unitsofmeasure.org"/>
                  <code value="%"/>
               </low>
            </referenceRange>
            <referenceRange>
               <high>
                  <value value="3"/>
                  <system value="http://unitsofmeasure.org"/>
                  <code value="%"/>
               </high>
            </referenceRange>
         </Observation>
      </resource>
   </entry>
   <entry>
      <fullUrl value="urn:uuid:4d603f4b-f62a-4089-9a28-f4a29d0a8b50"/>
      <resource>
         <Observation>
            <id value="4d603f4b-f62a-4089-9a28-f4a29d0a8b50"/>
            <meta>
               <profile value="http://hl7.eu/fhir/laboratory/StructureDefinition/Observation-resultslab-eu-lab"/>
            </meta>
            <status value="final"/>
            <category>
               <coding>
                  <system value="http://terminology.hl7.org/CodeSystem/observation-category"/>
                  <code value="laboratory"/>
               </coding>
            </category>
            <code>
               <coding>
                  <system value="http://loinc.org"/>
                  <code value="751-8"/>
                  <display value="Neutrophils [#/volume] in Blood by Automated count"/>
               </coding>
               <text value="Neutrophils [#/volume] in Blood by Automated count"/>
            </code>
            <subject>
               <reference value="urn:uuid:62da47e9-326e-492a-b54e-bf62e7dcc7f3"/>
            </subject>
            <effectiveDateTime value="2024-11-18"/>
            <performer>
               <display value="The Central European Lab"/>
            </performer>
            <valueQuantity>
               <value value="3.4"/>
               <unit value="10*3/uL"/>
               <system value="http://unitsofmeasure.org"/>
               <code value="10*3/uL"/>
            </valueQuantity>
            <specimen>
               <reference value="urn:uuid:b6ef6ef4-3bcd-42dc-b02a-08922d783654"/>
            </specimen>
            <referenceRange>
               <low>
                  <value value="2"/>
                  <system value="http://unitsofmeasure.org"/>
                  <code value="10*3/uL"/>
               </low>
            </referenceRange>
            <referenceRange>
               <high>
                  <value value="7"/>
                  <system value="http://unitsofmeasure.org"/>
                  <code value="10*3/uL"/>
               </high>
            </referenceRange>
         </Observation>
      </resource>
   </entry>
   <entry>
      <fullUrl value="urn:uuid:b0f15438-f462-48c6-bfcd-9c949f0be6e9"/>
      <resource>
         <Observation>
            <id value="b0f15438-f462-48c6-bfcd-9c949f0be6e9"/>
            <meta>
               <profile value="http://hl7.eu/fhir/laboratory/StructureDefinition/Observation-resultslab-eu-lab"/>
            </meta>
            <status value="final"/>
            <category>
               <coding>
                  <system value="http://terminology.hl7.org/CodeSystem/observation-category"/>
                  <code value="laboratory"/>
               </coding>
            </category>
            <code>
               <coding>
                  <system value="http://loinc.org"/>
                  <code value="731-0"/>
                  <display value="Lymphocytes [#/volume] in Blood by Automated count"/>
               </coding>
               <text value="Lymphocytes [#/volume] in Blood by Automated count"/>
            </code>
            <subject>
               <reference value="urn:uuid:62da47e9-326e-492a-b54e-bf62e7dcc7f3"/>
            </subject>
            <effectiveDateTime value="2024-11-18"/>
            <performer>
               <display value="The Central European Lab"/>
            </performer>
            <valueQuantity>
               <value value="1"/>
               <unit value="10*3/uL"/>
               <system value="http://unitsofmeasure.org"/>
               <code value="10*3/uL"/>
            </valueQuantity>
            <specimen>
               <reference value="urn:uuid:b6ef6ef4-3bcd-42dc-b02a-08922d783654"/>
            </specimen>
            <referenceRange>
               <low>
                  <value value="1"/>
                  <system value="http://unitsofmeasure.org"/>
                  <code value="10*3/uL"/>
               </low>
            </referenceRange>
            <referenceRange>
               <high>
                  <value value="4.8"/>
                  <system value="http://unitsofmeasure.org"/>
                  <code value="10*3/uL"/>
               </high>
            </referenceRange>
         </Observation>
      </resource>
   </entry>
   <entry>
      <fullUrl value="urn:uuid:df7f7931-10e3-49f9-b1a2-56a7d9995716"/>
      <resource>
         <Observation>
            <id value="df7f7931-10e3-49f9-b1a2-56a7d9995716"/>
            <meta>
               <profile value="http://hl7.eu/fhir/laboratory/StructureDefinition/Observation-resultslab-eu-lab"/>
            </meta>
            <status value="final"/>
            <category>
               <coding>
                  <system value="http://terminology.hl7.org/CodeSystem/observation-category"/>
                  <code value="laboratory"/>
               </coding>
            </category>
            <code>
               <coding>
                  <system value="http://loinc.org"/>
                  <code value="742-7"/>
                  <display value="Monocytes [#/volume] in Blood by Automated count"/>
               </coding>
               <text value="Monocytes [#/volume] in Blood by Automated count"/>
            </code>
            <subject>
               <reference value="urn:uuid:62da47e9-326e-492a-b54e-bf62e7dcc7f3"/>
            </subject>
            <effectiveDateTime value="2024-11-18"/>
            <performer>
               <display value="The Central European Lab"/>
            </performer>
            <valueQuantity>
               <value value="1"/>
               <unit value="10*3/uL"/>
               <system value="http://unitsofmeasure.org"/>
               <code value="10*3/uL"/>
            </valueQuantity>
            <interpretation>
               <coding>
                  <system value="http://terminology.hl7.org/CodeSystem/v3-ObservationInterpretation"/>
                  <code value="H"/>
                  <display value="High"/>
               </coding>
            </interpretation>
            <specimen>
               <reference value="urn:uuid:b6ef6ef4-3bcd-42dc-b02a-08922d783654"/>
            </specimen>
            <referenceRange>
               <low>
                  <value value="0.7"/>
                  <system value="http://unitsofmeasure.org"/>
                  <code value="10*3/uL"/>
               </low>
            </referenceRange>
            <referenceRange>
               <high>
                  <value value="0.9"/>
                  <system value="http://unitsofmeasure.org"/>
                  <code value="10*3/uL"/>
               </high>
            </referenceRange>
         </Observation>
      </resource>
   </entry>
   <entry>
      <fullUrl value="urn:uuid:043e21ea-8be8-4e53-82f8-dbb06f82c811"/>
      <resource>
         <Observation>
            <id value="043e21ea-8be8-4e53-82f8-dbb06f82c811"/>
            <meta>
               <profile value="http://hl7.eu/fhir/laboratory/StructureDefinition/Observation-resultslab-eu-lab"/>
            </meta>
            <status value="final"/>
            <category>
               <coding>
                  <system value="http://terminology.hl7.org/CodeSystem/observation-category"/>
                  <code value="laboratory"/>
               </coding>
            </category>
            <code>
               <coding>
                  <system value="http://loinc.org"/>
                  <code value="711-2"/>
                  <display value="Eosinophils [#/volume] in Blood by Automated count"/>
               </coding>
               <text value="Eosinophils [#/volume] in Blood by Automated count"/>
            </code>
            <subject>
               <reference value="urn:uuid:62da47e9-326e-492a-b54e-bf62e7dcc7f3"/>
            </subject>
            <effectiveDateTime value="2024-11-18"/>
            <performer>
               <display value="The Central European Lab"/>
            </performer>
            <valueQuantity>
               <value value="0.6"/>
               <unit value="10*3/uL"/>
               <system value="http://unitsofmeasure.org"/>
               <code value="10*3/uL"/>
            </valueQuantity>
            <specimen>
               <reference value="urn:uuid:b6ef6ef4-3bcd-42dc-b02a-08922d783654"/>
            </specimen>
            <referenceRange>
               <low>
                  <value value="0"/>
                  <system value="http://unitsofmeasure.org"/>
                  <code value="10*3/uL"/>
               </low>
            </referenceRange>
            <referenceRange>
               <high>
                  <value value="0.7"/>
                  <system value="http://unitsofmeasure.org"/>
                  <code value="10*3/uL"/>
               </high>
            </referenceRange>
         </Observation>
      </resource>
   </entry>
   <entry>
      <fullUrl value="urn:uuid:af9ef7e7-19b7-4ed4-a8d0-8acef00cd3a4"/>
      <resource>
         <Observation>
            <id value="af9ef7e7-19b7-4ed4-a8d0-8acef00cd3a4"/>
            <meta>
               <profile value="http://hl7.eu/fhir/laboratory/StructureDefinition/Observation-resultslab-eu-lab"/>
            </meta>
            <status value="final"/>
            <category>
               <coding>
                  <system value="http://terminology.hl7.org/CodeSystem/observation-category"/>
                  <code value="laboratory"/>
               </coding>
            </category>
            <code>
               <coding>
                  <system value="http://loinc.org"/>
                  <code value="704-7"/>
                  <display value="Basophils [#/volume] in Blood by Automated count"/>
               </coding>
               <text value="Basophils [#/volume] in Blood by Automated count"/>
            </code>
            <subject>
               <reference value="urn:uuid:62da47e9-326e-492a-b54e-bf62e7dcc7f3"/>
            </subject>
            <effectiveDateTime value="2024-11-18"/>
            <performer>
               <display value="The Central European Lab"/>
            </performer>
            <valueQuantity>
               <value value="0.3"/>
               <unit value="10*3/uL"/>
               <system value="http://unitsofmeasure.org"/>
               <code value="10*3/uL"/>
            </valueQuantity>
            <interpretation>
               <coding>
                  <system value="http://terminology.hl7.org/CodeSystem/v3-ObservationInterpretation"/>
                  <code value="H"/>
                  <display value="High"/>
               </coding>
            </interpretation>
            <specimen>
               <reference value="urn:uuid:b6ef6ef4-3bcd-42dc-b02a-08922d783654"/>
            </specimen>
            <referenceRange>
               <low>
                  <value value="0.1"/>
                  <system value="http://unitsofmeasure.org"/>
                  <code value="10*3/uL"/>
               </low>
            </referenceRange>
            <referenceRange>
               <high>
                  <value value="0.2"/>
                  <system value="http://unitsofmeasure.org"/>
                  <code value="10*3/uL"/>
               </high>
            </referenceRange>
         </Observation>
      </resource>
   </entry>
   <entry>
      <fullUrl value="urn:uuid:38790e6a-1c70-484f-8ce8-7cc0056948c2"/>
      <resource>
         <Observation>
            <id value="38790e6a-1c70-484f-8ce8-7cc0056948c2"/>
            <meta>
               <profile value="http://hl7.eu/fhir/laboratory/StructureDefinition/Observation-resultslab-eu-lab"/>
            </meta>
            <status value="final"/>
            <category>
               <coding>
                  <system value="http://terminology.hl7.org/CodeSystem/observation-category"/>
                  <code value="laboratory"/>
               </coding>
            </category>
            <code>
               <coding>
                  <system value="http://loinc.org"/>
                  <code value="2345-7"/>
                  <display value="Glucose [Mass/volume] in Serum or Plasma"/>
               </coding>
               <text value="Glucose [Mass/volume] in Serum or Plasma"/>
            </code>
            <subject>
               <reference value="urn:uuid:62da47e9-326e-492a-b54e-bf62e7dcc7f3"/>
            </subject>
            <effectiveDateTime value="2024-11-18"/>
            <performer>
               <display value="The Central European Lab"/>
            </performer>
            <valueQuantity>
               <value value="69.5"/>
               <unit value="mg/dL"/>
               <system value="http://unitsofmeasure.org"/>
               <code value="mg/dL"/>
            </valueQuantity>
            <interpretation>
               <coding>
                  <system value="http://terminology.hl7.org/CodeSystem/v3-ObservationInterpretation"/>
                  <code value="L"/>
                  <display value="Low"/>
               </coding>
            </interpretation>
            <specimen>
               <reference value="urn:uuid:e1412f51-f319-468a-9feb-55bb488d8f5f"/>
            </specimen>
            <referenceRange>
               <low>
                  <value value="70"/>
                  <system value="http://unitsofmeasure.org"/>
                  <code value="mg/dL"/>
               </low>
            </referenceRange>
            <referenceRange>
               <high>
                  <value value="99"/>
                  <system value="http://unitsofmeasure.org"/>
                  <code value="mg/dL"/>
               </high>
            </referenceRange>
         </Observation>
      </resource>
   </entry>
   <entry>
      <fullUrl value="urn:uuid:ec3259a9-1170-4651-8968-7589b52e8afa"/>
      <resource>
         <Observation>
            <id value="ec3259a9-1170-4651-8968-7589b52e8afa"/>
            <meta>
               <profile value="http://hl7.eu/fhir/laboratory/StructureDefinition/Observation-resultslab-eu-lab"/>
            </meta>
            <status value="final"/>
            <category>
               <coding>
                  <system value="http://terminology.hl7.org/CodeSystem/observation-category"/>
                  <code value="laboratory"/>
               </coding>
            </category>
            <code>
               <coding>
                  <system value="http://loinc.org"/>
                  <code value="3094-0"/>
                  <display value="Urea nitrogen [Mass/volume] in Serum or Plasma"/>
               </coding>
               <text value="Urea nitrogen [Mass/volume] in Serum or Plasma"/>
            </code>
            <subject>
               <reference value="urn:uuid:62da47e9-326e-492a-b54e-bf62e7dcc7f3"/>
            </subject>
            <effectiveDateTime value="2024-11-18"/>
            <performer>
               <display value="The Central European Lab"/>
            </performer>
            <valueQuantity>
               <value value="12.6"/>
               <unit value="mg/dL"/>
               <system value="http://unitsofmeasure.org"/>
               <code value="mg/dL"/>
            </valueQuantity>
            <specimen>
               <reference value="urn:uuid:e1412f51-f319-468a-9feb-55bb488d8f5f"/>
            </specimen>
            <referenceRange>
               <low>
                  <value value="7"/>
                  <system value="http://unitsofmeasure.org"/>
                  <code value="mg/dL"/>
               </low>
            </referenceRange>
            <referenceRange>
               <high>
                  <value value="20"/>
                  <system value="http://unitsofmeasure.org"/>
                  <code value="mg/dL"/>
               </high>
            </referenceRange>
         </Observation>
      </resource>
   </entry>
   <entry>
      <fullUrl value="urn:uuid:44ad851c-be8f-4c36-bb58-436f3f95f855"/>
      <resource>
         <Observation>
            <id value="44ad851c-be8f-4c36-bb58-436f3f95f855"/>
            <meta>
               <profile value="http://hl7.eu/fhir/laboratory/StructureDefinition/Observation-resultslab-eu-lab"/>
            </meta>
            <status value="final"/>
            <category>
               <coding>
                  <system value="http://terminology.hl7.org/CodeSystem/observation-category"/>
                  <code value="laboratory"/>
               </coding>
            </category>
            <code>
               <coding>
                  <system value="http://loinc.org"/>
                  <code value="2160-0"/>
                  <display value="Creatinine [Mass/volume] in Serum or Plasma"/>
               </coding>
               <text value="Creatinine [Mass/volume] in Serum or Plasma"/>
            </code>
            <subject>
               <reference value="urn:uuid:62da47e9-326e-492a-b54e-bf62e7dcc7f3"/>
            </subject>
            <effectiveDateTime value="2024-11-18"/>
            <performer>
               <display value="The Central European Lab"/>
            </performer>
            <valueQuantity>
               <value value="2.9"/>
               <unit value="mg/dL"/>
               <system value="http://unitsofmeasure.org"/>
               <code value="mg/dL"/>
            </valueQuantity>
            <interpretation>
               <coding>
                  <system value="http://terminology.hl7.org/CodeSystem/v3-ObservationInterpretation"/>
                  <code value="H"/>
                  <display value="High"/>
               </coding>
            </interpretation>
            <specimen>
               <reference value="urn:uuid:e1412f51-f319-468a-9feb-55bb488d8f5f"/>
            </specimen>
            <referenceRange>
               <low>
                  <value value="0.9"/>
                  <system value="http://unitsofmeasure.org"/>
                  <code value="mg/dL"/>
               </low>
            </referenceRange>
            <referenceRange>
               <high>
                  <value value="1.3"/>
                  <system value="http://unitsofmeasure.org"/>
                  <code value="mg/dL"/>
               </high>
            </referenceRange>
         </Observation>
      </resource>
   </entry>
   <entry>
      <fullUrl value="urn:uuid:dd3f1dac-c7ba-4aa4-bf01-cd7a20bc4d9a"/>
      <resource>
         <Observation>
            <id value="dd3f1dac-c7ba-4aa4-bf01-cd7a20bc4d9a"/>
            <meta>
               <profile value="http://hl7.eu/fhir/laboratory/StructureDefinition/Observation-resultslab-eu-lab"/>
            </meta>
            <status value="final"/>
            <category>
               <coding>
                  <system value="http://terminology.hl7.org/CodeSystem/observation-category"/>
                  <code value="laboratory"/>
               </coding>
            </category>
            <code>
               <coding>
                  <system value="http://loinc.org"/>
                  <code value="17861-6"/>
                  <display value="Calcium [Mass/volume] in Serum or Plasma"/>
               </coding>
               <text value="Calcium [Mass/volume] in Serum or Plasma"/>
            </code>
            <subject>
               <reference value="urn:uuid:62da47e9-326e-492a-b54e-bf62e7dcc7f3"/>
            </subject>
            <effectiveDateTime value="2024-11-18"/>
            <performer>
               <display value="The Central European Lab"/>
            </performer>
            <valueQuantity>
               <value value="9"/>
               <unit value="mg/dL"/>
               <system value="http://unitsofmeasure.org"/>
               <code value="mg/dL"/>
            </valueQuantity>
            <specimen>
               <reference value="urn:uuid:e1412f51-f319-468a-9feb-55bb488d8f5f"/>
            </specimen>
            <referenceRange>
               <low>
                  <value value="8.5"/>
                  <system value="http://unitsofmeasure.org"/>
                  <code value="mg/dL"/>
               </low>
            </referenceRange>
            <referenceRange>
               <high>
                  <value value="10.5"/>
                  <system value="http://unitsofmeasure.org"/>
                  <code value="mg/dL"/>
               </high>
            </referenceRange>
         </Observation>
      </resource>
   </entry>
   <entry>
      <fullUrl value="urn:uuid:5f23ed18-9bc4-4e8a-84c6-0ad1f6fd6842"/>
      <resource>
         <Observation>
            <id value="5f23ed18-9bc4-4e8a-84c6-0ad1f6fd6842"/>
            <meta>
               <profile value="http://hl7.eu/fhir/laboratory/StructureDefinition/Observation-resultslab-eu-lab"/>
            </meta>
            <status value="final"/>
            <category>
               <coding>
                  <system value="http://terminology.hl7.org/CodeSystem/observation-category"/>
                  <code value="laboratory"/>
               </coding>
            </category>
            <code>
               <coding>
                  <system value="http://loinc.org"/>
                  <code value="2951-2"/>
                  <display value="Sodium [Moles/volume] in Serum or Plasma"/>
               </coding>
               <text value="Sodium [Moles/volume] in Serum or Plasma"/>
            </code>
            <subject>
               <reference value="urn:uuid:62da47e9-326e-492a-b54e-bf62e7dcc7f3"/>
            </subject>
            <effectiveDateTime value="2024-11-18"/>
            <performer>
               <display value="The Central European Lab"/>
            </performer>
            <valueQuantity>
               <value value="137.8"/>
               <unit value="mmol/L"/>
               <system value="http://unitsofmeasure.org"/>
               <code value="mmol/L"/>
            </valueQuantity>
            <specimen>
               <reference value="urn:uuid:e1412f51-f319-468a-9feb-55bb488d8f5f"/>
            </specimen>
            <referenceRange>
               <low>
                  <value value="135"/>
                  <system value="http://unitsofmeasure.org"/>
                  <code value="mmol/L"/>
               </low>
            </referenceRange>
            <referenceRange>
               <high>
                  <value value="145"/>
                  <system value="http://unitsofmeasure.org"/>
                  <code value="mmol/L"/>
               </high>
            </referenceRange>
         </Observation>
      </resource>
   </entry>
   <entry>
      <fullUrl value="urn:uuid:d8d63dad-2afd-4ff5-87e9-4b4315f96827"/>
      <resource>
         <Observation>
            <id value="d8d63dad-2afd-4ff5-87e9-4b4315f96827"/>
            <meta>
               <profile value="http://hl7.eu/fhir/laboratory/StructureDefinition/Observation-resultslab-eu-lab"/>
            </meta>
            <status value="final"/>
            <category>
               <coding>
                  <system value="http://terminology.hl7.org/CodeSystem/observation-category"/>
                  <code value="laboratory"/>
               </coding>
            </category>
            <code>
               <coding>
                  <system value="http://loinc.org"/>
                  <code value="2823-3"/>
                  <display value="Potassium [Moles/volume] in Serum or Plasma"/>
               </coding>
               <text value="Potassium [Moles/volume] in Serum or Plasma"/>
            </code>
            <subject>
               <reference value="urn:uuid:62da47e9-326e-492a-b54e-bf62e7dcc7f3"/>
            </subject>
            <effectiveDateTime value="2024-11-18"/>
            <performer>
               <display value="The Central European Lab"/>
            </performer>
            <valueQuantity>
               <value value="3.8"/>
               <unit value="mmol/L"/>
               <system value="http://unitsofmeasure.org"/>
               <code value="mmol/L"/>
            </valueQuantity>
            <specimen>
               <reference value="urn:uuid:e1412f51-f319-468a-9feb-55bb488d8f5f"/>
            </specimen>
            <referenceRange>
               <low>
                  <value value="3.5"/>
                  <system value="http://unitsofmeasure.org"/>
                  <code value="mmol/L"/>
               </low>
            </referenceRange>
            <referenceRange>
               <high>
                  <value value="5"/>
                  <system value="http://unitsofmeasure.org"/>
                  <code value="mmol/L"/>
               </high>
            </referenceRange>
         </Observation>
      </resource>
   </entry>
   <entry>
      <fullUrl value="urn:uuid:55713f41-a671-4f0a-bf55-8642481f38d2"/>
      <resource>
         <Observation>
            <id value="55713f41-a671-4f0a-bf55-8642481f38d2"/>
            <meta>
               <profile value="http://hl7.eu/fhir/laboratory/StructureDefinition/Observation-resultslab-eu-lab"/>
            </meta>
            <status value="final"/>
            <category>
               <coding>
                  <system value="http://terminology.hl7.org/CodeSystem/observation-category"/>
                  <code value="laboratory"/>
               </coding>
            </category>
            <code>
               <coding>
                  <system value="http://loinc.org"/>
                  <code value="2075-0"/>
                  <display value="Chloride [Moles/volume] in Serum or Plasma"/>
               </coding>
               <text value="Chloride [Moles/volume] in Serum or Plasma"/>
            </code>
            <subject>
               <reference value="urn:uuid:62da47e9-326e-492a-b54e-bf62e7dcc7f3"/>
            </subject>
            <effectiveDateTime value="2024-11-18"/>
            <performer>
               <display value="The Central European Lab"/>
            </performer>
            <valueQuantity>
               <value value="104.4"/>
               <unit value="mmol/L"/>
               <system value="http://unitsofmeasure.org"/>
               <code value="mmol/L"/>
            </valueQuantity>
            <specimen>
               <reference value="urn:uuid:e1412f51-f319-468a-9feb-55bb488d8f5f"/>
            </specimen>
            <referenceRange>
               <low>
                  <value value="98"/>
                  <system value="http://unitsofmeasure.org"/>
                  <code value="mmol/L"/>
               </low>
            </referenceRange>
            <referenceRange>
               <high>
                  <value value="106"/>
                  <system value="http://unitsofmeasure.org"/>
                  <code value="mmol/L"/>
               </high>
            </referenceRange>
         </Observation>
      </resource>
   </entry>
   <entry>
      <fullUrl value="urn:uuid:b01a3d64-c55a-4bd4-98c7-92e223914478"/>
      <resource>
         <Observation>
            <id value="b01a3d64-c55a-4bd4-98c7-92e223914478"/>
            <meta>
               <profile value="http://hl7.eu/fhir/laboratory/StructureDefinition/Observation-resultslab-eu-lab"/>
            </meta>
            <status value="final"/>
            <category>
               <coding>
                  <system value="http://terminology.hl7.org/CodeSystem/observation-category"/>
                  <code value="laboratory"/>
               </coding>
            </category>
            <code>
               <coding>
                  <system value="http://loinc.org"/>
                  <code value="2028-9"/>
                  <display value="Carbon dioxide, total [Moles/volume] in Serum or Plasma"/>
               </coding>
               <text value="Carbon dioxide, total [Moles/volume] in Serum or Plasma"/>
            </code>
            <subject>
               <reference value="urn:uuid:62da47e9-326e-492a-b54e-bf62e7dcc7f3"/>
            </subject>
            <effectiveDateTime value="2024-11-18"/>
            <performer>
               <display value="The Central European Lab"/>
            </performer>
            <valueQuantity>
               <value value="23.1"/>
               <unit value="mmol/L"/>
               <system value="http://unitsofmeasure.org"/>
               <code value="mmol/L"/>
            </valueQuantity>
            <specimen>
               <reference value="urn:uuid:e1412f51-f319-468a-9feb-55bb488d8f5f"/>
            </specimen>
            <referenceRange>
               <low>
                  <value value="22"/>
                  <system value="http://unitsofmeasure.org"/>
                  <code value="mmol/L"/>
               </low>
            </referenceRange>
            <referenceRange>
               <high>
                  <value value="29"/>
                  <system value="http://unitsofmeasure.org"/>
                  <code value="mmol/L"/>
               </high>
            </referenceRange>
         </Observation>
      </resource>
   </entry>
   <entry>
      <fullUrl value="urn:uuid:68fcfd84-2fff-47f2-8079-231d18fd3e6b"/>
      <resource>
         <Observation>
            <id value="68fcfd84-2fff-47f2-8079-231d18fd3e6b"/>
            <meta>
               <profile value="http://hl7.eu/fhir/laboratory/StructureDefinition/Observation-resultslab-eu-lab"/>
            </meta>
            <status value="final"/>
            <category>
               <coding>
                  <system value="http://terminology.hl7.org/CodeSystem/observation-category"/>
                  <code value="laboratory"/>
               </coding>
            </category>
            <code>
               <coding>
                  <system value="http://loinc.org"/>
                  <code value="2885-2"/>
                  <display value="Protein [Mass/volume] in Serum or Plasma"/>
               </coding>
               <text value="Protein [Mass/volume] in Serum or Plasma"/>
            </code>
            <subject>
               <reference value="urn:uuid:62da47e9-326e-492a-b54e-bf62e7dcc7f3"/>
            </subject>
            <effectiveDateTime value="2024-11-18"/>
            <performer>
               <display value="The Central European Lab"/>
            </performer>
            <valueQuantity>
               <value value="6.2"/>
               <unit value="g/dL"/>
               <system value="http://unitsofmeasure.org"/>
               <code value="g/dL"/>
            </valueQuantity>
            <interpretation>
               <coding>
                  <system value="http://terminology.hl7.org/CodeSystem/v3-ObservationInterpretation"/>
                  <code value="L"/>
                  <display value="Low"/>
               </coding>
            </interpretation>
            <specimen>
               <reference value="urn:uuid:e1412f51-f319-468a-9feb-55bb488d8f5f"/>
            </specimen>
            <referenceRange>
               <low>
                  <value value="6.6"/>
                  <system value="http://unitsofmeasure.org"/>
                  <code value="g/dL"/>
               </low>
            </referenceRange>
            <referenceRange>
               <high>
                  <value value="8.3"/>
                  <system value="http://unitsofmeasure.org"/>
                  <code value="g/dL"/>
               </high>
            </referenceRange>
         </Observation>
      </resource>
   </entry>
   <entry>
      <fullUrl value="urn:uuid:a712c734-bffb-44b9-97a6-eee097eb1db4"/>
      <resource>
         <Observation>
            <id value="a712c734-bffb-44b9-97a6-eee097eb1db4"/>
            <meta>
               <profile value="http://hl7.eu/fhir/laboratory/StructureDefinition/Observation-resultslab-eu-lab"/>
            </meta>
            <status value="final"/>
            <category>
               <coding>
                  <system value="http://terminology.hl7.org/CodeSystem/observation-category"/>
                  <code value="laboratory"/>
               </coding>
            </category>
            <code>
               <coding>
                  <system value="http://loinc.org"/>
                  <code value="1751-7"/>
                  <display value="Albumin [Mass/volume] in Serum or Plasma"/>
               </coding>
               <text value="Albumin [Mass/volume] in Serum or Plasma"/>
            </code>
            <subject>
               <reference value="urn:uuid:62da47e9-326e-492a-b54e-bf62e7dcc7f3"/>
            </subject>
            <effectiveDateTime value="2024-11-18"/>
            <performer>
               <display value="The Central European Lab"/>
            </performer>
            <valueQuantity>
               <value value="4.8"/>
               <unit value="g/dL"/>
               <system value="http://unitsofmeasure.org"/>
               <code value="g/dL"/>
            </valueQuantity>
            <specimen>
               <reference value="urn:uuid:e1412f51-f319-468a-9feb-55bb488d8f5f"/>
            </specimen>
            <referenceRange>
               <low>
                  <value value="3.5"/>
                  <system value="http://unitsofmeasure.org"/>
                  <code value="g/dL"/>
               </low>
            </referenceRange>
            <referenceRange>
               <high>
                  <value value="5.5"/>
                  <system value="http://unitsofmeasure.org"/>
                  <code value="g/dL"/>
               </high>
            </referenceRange>
         </Observation>
      </resource>
   </entry>
   <entry>
      <fullUrl value="urn:uuid:e74325eb-b36c-4996-9437-ba7384637f79"/>
      <resource>
         <Observation>
            <id value="e74325eb-b36c-4996-9437-ba7384637f79"/>
            <meta>
               <profile value="http://hl7.eu/fhir/laboratory/StructureDefinition/Observation-resultslab-eu-lab"/>
            </meta>
            <status value="final"/>
            <category>
               <coding>
                  <system value="http://terminology.hl7.org/CodeSystem/observation-category"/>
                  <code value="laboratory"/>
               </coding>
            </category>
            <code>
               <coding>
                  <system value="http://loinc.org"/>
                  <code value="1975-2"/>
                  <display value="Bilirubin.total [Mass/volume] in Serum or Plasma"/>
               </coding>
               <text value="Bilirubin.total [Mass/volume] in Serum or Plasma"/>
            </code>
            <subject>
               <reference value="urn:uuid:62da47e9-326e-492a-b54e-bf62e7dcc7f3"/>
            </subject>
            <effectiveDateTime value="2024-11-18"/>
            <performer>
               <display value="The Central European Lab"/>
            </performer>
            <valueQuantity>
               <value value="9.1"/>
               <unit value="mg/dL"/>
               <system value="http://unitsofmeasure.org"/>
               <code value="mg/dL"/>
            </valueQuantity>
            <interpretation>
               <coding>
                  <system value="http://terminology.hl7.org/CodeSystem/v3-ObservationInterpretation"/>
                  <code value="H"/>
                  <display value="High"/>
               </coding>
            </interpretation>
            <specimen>
               <reference value="urn:uuid:e1412f51-f319-468a-9feb-55bb488d8f5f"/>
            </specimen>
            <referenceRange>
               <low>
                  <value value="0.3"/>
                  <system value="http://unitsofmeasure.org"/>
                  <code value="mg/dL"/>
               </low>
            </referenceRange>
            <referenceRange>
               <high>
                  <value value="1.2"/>
                  <system value="http://unitsofmeasure.org"/>
                  <code value="mg/dL"/>
               </high>
            </referenceRange>
         </Observation>
      </resource>
   </entry>
   <entry>
      <fullUrl value="urn:uuid:eb3889bb-4320-4db9-8cfa-394326c4134d"/>
      <resource>
         <Observation>
            <id value="eb3889bb-4320-4db9-8cfa-394326c4134d"/>
            <meta>
               <profile value="http://hl7.eu/fhir/laboratory/StructureDefinition/Observation-resultslab-eu-lab"/>
            </meta>
            <status value="final"/>
            <category>
               <coding>
                  <system value="http://terminology.hl7.org/CodeSystem/observation-category"/>
                  <code value="laboratory"/>
               </coding>
            </category>
            <code>
               <coding>
                  <system value="http://loinc.org"/>
                  <code value="6768-6"/>
                  <display value="Alkaline phosphatase [Enzymatic activity/volume] in Serum or Plasma"/>
               </coding>
               <text value="Alkaline phosphatase [Enzymatic activity/volume] in Serum or Plasma"/>
            </code>
            <subject>
               <reference value="urn:uuid:62da47e9-326e-492a-b54e-bf62e7dcc7f3"/>
            </subject>
            <effectiveDateTime value="2024-11-18"/>
            <performer>
               <display value="The Central European Lab"/>
            </performer>
            <valueQuantity>
               <value value="85.9"/>
               <unit value="U/L"/>
               <system value="http://unitsofmeasure.org"/>
               <code value="U/L"/>
            </valueQuantity>
            <specimen>
               <reference value="urn:uuid:e1412f51-f319-468a-9feb-55bb488d8f5f"/>
            </specimen>
            <referenceRange>
               <low>
                  <value value="39"/>
                  <system value="http://unitsofmeasure.org"/>
                  <code value="U/L"/>
               </low>
            </referenceRange>
            <referenceRange>
               <high>
                  <value value="129"/>
                  <system value="http://unitsofmeasure.org"/>
                  <code value="U/L"/>
               </high>
            </referenceRange>
         </Observation>
      </resource>
   </entry>
   <entry>
      <fullUrl value="urn:uuid:26dfe082-c6a0-48e9-b03d-d3f531eb2c0f"/>
      <resource>
         <Observation>
            <id value="26dfe082-c6a0-48e9-b03d-d3f531eb2c0f"/>
            <meta>
               <profile value="http://hl7.eu/fhir/laboratory/StructureDefinition/Observation-resultslab-eu-lab"/>
            </meta>
            <status value="final"/>
            <category>
               <coding>
                  <system value="http://terminology.hl7.org/CodeSystem/observation-category"/>
                  <code value="laboratory"/>
               </coding>
            </category>
            <code>
               <coding>
                  <system value="http://loinc.org"/>
                  <code value="1742-6"/>
                  <display value="Alanine aminotransferase [Enzymatic activity/volume] in Serum or Plasma"/>
               </coding>
               <text value="Alanine aminotransferase [Enzymatic activity/volume] in Serum or Plasma"/>
            </code>
            <subject>
               <reference value="urn:uuid:62da47e9-326e-492a-b54e-bf62e7dcc7f3"/>
            </subject>
            <effectiveDateTime value="2024-11-18"/>
            <performer>
               <display value="The Central European Lab"/>
            </performer>
            <valueQuantity>
               <value value="21"/>
               <unit value="U/L"/>
               <system value="http://unitsofmeasure.org"/>
               <code value="U/L"/>
            </valueQuantity>
            <specimen>
               <reference value="urn:uuid:e1412f51-f319-468a-9feb-55bb488d8f5f"/>
            </specimen>
            <referenceRange>
               <low>
                  <value value="10"/>
                  <system value="http://unitsofmeasure.org"/>
                  <code value="U/L"/>
               </low>
            </referenceRange>
            <referenceRange>
               <high>
                  <value value="60"/>
                  <system value="http://unitsofmeasure.org"/>
                  <code value="U/L"/>
               </high>
            </referenceRange>
         </Observation>
      </resource>
   </entry>
   <entry>
      <fullUrl value="urn:uuid:33e11629-15ce-496b-aa60-700ba1f4a2de"/>
      <resource>
         <Observation>
            <id value="33e11629-15ce-496b-aa60-700ba1f4a2de"/>
            <meta>
               <profile value="http://hl7.eu/fhir/laboratory/StructureDefinition/Observation-resultslab-eu-lab"/>
            </meta>
            <status value="final"/>
            <category>
               <coding>
                  <system value="http://terminology.hl7.org/CodeSystem/observation-category"/>
                  <code value="laboratory"/>
               </coding>
            </category>
            <code>
               <coding>
                  <system value="http://loinc.org"/>
                  <code value="1920-8"/>
                  <display value="Aspartate aminotransferase [Enzymatic activity/volume] in Serum or Plasma"/>
               </coding>
               <text value="Aspartate aminotransferase [Enzymatic activity/volume] in Serum or Plasma"/>
            </code>
            <subject>
               <reference value="urn:uuid:62da47e9-326e-492a-b54e-bf62e7dcc7f3"/>
            </subject>
            <effectiveDateTime value="2024-11-18"/>
            <performer>
               <display value="The Central European Lab"/>
            </performer>
            <valueQuantity>
               <value value="30.8"/>
               <unit value="U/L"/>
               <system value="http://unitsofmeasure.org"/>
               <code value="U/L"/>
            </valueQuantity>
            <specimen>
               <reference value="urn:uuid:e1412f51-f319-468a-9feb-55bb488d8f5f"/>
            </specimen>
            <referenceRange>
               <low>
                  <value value="10"/>
                  <system value="http://unitsofmeasure.org"/>
                  <code value="U/L"/>
               </low>
            </referenceRange>
            <referenceRange>
               <high>
                  <value value="50"/>
                  <system value="http://unitsofmeasure.org"/>
                  <code value="U/L"/>
               </high>
            </referenceRange>
         </Observation>
      </resource>
   </entry>
   <entry>
      <fullUrl value="urn:uuid:141d6c7f-3892-47cf-b298-fba6d68dd4cc"/>
      <resource>
         <Observation>
            <id value="141d6c7f-3892-47cf-b298-fba6d68dd4cc"/>
            <meta>
               <profile value="http://hl7.eu/fhir/laboratory/StructureDefinition/Observation-resultslab-eu-lab"/>
            </meta>
            <status value="final"/>
            <category>
               <coding>
                  <system value="http://terminology.hl7.org/CodeSystem/observation-category"/>
                  <code value="laboratory"/>
               </coding>
            </category>
            <code>
               <coding>
                  <system value="http://loinc.org"/>
                  <code value="2744-1"/>
                  <display value="pH of Arterial blood"/>
               </coding>
               <text value="pH of Arterial blood"/>
            </code>
            <subject>
               <reference value="urn:uuid:62da47e9-326e-492a-b54e-bf62e7dcc7f3"/>
            </subject>
            <effectiveDateTime value="2024-11-18"/>
            <performer>
               <display value="The Central European Lab"/>
            </performer>
            <valueQuantity>
               <value value="7.1"/>
               <unit value="[pH]"/>
               <system value="http://unitsofmeasure.org"/>
               <code value="[pH]"/>
            </valueQuantity>
            <interpretation>
               <coding>
                  <system value="http://terminology.hl7.org/CodeSystem/v3-ObservationInterpretation"/>
                  <code value="L"/>
                  <display value="Low"/>
               </coding>
            </interpretation>
            <specimen>
               <reference value="urn:uuid:add7de57-628f-49ce-848e-cfca997201cb"/>
            </specimen>
            <referenceRange>
               <low>
                  <value value="7.35"/>
                  <system value="http://unitsofmeasure.org"/>
                  <code value="[pH]"/>
               </low>
            </referenceRange>
            <referenceRange>
               <high>
                  <value value="7.45"/>
                  <system value="http://unitsofmeasure.org"/>
                  <code value="[pH]"/>
               </high>
            </referenceRange>
         </Observation>
      </resource>
   </entry>
   <entry>
      <fullUrl value="urn:uuid:fb342dfb-c7e9-4711-a59c-fb8166c0a20e"/>
      <resource>
         <Observation>
            <id value="fb342dfb-c7e9-4711-a59c-fb8166c0a20e"/>
            <meta>
               <profile value="http://hl7.eu/fhir/laboratory/StructureDefinition/Observation-resultslab-eu-lab"/>
            </meta>
            <status value="final"/>
            <category>
               <coding>
                  <system value="http://terminology.hl7.org/CodeSystem/observation-category"/>
                  <code value="laboratory"/>
               </coding>
            </category>
            <code>
               <coding>
                  <system value="http://loinc.org"/>
                  <code value="2019-8"/>
                  <display value="Carbon dioxide [Partial pressure] in Arterial blood"/>
               </coding>
               <text value="Carbon dioxide [Partial pressure] in Arterial blood"/>
            </code>
            <subject>
               <reference value="urn:uuid:62da47e9-326e-492a-b54e-bf62e7dcc7f3"/>
            </subject>
            <effectiveDateTime value="2024-11-18"/>
            <performer>
               <display value="The Central European Lab"/>
            </performer>
            <valueQuantity>
               <value value="37.5"/>
               <unit value="mm[Hg]"/>
               <system value="http://unitsofmeasure.org"/>
               <code value="mm[Hg]"/>
            </valueQuantity>
            <specimen>
               <reference value="urn:uuid:add7de57-628f-49ce-848e-cfca997201cb"/>
            </specimen>
            <referenceRange>
               <low>
                  <value value="35"/>
                  <system value="http://unitsofmeasure.org"/>
                  <code value="mm[Hg]"/>
               </low>
            </referenceRange>
            <referenceRange>
               <high>
                  <value value="45"/>
                  <system value="http://unitsofmeasure.org"/>
                  <code value="mm[Hg]"/>
               </high>
            </referenceRange>
         </Observation>
      </resource>
   </entry>
   <entry>
      <fullUrl value="urn:uuid:44918e60-d59f-44b7-9eea-6e68fb324b72"/>
      <resource>
         <Observation>
            <id value="44918e60-d59f-44b7-9eea-6e68fb324b72"/>
            <meta>
               <profile value="http://hl7.eu/fhir/laboratory/StructureDefinition/Observation-resultslab-eu-lab"/>
            </meta>
            <status value="final"/>
            <category>
               <coding>
                  <system value="http://terminology.hl7.org/CodeSystem/observation-category"/>
                  <code value="laboratory"/>
               </coding>
            </category>
            <code>
               <coding>
                  <system value="http://loinc.org"/>
                  <code value="2703-7"/>
                  <display value="Oxygen [Partial pressure] in Arterial blood"/>
               </coding>
               <text value="Oxygen [Partial pressure] in Arterial blood"/>
            </code>
            <subject>
               <reference value="urn:uuid:62da47e9-326e-492a-b54e-bf62e7dcc7f3"/>
            </subject>
            <effectiveDateTime value="2024-11-18"/>
            <performer>
               <display value="The Central European Lab"/>
            </performer>
            <valueQuantity>
               <value value="53.8"/>
               <unit value="mm[Hg]"/>
               <system value="http://unitsofmeasure.org"/>
               <code value="mm[Hg]"/>
            </valueQuantity>
            <interpretation>
               <coding>
                  <system value="http://terminology.hl7.org/CodeSystem/v3-ObservationInterpretation"/>
                  <code value="L"/>
                  <display value="Low"/>
               </coding>
            </interpretation>
            <specimen>
               <reference value="urn:uuid:add7de57-628f-49ce-848e-cfca997201cb"/>
            </specimen>
            <referenceRange>
               <low>
                  <value value="80"/>
                  <system value="http://unitsofmeasure.org"/>
                  <code value="mm[Hg]"/>
               </low>
            </referenceRange>
            <referenceRange>
               <high>
                  <value value="100"/>
                  <system value="http://unitsofmeasure.org"/>
                  <code value="mm[Hg]"/>
               </high>
            </referenceRange>
         </Observation>
      </resource>
   </entry>
   <entry>
      <fullUrl value="urn:uuid:f200dc2f-777d-4ef9-995b-a802c6dfe63a"/>
      <resource>
         <Observation>
            <id value="f200dc2f-777d-4ef9-995b-a802c6dfe63a"/>
            <meta>
               <profile value="http://hl7.eu/fhir/laboratory/StructureDefinition/Observation-resultslab-eu-lab"/>
            </meta>
            <status value="final"/>
            <category>
               <coding>
                  <system value="http://terminology.hl7.org/CodeSystem/observation-category"/>
                  <code value="laboratory"/>
               </coding>
            </category>
            <code>
               <coding>
                  <system value="http://loinc.org"/>
                  <code value="1960-4"/>
                  <display value="Bicarbonate [Moles/volume] in Arterial blood"/>
               </coding>
               <text value="Bicarbonate [Moles/volume] in Arterial blood"/>
            </code>
            <subject>
               <reference value="urn:uuid:62da47e9-326e-492a-b54e-bf62e7dcc7f3"/>
            </subject>
            <effectiveDateTime value="2024-11-18"/>
            <performer>
               <display value="The Central European Lab"/>
            </performer>
            <valueQuantity>
               <value value="24.1"/>
               <unit value="mmol/L"/>
               <system value="http://unitsofmeasure.org"/>
               <code value="mmol/L"/>
            </valueQuantity>
            <specimen>
               <reference value="urn:uuid:add7de57-628f-49ce-848e-cfca997201cb"/>
            </specimen>
            <referenceRange>
               <low>
                  <value value="21"/>
                  <system value="http://unitsofmeasure.org"/>
                  <code value="mmol/L"/>
               </low>
            </referenceRange>
            <referenceRange>
               <high>
                  <value value="31"/>
                  <system value="http://unitsofmeasure.org"/>
                  <code value="mmol/L"/>
               </high>
            </referenceRange>
         </Observation>
      </resource>
   </entry>
   <entry>
      <fullUrl value="urn:uuid:a735cf46-1252-4a73-b522-c22842236e06"/>
      <resource>
         <Observation>
            <id value="a735cf46-1252-4a73-b522-c22842236e06"/>
            <meta>
               <profile value="http://hl7.eu/fhir/laboratory/StructureDefinition/Observation-resultslab-eu-lab"/>
            </meta>
            <status value="final"/>
            <category>
               <coding>
                  <system value="http://terminology.hl7.org/CodeSystem/observation-category"/>
                  <code value="laboratory"/>
               </coding>
            </category>
            <code>
               <coding>
                  <system value="http://loinc.org"/>
                  <code value="2708-6"/>
                  <display value="Oxygen saturation in Arterial blood"/>
               </coding>
               <text value="Oxygen saturation in Arterial blood"/>
            </code>
            <subject>
               <reference value="urn:uuid:62da47e9-326e-492a-b54e-bf62e7dcc7f3"/>
            </subject>
            <effectiveDateTime value="2024-11-18"/>
            <performer>
               <display value="The Central European Lab"/>
            </performer>
            <valueQuantity>
               <value value="75.6"/>
               <unit value="%"/>
               <system value="http://unitsofmeasure.org"/>
               <code value="%"/>
            </valueQuantity>
            <interpretation>
               <coding>
                  <system value="http://terminology.hl7.org/CodeSystem/v3-ObservationInterpretation"/>
                  <code value="L"/>
                  <display value="Low"/>
               </coding>
            </interpretation>
            <specimen>
               <reference value="urn:uuid:add7de57-628f-49ce-848e-cfca997201cb"/>
            </specimen>
            <referenceRange>
               <low>
                  <value value="95"/>
                  <system value="http://unitsofmeasure.org"/>
                  <code value="%"/>
               </low>
            </referenceRange>
            <referenceRange>
               <high>
                  <value value="100"/>
                  <system value="http://unitsofmeasure.org"/>
                  <code value="%"/>
               </high>
            </referenceRange>
         </Observation>
      </resource>
   </entry>
   <entry>
      <fullUrl value="urn:uuid:ea643738-fe7f-428f-9b98-67d944e3f188"/>
      <resource>
         <Observation>
            <id value="ea643738-fe7f-428f-9b98-67d944e3f188"/>
            <meta>
               <profile value="http://hl7.eu/fhir/laboratory/StructureDefinition/Observation-resultslab-eu-lab"/>
            </meta>
            <status value="final"/>
            <category>
               <coding>
                  <system value="http://terminology.hl7.org/CodeSystem/observation-category"/>
                  <code value="laboratory"/>
               </coding>
            </category>
            <code>
               <coding>
                  <system value="http://loinc.org"/>
                  <code value="48065-7"/>
                  <display value="Fibrin D-dimer FEU [Mass/volume] in Platelet poor plasma"/>
               </coding>
               <text value="Fibrin D-dimer FEU [Mass/volume] in Platelet poor plasma"/>
            </code>
            <subject>
               <reference value="urn:uuid:62da47e9-326e-492a-b54e-bf62e7dcc7f3"/>
            </subject>
            <effectiveDateTime value="2024-11-18"/>
            <performer>
               <display value="The Central European Lab"/>
            </performer>
            <valueQuantity>
               <value value="0.3"/>
               <unit value="ug/mL"/>
               <system value="http://unitsofmeasure.org"/>
               <code value="ug/mL"/>
            </valueQuantity>
            <specimen>
               <reference value="urn:uuid:61ddc26b-1912-44a7-814c-7079fcfc3026"/>
            </specimen>
            <referenceRange>
               <low>
                  <value value="0"/>
                  <system value="http://unitsofmeasure.org"/>
                  <code value="ug/mL"/>
               </low>
            </referenceRange>
            <referenceRange>
               <high>
                  <value value="0.5"/>
                  <system value="http://unitsofmeasure.org"/>
                  <code value="ug/mL"/>
               </high>
            </referenceRange>
         </Observation>
      </resource>
   </entry>
   <entry>
      <fullUrl value="urn:uuid:77d3baaf-73a6-43f7-a4b1-570a80cfa7f0"/>
      <resource>
         <Observation>
            <id value="77d3baaf-73a6-43f7-a4b1-570a80cfa7f0"/>
            <meta>
               <profile value="http://hl7.eu/fhir/laboratory/StructureDefinition/Observation-resultslab-eu-lab"/>
            </meta>
            <status value="final"/>
            <category>
               <coding>
                  <system value="http://terminology.hl7.org/CodeSystem/observation-category"/>
                  <code value="laboratory"/>
               </coding>
            </category>
            <code>
               <coding>
                  <system value="http://loinc.org"/>
                  <code value="2276-4"/>
                  <display value="Ferritin [Mass/volume] in Serum or Plasma"/>
               </coding>
               <text value="Ferritin [Mass/volume] in Serum or Plasma"/>
            </code>
            <subject>
               <reference value="urn:uuid:62da47e9-326e-492a-b54e-bf62e7dcc7f3"/>
            </subject>
            <effectiveDateTime value="2024-11-18"/>
            <performer>
               <display value="The Central European Lab"/>
            </performer>
            <valueQuantity>
               <value value="382.3"/>
               <unit value="ug/L"/>
               <system value="http://unitsofmeasure.org"/>
               <code value="ug/L"/>
            </valueQuantity>
            <specimen>
               <reference value="urn:uuid:e1412f51-f319-468a-9feb-55bb488d8f5f"/>
            </specimen>
            <referenceRange>
               <low>
                  <value value="24"/>
                  <system value="http://unitsofmeasure.org"/>
                  <code value="ug/L"/>
               </low>
            </referenceRange>
            <referenceRange>
               <high>
                  <value value="400"/>
                  <system value="http://unitsofmeasure.org"/>
                  <code value="ug/L"/>
               </high>
            </referenceRange>
         </Observation>
      </resource>
   </entry>
   <entry>
      <fullUrl value="urn:uuid:a37522bf-2389-4f86-85e3-fbdca961b782"/>
      <resource>
         <Observation>
            <id value="a37522bf-2389-4f86-85e3-fbdca961b782"/>
            <meta>
               <profile value="http://hl7.eu/fhir/laboratory/StructureDefinition/Observation-resultslab-eu-lab"/>
            </meta>
            <status value="final"/>
            <category>
               <coding>
                  <system value="http://terminology.hl7.org/CodeSystem/observation-category"/>
                  <code value="laboratory"/>
               </coding>
            </category>
            <code>
               <coding>
                  <system value="http://loinc.org"/>
                  <code value="89579-7"/>
                  <display value="Troponin I.cardiac [Mass/volume] in Serum or Plasma by High sensitivity method"/>
               </coding>
               <text value="Troponin I.cardiac [Mass/volume] in Serum or Plasma by High sensitivity method"/>
            </code>
            <subject>
               <reference value="urn:uuid:62da47e9-326e-492a-b54e-bf62e7dcc7f3"/>
            </subject>
            <effectiveDateTime value="2024-11-18"/>
            <performer>
               <display value="The Central European Lab"/>
            </performer>
            <valueQuantity>
               <value value="3"/>
               <unit value="pg/mL"/>
               <system value="http://unitsofmeasure.org"/>
               <code value="pg/mL"/>
            </valueQuantity>
            <specimen>
               <reference value="urn:uuid:e1412f51-f319-468a-9feb-55bb488d8f5f"/>
            </specimen>
            <referenceRange>
               <low>
                  <value value="0"/>
                  <system value="http://unitsofmeasure.org"/>
                  <code value="pg/mL"/>
               </low>
            </referenceRange>
            <referenceRange>
               <high>
                  <value value="19.9"/>
                  <system value="http://unitsofmeasure.org"/>
                  <code value="pg/mL"/>
               </high>
            </referenceRange>
         </Observation>
      </resource>
   </entry>
   <entry>
      <fullUrl value="urn:uuid:ef56d25d-2c99-493a-bdc7-982d49b8927f"/>
      <resource>
         <Observation>
            <id value="ef56d25d-2c99-493a-bdc7-982d49b8927f"/>
            <meta>
               <profile value="http://hl7.eu/fhir/laboratory/StructureDefinition/Observation-resultslab-eu-lab"/>
            </meta>
            <status value="final"/>
            <category>
               <coding>
                  <system value="http://terminology.hl7.org/CodeSystem/observation-category"/>
                  <code value="laboratory"/>
               </coding>
            </category>
            <code>
               <coding>
                  <system value="http://loinc.org"/>
                  <code value="14804-9"/>
                  <display value="Lactate dehydrogenase [Enzymatic activity/volume] in Serum or Plasma by Lactate to pyruvate reaction"/>
               </coding>
               <text value="Lactate dehydrogenase [Enzymatic activity/volume] in Serum or Plasma by Lactate to pyruvate reaction"/>
            </code>
            <subject>
               <reference value="urn:uuid:62da47e9-326e-492a-b54e-bf62e7dcc7f3"/>
            </subject>
            <effectiveDateTime value="2024-11-18"/>
            <performer>
               <display value="The Central European Lab"/>
            </performer>
            <valueQuantity>
               <value value="241.1"/>
               <unit value="U/L"/>
               <system value="http://unitsofmeasure.org"/>
               <code value="U/L"/>
            </valueQuantity>
            <specimen>
               <reference value="urn:uuid:e1412f51-f319-468a-9feb-55bb488d8f5f"/>
            </specimen>
            <referenceRange>
               <low>
                  <value value="100"/>
                  <system value="http://unitsofmeasure.org"/>
                  <code value="U/L"/>
               </low>
            </referenceRange>
            <referenceRange>
               <high>
                  <value value="248"/>
                  <system value="http://unitsofmeasure.org"/>
                  <code value="U/L"/>
               </high>
            </referenceRange>
         </Observation>
      </resource>
   </entry>
   <entry>
      <fullUrl value="urn:uuid:4b842bd0-27a2-44d1-a1dd-bf1a6dc0a829"/>
      <resource>
         <Observation>
            <id value="4b842bd0-27a2-44d1-a1dd-bf1a6dc0a829"/>
            <meta>
               <profile value="http://hl7.eu/fhir/laboratory/StructureDefinition/Observation-resultslab-eu-lab"/>
            </meta>
            <status value="final"/>
            <category>
               <coding>
                  <system value="http://terminology.hl7.org/CodeSystem/observation-category"/>
                  <code value="laboratory"/>
               </coding>
            </category>
            <code>
               <coding>
                  <system value="http://loinc.org"/>
                  <code value="2157-6"/>
                  <display value="Creatine kinase [Enzymatic activity/volume] in Serum or Plasma"/>
               </coding>
               <text value="Creatine kinase [Enzymatic activity/volume] in Serum or Plasma"/>
            </code>
            <subject>
               <reference value="urn:uuid:62da47e9-326e-492a-b54e-bf62e7dcc7f3"/>
            </subject>
            <effectiveDateTime value="2024-11-18"/>
            <performer>
               <display value="The Central European Lab"/>
            </performer>
            <valueQuantity>
               <value value="41.4"/>
               <unit value="U/L"/>
               <system value="http://unitsofmeasure.org"/>
               <code value="U/L"/>
            </valueQuantity>
            <specimen>
               <reference value="urn:uuid:e1412f51-f319-468a-9feb-55bb488d8f5f"/>
            </specimen>
            <referenceRange>
               <low>
                  <value value="30"/>
                  <system value="http://unitsofmeasure.org"/>
                  <code value="U/L"/>
               </low>
            </referenceRange>
            <referenceRange>
               <high>
                  <value value="204"/>
                  <system value="http://unitsofmeasure.org"/>
                  <code value="U/L"/>
               </high>
            </referenceRange>
         </Observation>
      </resource>
   </entry>
   <entry>
      <fullUrl value="urn:uuid:116f9d55-0ead-47fa-be0c-83ec2446d21d"/>
      <resource>
         <Observation>
            <id value="116f9d55-0ead-47fa-be0c-83ec2446d21d"/>
            <meta>
               <profile value="http://hl7.eu/fhir/laboratory/StructureDefinition/Observation-resultslab-eu-lab"/>
            </meta>
            <status value="final"/>
            <category>
               <coding>
                  <system value="http://terminology.hl7.org/CodeSystem/observation-category"/>
                  <code value="laboratory"/>
               </coding>
            </category>
            <code>
               <coding>
                  <system value="http://loinc.org"/>
                  <code value="1988-5"/>
                  <display value="C reactive protein [Mass/volume] in Serum or Plasma"/>
               </coding>
               <text value="C reactive protein [Mass/volume] in Serum or Plasma"/>
            </code>
            <subject>
               <reference value="urn:uuid:62da47e9-326e-492a-b54e-bf62e7dcc7f3"/>
            </subject>
            <effectiveDateTime value="2024-11-18"/>
            <performer>
               <display value="The Central European Lab"/>
            </performer>
            <valueQuantity>
               <value value="8.4"/>
               <unit value="mg/L"/>
               <system value="http://unitsofmeasure.org"/>
               <code value="mg/L"/>
            </valueQuantity>
            <specimen>
               <reference value="urn:uuid:e1412f51-f319-468a-9feb-55bb488d8f5f"/>
            </specimen>
            <referenceRange>
               <low>
                  <value value="0"/>
                  <system value="http://unitsofmeasure.org"/>
                  <code value="mg/L"/>
               </low>
            </referenceRange>
            <referenceRange>
               <high>
                  <value value="10"/>
                  <system value="http://unitsofmeasure.org"/>
                  <code value="mg/L"/>
               </high>
            </referenceRange>
         </Observation>
      </resource>
   </entry>
   <entry>
      <fullUrl value="urn:uuid:149d4c68-ff79-4580-88df-e401534dcc2a"/>
      <resource>
         <Observation>
            <id value="149d4c68-ff79-4580-88df-e401534dcc2a"/>
            <meta>
               <profile value="http://hl7.eu/fhir/laboratory/StructureDefinition/Observation-resultslab-eu-lab"/>
            </meta>
            <status value="final"/>
            <category>
               <coding>
                  <system value="http://terminology.hl7.org/CodeSystem/observation-category"/>
                  <code value="laboratory"/>
               </coding>
            </category>
            <code>
               <coding>
                  <system value="http://loinc.org"/>
                  <code value="5902-2"/>
                  <display value="Prothrombin time (PT)"/>
               </coding>
               <text value="Prothrombin time (PT)"/>
            </code>
            <subject>
               <reference value="urn:uuid:62da47e9-326e-492a-b54e-bf62e7dcc7f3"/>
            </subject>
            <effectiveDateTime value="2024-11-18"/>
            <performer>
               <display value="The Central European Lab"/>
            </performer>
            <valueQuantity>
               <value value="10.9"/>
               <unit value="s"/>
               <system value="http://unitsofmeasure.org"/>
               <code value="s"/>
            </valueQuantity>
            <interpretation>
               <coding>
                  <system value="http://terminology.hl7.org/CodeSystem/v3-ObservationInterpretation"/>
                  <code value="L"/>
                  <display value="Low"/>
               </coding>
            </interpretation>
            <specimen>
               <reference value="urn:uuid:61ddc26b-1912-44a7-814c-7079fcfc3026"/>
            </specimen>
            <referenceRange>
               <low>
                  <value value="11.5"/>
                  <system value="http://unitsofmeasure.org"/>
                  <code value="s"/>
               </low>
            </referenceRange>
            <referenceRange>
               <high>
                  <value value="13.5"/>
                  <system value="http://unitsofmeasure.org"/>
                  <code value="s"/>
               </high>
            </referenceRange>
         </Observation>
      </resource>
   </entry>
   <entry>
      <fullUrl value="urn:uuid:4a544c1e-6d4c-4c4f-8b2e-cd35b24f7a51"/>
      <resource>
         <Observation>
            <id value="4a544c1e-6d4c-4c4f-8b2e-cd35b24f7a51"/>
            <meta>
               <profile value="http://hl7.eu/fhir/laboratory/StructureDefinition/Observation-resultslab-eu-lab"/>
            </meta>
            <status value="final"/>
            <category>
               <coding>
                  <system value="http://terminology.hl7.org/CodeSystem/observation-category"/>
                  <code value="laboratory"/>
               </coding>
            </category>
            <code>
               <coding>
                  <system value="http://loinc.org"/>
                  <code value="6301-6"/>
                  <display value="INR in Platelet poor plasma by Coagulation assay"/>
               </coding>
               <text value="INR in Platelet poor plasma by Coagulation assay"/>
            </code>
            <subject>
               <reference value="urn:uuid:62da47e9-326e-492a-b54e-bf62e7dcc7f3"/>
            </subject>
            <effectiveDateTime value="2024-11-18"/>
            <performer>
               <display value="The Central European Lab"/>
            </performer>
            <valueQuantity>
               <value value="1.8"/>
               <unit value="{INR}"/>
               <system value="http://unitsofmeasure.org"/>
               <code value="{INR}"/>
            </valueQuantity>
            <interpretation>
               <coding>
                  <system value="http://terminology.hl7.org/CodeSystem/v3-ObservationInterpretation"/>
                  <code value="L"/>
                  <display value="Low"/>
               </coding>
            </interpretation>
            <specimen>
               <reference value="urn:uuid:61ddc26b-1912-44a7-814c-7079fcfc3026"/>
            </specimen>
            <referenceRange>
               <low>
                  <value value="2"/>
                  <system value="http://unitsofmeasure.org"/>
                  <code value="{INR}"/>
               </low>
            </referenceRange>
            <referenceRange>
               <high>
                  <value value="3"/>
                  <system value="http://unitsofmeasure.org"/>
                  <code value="{INR}"/>
               </high>
            </referenceRange>
         </Observation>
      </resource>
   </entry>
   <entry>
      <fullUrl value="urn:uuid:8e3f38b2-1899-4191-b444-029afc407eb7"/>
      <resource>
         <Observation>
            <id value="8e3f38b2-1899-4191-b444-029afc407eb7"/>
            <meta>
               <profile value="http://hl7.eu/fhir/laboratory/StructureDefinition/Observation-resultslab-eu-lab"/>
            </meta>
            <status value="final"/>
            <category>
               <coding>
                  <system value="http://terminology.hl7.org/CodeSystem/observation-category"/>
                  <code value="laboratory"/>
               </coding>
            </category>
            <code>
               <coding>
                  <system value="http://loinc.org"/>
                  <code value="33959-8"/>
                  <display value="Procalcitonin [Mass/volume] in Serum or Plasma"/>
               </coding>
               <text value="Procalcitonin [Mass/volume] in Serum or Plasma"/>
            </code>
            <subject>
               <reference value="urn:uuid:62da47e9-326e-492a-b54e-bf62e7dcc7f3"/>
            </subject>
            <effectiveDateTime value="2024-11-18"/>
            <performer>
               <display value="The Central European Lab"/>
            </performer>
            <valueQuantity>
               <value value="0"/>
               <unit value="ng/mL"/>
               <system value="http://unitsofmeasure.org"/>
               <code value="ng/mL"/>
            </valueQuantity>
            <specimen>
               <reference value="urn:uuid:e1412f51-f319-468a-9feb-55bb488d8f5f"/>
            </specimen>
            <referenceRange>
               <low>
                  <value value="0"/>
                  <system value="http://unitsofmeasure.org"/>
                  <code value="ng/mL"/>
               </low>
            </referenceRange>
            <referenceRange>
               <high>
                  <value value="0.5"/>
                  <system value="http://unitsofmeasure.org"/>
                  <code value="ng/mL"/>
               </high>
            </referenceRange>
         </Observation>
      </resource>
   </entry>
</Bundle>
