{
  "resourceType": "Bundle",
  "id": "Instance-Bundle-aa3c7eb1-8f51-4918-be94-8ef2dde2d903",
  "meta": {
    "profile": [
      "http://hl7.eu/fhir/laboratory/StructureDefinition/Bundle-eu-lab"
    ]
  },
  "identifier": {
    "assigner": {
      "display": "HL7 Europe"
    },
    "system": "urn:oid:2.16.840.1.113883.2.51.999",
    "value": "8e1aaa7a-2d88-41ec-b0db-82672740032d"
  },
  "entry": [
    {
      "fullUrl": "urn:uuid:77624879-8c48-4e7b-9d1c-010bc2077632",
      "resource": {
        "resourceType": "Composition",
        "id": "77624879-8c48-4e7b-9d1c-010bc2077632",
        "meta": {
          "profile": [
            "http://hl7.eu/fhir/laboratory/StructureDefinition/Composition-eu-lab"
          ]
        },
        "identifier": {
          "assigner": {
            "display": "HL7 Europe"
          },
          "system": "urn:oid:2.16.840.1.113883.2.51.999",
          "value": "4e33c4b9-64f7-4700-89c3-b53041b6e7e8"
        },
        "author": [
          {
            "reference": "urn:uuid:dbd7178d-fa25-4afc-92d0-aabcae58fb66"
          }
        ],
        "category": [
          {
            "coding": [
              {
                "code": "26436-6",
                "system": "http://loinc.org",
                "display": "Laboratory studies (set)"
              }
            ]
          }
        ],
        "type": {
          "text": "Laboratory Report"
        },
        "section": [
          {
            "code": {
              "coding": [
                {
                  "code": "26436-6",
                  "system": "http://loinc.org",
                  "display": "Laboratory studies (set)"
                }
              ],
              "text": "Laboratory studies"
            },
            "section": [
              {
                "code": {
                  "coding": [
                    {
                      "code": "18719-5",
                      "system": "http://loinc.org",
                      "display": "Chemistry studies (set)"
                    }
                  ],
                  "text": "Chemistry"
                },
                "entry": [
                  {
                    "reference": "urn:uuid:bd9eca2b-8c0f-49d5-ba04-74bbac45ca6c"
                  }
                ],
                "text": {
                  "status": "generated",
                  "div": "<div xmlns=\"http://www.w3.org/1999/xhtml\"><h3 id=\"section-1\">Chemistry</h3><table class=\"hl7__eu__lab__report\"><thead><tr><th>Test</th><th>18 Nov 2024</th><th>Reference Range</th><th>Unit</th></tr></thead><tbody><tr><td>Oxygen saturation in Arterial blood</td><td><strong>76.5 L</strong></td><td>95 - 100</td><td>%</td></tr></tbody></table></div>"
                },
                "title": "Chemistry"
              },
              {
                "code": {
                  "coding": [
                    {
                      "code": "18725-2",
                      "system": "http://loinc.org",
                      "display": "Microbiology studies"
                    }
                  ],
                  "text": "Microbiology"
                },
                "entry": [
                  {
                    "reference": "urn:uuid:12a3fa1f-d8bf-4d7a-ad23-6afffe4982e4"
                  },
                  {
                    "reference": "urn:uuid:0215d756-e062-4dac-a654-612fb080cb32"
                  },
                  {
                    "reference": "urn:uuid:0c2c19eb-49d0-404e-94e7-04e71e23a6ef"
                  },
                  {
                    "reference": "urn:uuid:039391e6-9a1f-41c3-9519-737f8da753cb"
                  },
                  {
                    "reference": "urn:uuid:7a41ce00-1a48-40cc-8a36-c26ba167d653"
                  },
                  {
                    "reference": "urn:uuid:2e5fb5da-0bfd-4769-9603-fead00829002"
                  },
                  {
                    "reference": "urn:uuid:81e58a0f-fa1e-4174-880e-924bb729ec98"
                  },
                  {
                    "reference": "urn:uuid:281cc7c5-2fb7-44e1-ac99-2d6537b15b0f"
                  },
                  {
                    "reference": "urn:uuid:8034008b-9f2b-4be9-92f0-d78aa6ba68a9"
                  }
                ],
                "text": {
                  "status": "generated",
                  "div": "<div xmlns=\"http://www.w3.org/1999/xhtml\"><h3 id=\"section-2\">Microbiology</h3><table class=\"hl7__eu__lab__report\"><thead><tr><th>Test</th><th>18 Nov 2024</th><th>Reference Range</th><th>Unit</th></tr></thead><tbody><tr><td>Influenza virus A RNA [Presence] in Respiratory system specimen by NAA with probe detection</td><td>Negative</td><td></td><td></td></tr><tr><td>Influenza virus B RNA [Presence] in Respiratory system specimen by NAA with probe detection</td><td>Negative</td><td></td><td></td></tr><tr><td>Respiratory syncytial virus RNA [Presence] in Respiratory system specimen by NAA with probe detection</td><td>Negative</td><td></td><td></td></tr><tr><td>Parainfluenza virus 1 RNA [Presence] in Respiratory system specimen by NAA with probe detection</td><td>Negative</td><td></td><td></td></tr><tr><td>Parainfluenza virus 2 RNA [Presence] in Respiratory system specimen by NAA with probe detection</td><td>Negative</td><td></td><td></td></tr><tr><td>Parainfluenza virus 3 RNA [Presence] in Respiratory system specimen by NAA with probe detection</td><td>Negative</td><td></td><td></td></tr><tr><td>Rhinovirus RNA [Presence] in Respiratory system specimen by NAA with probe detection</td><td>Negative</td><td></td><td></td></tr><tr><td>Human metapneumovirus RNA [Presence] in Respiratory system specimen by NAA with probe detection</td><td>Negative</td><td></td><td></td></tr><tr><td>Adenovirus A+B+C+D+E DNA [Presence] in Respiratory system specimen by NAA with probe detection</td><td>Negative</td><td></td><td></td></tr></tbody></table></div>"
                },
                "title": "Microbiology"
              },
              {
                "code": {
                  "coding": [
                    {
                      "code": "18725-2",
                      "system": "http://loinc.org",
                      "display": "Microbiology studies"
                    }
                  ],
                  "text": "Microbiology Panel"
                },
                "entry": [
                  {
                    "reference": "urn:uuid:f53fbbac-7c77-428f-874d-514884e4549e"
                  }
                ],
                "text": {
                  "status": "generated",
                  "div": "<div xmlns=\"http://www.w3.org/1999/xhtml\"><h3 id=\"section-3\">Microbiology Panel</h3><table class=\"hl7__eu__lab__report\"><thead><tr><th>Test</th><th>18 Nov 2024</th><th>Reference Range</th><th>Unit</th></tr></thead><tbody><tr><td>SARS-CoV-2 (COVID-19) RNA panel - Respiratory system specimen by NAA with probe detection</td><td>Detected</td><td></td><td></td></tr></tbody></table></div>"
                },
                "title": "Microbiology Panel"
              }
            ],
            "title": "Laboratory Report"
          }
        ],
        "status": "final",
        "subject": {
          "reference": "urn:uuid:c2943606-832b-4eac-b08b-a8c4b1809e22"
        },
        "date": "2024-11-19T18:41:40Z",
        "title": "Laboratory Report",
        "confidentiality": "N"
      }
    },
    {
      "fullUrl": "urn:uuid:d99c8f1e-ea2a-4628-a286-cc01df5df56d",
      "resource": {
        "resourceType": "DiagnosticReport",
        "id": "d99c8f1e-ea2a-4628-a286-cc01df5df56d",
        "meta": {
          "profile": [
            "http://hl7.eu/fhir/laboratory/StructureDefinition/DiagnosticReport-eu-lab"
          ]
        },
        "identifier": [
          {
            "assigner": {
              "display": "HL7 Europe"
            },
            "system": "urn:oid:2.16.840.1.113883.2.51.999",
            "value": "7bc66adc-050f-4109-b692-4abfd93d96fa"
          }
        ],
        "extension": [
          {
            "url": "http://hl7.org/fhir/5.0/StructureDefinition/extension-DiagnosticReport.composition",
            "valueReference": {
              "reference": "urn:uuid:77624879-8c48-4e7b-9d1c-010bc2077632"
            }
          }
        ],
        "category": [
          {
            "coding": [
              {
                "code": "18719-5",
                "system": "http://loinc.org",
                "display": "Chemistry studies (set)"
              }
            ]
          }
        ],
        "specimen": [
          {
            "reference": "urn:uuid:0683dea9-533d-46fa-bae2-5f4f4d8524b9"
          },
          {
            "reference": "urn:uuid:f74a9567-d20a-4970-add2-f54a896a4884"
          }
        ],
        "result": [
          {
            "reference": "urn:uuid:bd9eca2b-8c0f-49d5-ba04-74bbac45ca6c"
          },
          {
            "reference": "urn:uuid:12a3fa1f-d8bf-4d7a-ad23-6afffe4982e4"
          },
          {
            "reference": "urn:uuid:0215d756-e062-4dac-a654-612fb080cb32"
          },
          {
            "reference": "urn:uuid:0c2c19eb-49d0-404e-94e7-04e71e23a6ef"
          },
          {
            "reference": "urn:uuid:039391e6-9a1f-41c3-9519-737f8da753cb"
          },
          {
            "reference": "urn:uuid:7a41ce00-1a48-40cc-8a36-c26ba167d653"
          },
          {
            "reference": "urn:uuid:2e5fb5da-0bfd-4769-9603-fead00829002"
          },
          {
            "reference": "urn:uuid:81e58a0f-fa1e-4174-880e-924bb729ec98"
          },
          {
            "reference": "urn:uuid:281cc7c5-2fb7-44e1-ac99-2d6537b15b0f"
          },
          {
            "reference": "urn:uuid:8034008b-9f2b-4be9-92f0-d78aa6ba68a9"
          },
          {
            "reference": "urn:uuid:f53fbbac-7c77-428f-874d-514884e4549e"
          }
        ],
        "status": "registered",
        "code": {
          "coding": [
            {
              "code": "11502-2",
              "system": "http://loinc.org",
              "display": "Laboratory report"
            }
          ]
        },
        "subject": {
          "reference": "urn:uuid:c2943606-832b-4eac-b08b-a8c4b1809e22"
        }
      }
    },
    {
      "fullUrl": "urn:uuid:c2943606-832b-4eac-b08b-a8c4b1809e22",
      "resource": {
        "resourceType": "Patient",
        "id": "c2943606-832b-4eac-b08b-a8c4b1809e22",
        "meta": {
          "profile": [
            "http://hl7.eu/fhir/laboratory/StructureDefinition/Patient-eu-lab"
          ]
        },
        "identifier": [
          {
            "type": {
              "coding": [
                {
                  "code": "NI",
                  "system": "http://terminology.hl7.org/CodeSystem/v2-0203"
                }
              ]
            },
            "system": "http://ec.europa.eu/identifier/eci",
            "value": "3036-100474-7"
          },
          {
            "type": {
              "coding": [
                {
                  "code": "MR",
                  "system": "http://terminology.hl7.org/CodeSystem/v2-0203"
                }
              ]
            },
            "system": "http://local.setting.eu/identifier",
            "value": "02771004-e7f1-4377-97c3-c72ac6ff76c1"
          }
        ],
        "name": [
          {
            "given": [
              "Dylan"
            ],
            "family": "Amos",
            "text": "Dylan Amos"
          }
        ],
        "address": [
          {
            "line": [
              "41 Merthyr Road"
            ],
            "use": "home",
            "type": "physical",
            "city": "Burnham Norton",
            "postalCode": "PE31 0AX",
            "country": "United Kingdom"
          }
        ],
        "telecom": [
          {
            "system": "phone",
            "value": "+44 079 8535 8502"
          }
        ],
        "gender": "male",
        "birthDate": "1938-12-31"
      }
    },
    {
      "fullUrl": "urn:uuid:507e5cc5-819c-4de4-a1b0-2ff49e1cb26d",
      "resource": {
        "resourceType": "ServiceRequest",
        "id": "507e5cc5-819c-4de4-a1b0-2ff49e1cb26d",
        "meta": {
          "profile": [
            "http://hl7.eu/fhir/laboratory/StructureDefinition/ServiceRequest-eu-lab"
          ]
        },
        "identifier": [
          {
            "system": "http://example.org",
            "value": "6adb9264-70d4-4227-874d-f4b4f1aab092"
          }
        ],
        "specimen": [
          {
            "reference": "urn:uuid:0683dea9-533d-46fa-bae2-5f4f4d8524b9"
          },
          {
            "reference": "urn:uuid:f74a9567-d20a-4970-add2-f54a896a4884"
          }
        ],
        "status": "active",
        "intent": "order",
        "code": {
          "coding": [
            {
              "code": "108252007",
              "system": "http://snomed.info/sct",
              "display": "Laboratory procedure"
            }
          ]
        },
        "subject": {
          "reference": "urn:uuid:c2943606-832b-4eac-b08b-a8c4b1809e22"
        },
        "requester": {
          "reference": "urn:uuid:b70ff46b-3ccd-4dd8-95fb-638036919fbf"
        }
      }
    },
    {
      "fullUrl": "urn:uuid:b70ff46b-3ccd-4dd8-95fb-638036919fbf",
      "resource": {
        "resourceType": "PractitionerRole",
        "id": "b70ff46b-3ccd-4dd8-95fb-638036919fbf",
        "meta": {
          "profile": [
            "http://hl7.eu/fhir/laboratory/StructureDefinition/PractitionerRole-eu-lab"
          ]
        },
        "organization": {
          "reference": "urn:uuid:b63c3f54-0916-4b38-ba6f-6387e6ac923c"
        }
      }
    },
    {
      "fullUrl": "urn:uuid:b63c3f54-0916-4b38-ba6f-6387e6ac923c",
      "resource": {
        "resourceType": "Organization",
        "id": "b63c3f54-0916-4b38-ba6f-6387e6ac923c",
        "meta": {
          "profile": [
            "http://hl7.org/fhir/uv/ips/StructureDefinition/Organization-uv-ips"
          ]
        },
        "identifier": [
          {
            "assigner": {
              "display": "HL7 Europe"
            },
            "system": "urn:oid:2.16.840.1.113883.2.51.999",
            "value": "bf225f93-8a1b-422c-af95-fc00daed2503"
          }
        ],
        "address": [
          {
            "line": [
              "Gayton Road nan"
            ],
            "city": "King's Lynn",
            "postalCode": "PE30 2",
            "country": "gb"
          }
        ],
        "name": "Fermoy Unit"
      }
    },
    {
      "fullUrl": "urn:uuid:dbd7178d-fa25-4afc-92d0-aabcae58fb66",
      "resource": {
        "resourceType": "PractitionerRole",
        "id": "dbd7178d-fa25-4afc-92d0-aabcae58fb66",
        "meta": {
          "profile": [
            "http://hl7.eu/fhir/laboratory/StructureDefinition/PractitionerRole-eu-lab"
          ]
        },
        "practitioner": {
          "reference": "urn:uuid:b1b3f8a6-1025-45ec-9297-178e8fa1cf42"
        }
      }
    },
    {
      "fullUrl": "urn:uuid:b1b3f8a6-1025-45ec-9297-178e8fa1cf42",
      "resource": {
        "resourceType": "Practitioner",
        "id": "b1b3f8a6-1025-45ec-9297-178e8fa1cf42",
        "meta": {
          "profile": [
            "http://hl7.eu/fhir/laboratory/StructureDefinition/Practitioner-eu-lab"
          ]
        },
        "identifier": [
          {
            "assigner": {
              "display": "HL7 Europe"
            },
            "system": "urn:oid:2.16.840.1.113883.2.51.999",
            "value": "0b22094c-dd2b-45ca-bda1-7c7c7a4e638c"
          }
        ],
        "name": [
          {
            "prefix": [
              "dr"
            ],
            "given": [
              "Ex"
            ],
            "family": "Ample"
          }
        ],
        "address": [
          {
            "line": [
              "Boulevard du Jardin Botanique 32"
            ],
            "city": "Brussels",
            "postalCode": "1000"
          }
        ]
      }
    },
    {
      "fullUrl": "urn:uuid:0683dea9-533d-46fa-bae2-5f4f4d8524b9",
      "resource": {
        "resourceType": "Specimen",
        "id": "0683dea9-533d-46fa-bae2-5f4f4d8524b9",
        "meta": {
          "profile": [
            "http://hl7.eu/fhir/laboratory/StructureDefinition/Specimen-eu-lab"
          ]
        },
        "collection": {
          "collectedDateTime": "2024-11-18"
        },
        "status": "available",
        "type": {
          "coding": [
            {
              "code": "122552005",
              "system": "http://snomed.info/sct",
              "display": "Arterial blood specimen (specimen)"
            }
          ]
        }
      }
    },
    {
      "fullUrl": "urn:uuid:f74a9567-d20a-4970-add2-f54a896a4884",
      "resource": {
        "resourceType": "Specimen",
        "id": "f74a9567-d20a-4970-add2-f54a896a4884",
        "meta": {
          "profile": [
            "http://hl7.eu/fhir/laboratory/StructureDefinition/Specimen-eu-lab"
          ]
        },
        "collection": {
          "collectedDateTime": "2024-11-18"
        },
        "status": "available",
        "type": {
          "coding": [
            {
              "code": "258603007",
              "system": "http://snomed.info/sct",
              "display": "Respiratory specimen (specimen)"
            }
          ]
        }
      }
    },
    {
      "fullUrl": "urn:uuid:bd9eca2b-8c0f-49d5-ba04-74bbac45ca6c",
      "resource": {
        "resourceType": "Observation",
        "id": "bd9eca2b-8c0f-49d5-ba04-74bbac45ca6c",
        "meta": {
          "profile": [
            "http://hl7.eu/fhir/laboratory/StructureDefinition/Observation-resultslab-eu-lab"
          ]
        },
        "performer": [
          {
            "display": "The Central European Lab"
          }
        ],
        "category": [
          {
            "coding": [
              {
                "code": "laboratory",
                "system": "http://terminology.hl7.org/CodeSystem/observation-category"
              }
            ]
          }
        ],
        "code": {
          "coding": [
            {
              "code": "2708-6",
              "system": "http://loinc.org",
              "display": "Oxygen saturation in Arterial blood"
            }
          ],
          "text": "Oxygen saturation in Arterial blood"
        },
        "valueQuantity": {
          "system": "http://unitsofmeasure.org",
          "value": 76.5,
          "unit": "%",
          "code": "%"
        },
        "referenceRange": [
          {
            "low": {
              "value": 95,
              "code": "%",
              "system": "http://unitsofmeasure.org"
            }
          },
          {
            "high": {
              "value": 100,
              "code": "%",
              "system": "http://unitsofmeasure.org"
            }
          }
        ],
        "interpretation": [
          {
            "coding": [
              {
                "code": "L",
                "system": "http://terminology.hl7.org/CodeSystem/v3-ObservationInterpretation",
                "display": "Low"
              }
            ]
          }
        ],
        "status": "final",
        "subject": {
          "reference": "urn:uuid:c2943606-832b-4eac-b08b-a8c4b1809e22"
        },
        "effectiveDateTime": "2024-11-18",
        "specimen": {
          "reference": "urn:uuid:0683dea9-533d-46fa-bae2-5f4f4d8524b9"
        }
      }
    },
    {
      "fullUrl": "urn:uuid:12a3fa1f-d8bf-4d7a-ad23-6afffe4982e4",
      "resource": {
        "resourceType": "Observation",
        "id": "12a3fa1f-d8bf-4d7a-ad23-6afffe4982e4",
        "meta": {
          "profile": [
            "http://hl7.eu/fhir/laboratory/StructureDefinition/Observation-resultslab-eu-lab"
          ]
        },
        "performer": [
          {
            "display": "The Central European Lab"
          }
        ],
        "category": [
          {
            "coding": [
              {
                "code": "laboratory",
                "system": "http://terminology.hl7.org/CodeSystem/observation-category"
              }
            ]
          }
        ],
        "code": {
          "coding": [
            {
              "code": "92142-9",
              "system": "http://loinc.org",
              "display": "Influenza virus A RNA [Presence] in Respiratory system specimen by NAA with probe detection"
            }
          ],
          "text": "Influenza virus A RNA [Presence] in Respiratory system specimen by NAA with probe detection"
        },
        "status": "final",
        "subject": {
          "reference": "urn:uuid:c2943606-832b-4eac-b08b-a8c4b1809e22"
        },
        "effectiveDateTime": "2024-11-18",
        "valueCodeableConcept": {
          "coding": [
            {
              "code": "260385009",
              "system": "http://snomed.info/sct",
              "display": "Negative"
            }
          ]
        },
        "specimen": {
          "reference": "urn:uuid:f74a9567-d20a-4970-add2-f54a896a4884"
        }
      }
    },
    {
      "fullUrl": "urn:uuid:0215d756-e062-4dac-a654-612fb080cb32",
      "resource": {
        "resourceType": "Observation",
        "id": "0215d756-e062-4dac-a654-612fb080cb32",
        "meta": {
          "profile": [
            "http://hl7.eu/fhir/laboratory/StructureDefinition/Observation-resultslab-eu-lab"
          ]
        },
        "performer": [
          {
            "display": "The Central European Lab"
          }
        ],
        "category": [
          {
            "coding": [
              {
                "code": "laboratory",
                "system": "http://terminology.hl7.org/CodeSystem/observation-category"
              }
            ]
          }
        ],
        "code": {
          "coding": [
            {
              "code": "92141-1",
              "system": "http://loinc.org",
              "display": "Influenza virus B RNA [Presence] in Respiratory system specimen by NAA with probe detection"
            }
          ],
          "text": "Influenza virus B RNA [Presence] in Respiratory system specimen by NAA with probe detection"
        },
        "status": "final",
        "subject": {
          "reference": "urn:uuid:c2943606-832b-4eac-b08b-a8c4b1809e22"
        },
        "effectiveDateTime": "2024-11-18",
        "valueCodeableConcept": {
          "coding": [
            {
              "code": "260385009",
              "system": "http://snomed.info/sct",
              "display": "Negative"
            }
          ]
        },
        "specimen": {
          "reference": "urn:uuid:f74a9567-d20a-4970-add2-f54a896a4884"
        }
      }
    },
    {
      "fullUrl": "urn:uuid:0c2c19eb-49d0-404e-94e7-04e71e23a6ef",
      "resource": {
        "resourceType": "Observation",
        "id": "0c2c19eb-49d0-404e-94e7-04e71e23a6ef",
        "meta": {
          "profile": [
            "http://hl7.eu/fhir/laboratory/StructureDefinition/Observation-resultslab-eu-lab"
          ]
        },
        "performer": [
          {
            "display": "The Central European Lab"
          }
        ],
        "category": [
          {
            "coding": [
              {
                "code": "laboratory",
                "system": "http://terminology.hl7.org/CodeSystem/observation-category"
              }
            ]
          }
        ],
        "code": {
          "coding": [
            {
              "code": "92131-2",
              "system": "http://loinc.org",
              "display": "Respiratory syncytial virus RNA [Presence] in Respiratory system specimen by NAA with probe detection"
            }
          ],
          "text": "Respiratory syncytial virus RNA [Presence] in Respiratory system specimen by NAA with probe detection"
        },
        "status": "final",
        "subject": {
          "reference": "urn:uuid:c2943606-832b-4eac-b08b-a8c4b1809e22"
        },
        "effectiveDateTime": "2024-11-18",
        "valueCodeableConcept": {
          "coding": [
            {
              "code": "260385009",
              "system": "http://snomed.info/sct",
              "display": "Negative"
            }
          ]
        },
        "specimen": {
          "reference": "urn:uuid:f74a9567-d20a-4970-add2-f54a896a4884"
        }
      }
    },
    {
      "fullUrl": "urn:uuid:039391e6-9a1f-41c3-9519-737f8da753cb",
      "resource": {
        "resourceType": "Observation",
        "id": "039391e6-9a1f-41c3-9519-737f8da753cb",
        "meta": {
          "profile": [
            "http://hl7.eu/fhir/laboratory/StructureDefinition/Observation-resultslab-eu-lab"
          ]
        },
        "performer": [
          {
            "display": "The Central European Lab"
          }
        ],
        "category": [
          {
            "coding": [
              {
                "code": "laboratory",
                "system": "http://terminology.hl7.org/CodeSystem/observation-category"
              }
            ]
          }
        ],
        "code": {
          "coding": [
            {
              "code": "92140-3",
              "system": "http://loinc.org",
              "display": "Parainfluenza virus 1 RNA [Presence] in Respiratory system specimen by NAA with probe detection"
            }
          ],
          "text": "Parainfluenza virus 1 RNA [Presence] in Respiratory system specimen by NAA with probe detection"
        },
        "status": "final",
        "subject": {
          "reference": "urn:uuid:c2943606-832b-4eac-b08b-a8c4b1809e22"
        },
        "effectiveDateTime": "2024-11-18",
        "valueCodeableConcept": {
          "coding": [
            {
              "code": "260385009",
              "system": "http://snomed.info/sct",
              "display": "Negative"
            }
          ]
        },
        "specimen": {
          "reference": "urn:uuid:f74a9567-d20a-4970-add2-f54a896a4884"
        }
      }
    },
    {
      "fullUrl": "urn:uuid:7a41ce00-1a48-40cc-8a36-c26ba167d653",
      "resource": {
        "resourceType": "Observation",
        "id": "7a41ce00-1a48-40cc-8a36-c26ba167d653",
        "meta": {
          "profile": [
            "http://hl7.eu/fhir/laboratory/StructureDefinition/Observation-resultslab-eu-lab"
          ]
        },
        "performer": [
          {
            "display": "The Central European Lab"
          }
        ],
        "category": [
          {
            "coding": [
              {
                "code": "laboratory",
                "system": "http://terminology.hl7.org/CodeSystem/observation-category"
              }
            ]
          }
        ],
        "code": {
          "coding": [
            {
              "code": "92139-5",
              "system": "http://loinc.org",
              "display": "Parainfluenza virus 2 RNA [Presence] in Respiratory system specimen by NAA with probe detection"
            }
          ],
          "text": "Parainfluenza virus 2 RNA [Presence] in Respiratory system specimen by NAA with probe detection"
        },
        "status": "final",
        "subject": {
          "reference": "urn:uuid:c2943606-832b-4eac-b08b-a8c4b1809e22"
        },
        "effectiveDateTime": "2024-11-18",
        "valueCodeableConcept": {
          "coding": [
            {
              "code": "260385009",
              "system": "http://snomed.info/sct",
              "display": "Negative"
            }
          ]
        },
        "specimen": {
          "reference": "urn:uuid:f74a9567-d20a-4970-add2-f54a896a4884"
        }
      }
    },
    {
      "fullUrl": "urn:uuid:2e5fb5da-0bfd-4769-9603-fead00829002",
      "resource": {
        "resourceType": "Observation",
        "id": "2e5fb5da-0bfd-4769-9603-fead00829002",
        "meta": {
          "profile": [
            "http://hl7.eu/fhir/laboratory/StructureDefinition/Observation-resultslab-eu-lab"
          ]
        },
        "performer": [
          {
            "display": "The Central European Lab"
          }
        ],
        "category": [
          {
            "coding": [
              {
                "code": "laboratory",
                "system": "http://terminology.hl7.org/CodeSystem/observation-category"
              }
            ]
          }
        ],
        "code": {
          "coding": [
            {
              "code": "92138-7",
              "system": "http://loinc.org",
              "display": "Parainfluenza virus 3 RNA [Presence] in Respiratory system specimen by NAA with probe detection"
            }
          ],
          "text": "Parainfluenza virus 3 RNA [Presence] in Respiratory system specimen by NAA with probe detection"
        },
        "status": "final",
        "subject": {
          "reference": "urn:uuid:c2943606-832b-4eac-b08b-a8c4b1809e22"
        },
        "effectiveDateTime": "2024-11-18",
        "valueCodeableConcept": {
          "coding": [
            {
              "code": "260385009",
              "system": "http://snomed.info/sct",
              "display": "Negative"
            }
          ]
        },
        "specimen": {
          "reference": "urn:uuid:f74a9567-d20a-4970-add2-f54a896a4884"
        }
      }
    },
    {
      "fullUrl": "urn:uuid:81e58a0f-fa1e-4174-880e-924bb729ec98",
      "resource": {
        "resourceType": "Observation",
        "id": "81e58a0f-fa1e-4174-880e-924bb729ec98",
        "meta": {
          "profile": [
            "http://hl7.eu/fhir/laboratory/StructureDefinition/Observation-resultslab-eu-lab"
          ]
        },
        "performer": [
          {
            "display": "The Central European Lab"
          }
        ],
        "category": [
          {
            "coding": [
              {
                "code": "laboratory",
                "system": "http://terminology.hl7.org/CodeSystem/observation-category"
              }
            ]
          }
        ],
        "code": {
          "coding": [
            {
              "code": "92130-4",
              "system": "http://loinc.org",
              "display": "Rhinovirus RNA [Presence] in Respiratory system specimen by NAA with probe detection"
            }
          ],
          "text": "Rhinovirus RNA [Presence] in Respiratory system specimen by NAA with probe detection"
        },
        "status": "final",
        "subject": {
          "reference": "urn:uuid:c2943606-832b-4eac-b08b-a8c4b1809e22"
        },
        "effectiveDateTime": "2024-11-18",
        "valueCodeableConcept": {
          "coding": [
            {
              "code": "260385009",
              "system": "http://snomed.info/sct",
              "display": "Negative"
            }
          ]
        },
        "specimen": {
          "reference": "urn:uuid:f74a9567-d20a-4970-add2-f54a896a4884"
        }
      }
    },
    {
      "fullUrl": "urn:uuid:281cc7c5-2fb7-44e1-ac99-2d6537b15b0f",
      "resource": {
        "resourceType": "Observation",
        "id": "281cc7c5-2fb7-44e1-ac99-2d6537b15b0f",
        "meta": {
          "profile": [
            "http://hl7.eu/fhir/laboratory/StructureDefinition/Observation-resultslab-eu-lab"
          ]
        },
        "performer": [
          {
            "display": "The Central European Lab"
          }
        ],
        "category": [
          {
            "coding": [
              {
                "code": "laboratory",
                "system": "http://terminology.hl7.org/CodeSystem/observation-category"
              }
            ]
          }
        ],
        "code": {
          "coding": [
            {
              "code": "92134-6",
              "system": "http://loinc.org",
              "display": "Human metapneumovirus RNA [Presence] in Respiratory system specimen by NAA with probe detection"
            }
          ],
          "text": "Human metapneumovirus RNA [Presence] in Respiratory system specimen by NAA with probe detection"
        },
        "status": "final",
        "subject": {
          "reference": "urn:uuid:c2943606-832b-4eac-b08b-a8c4b1809e22"
        },
        "effectiveDateTime": "2024-11-18",
        "valueCodeableConcept": {
          "coding": [
            {
              "code": "260385009",
              "system": "http://snomed.info/sct",
              "display": "Negative"
            }
          ]
        },
        "specimen": {
          "reference": "urn:uuid:f74a9567-d20a-4970-add2-f54a896a4884"
        }
      }
    },
    {
      "fullUrl": "urn:uuid:8034008b-9f2b-4be9-92f0-d78aa6ba68a9",
      "resource": {
        "resourceType": "Observation",
        "id": "8034008b-9f2b-4be9-92f0-d78aa6ba68a9",
        "meta": {
          "profile": [
            "http://hl7.eu/fhir/laboratory/StructureDefinition/Observation-resultslab-eu-lab"
          ]
        },
        "performer": [
          {
            "display": "The Central European Lab"
          }
        ],
        "category": [
          {
            "coding": [
              {
                "code": "laboratory",
                "system": "http://terminology.hl7.org/CodeSystem/observation-category"
              }
            ]
          }
        ],
        "code": {
          "coding": [
            {
              "code": "94040-3",
              "system": "http://loinc.org",
              "display": "Adenovirus A+B+C+D+E DNA [Presence] in Respiratory system specimen by NAA with probe detection"
            }
          ],
          "text": "Adenovirus A+B+C+D+E DNA [Presence] in Respiratory system specimen by NAA with probe detection"
        },
        "status": "final",
        "subject": {
          "reference": "urn:uuid:c2943606-832b-4eac-b08b-a8c4b1809e22"
        },
        "effectiveDateTime": "2024-11-18",
        "valueCodeableConcept": {
          "coding": [
            {
              "code": "260385009",
              "system": "http://snomed.info/sct",
              "display": "Negative"
            }
          ]
        },
        "specimen": {
          "reference": "urn:uuid:f74a9567-d20a-4970-add2-f54a896a4884"
        }
      }
    },
    {
      "fullUrl": "urn:uuid:f53fbbac-7c77-428f-874d-514884e4549e",
      "resource": {
        "resourceType": "Observation",
        "id": "f53fbbac-7c77-428f-874d-514884e4549e",
        "meta": {
          "profile": [
            "http://hl7.eu/fhir/laboratory/StructureDefinition/Observation-resultslab-eu-lab"
          ]
        },
        "performer": [
          {
            "display": "The Central European Lab"
          }
        ],
        "category": [
          {
            "coding": [
              {
                "code": "laboratory",
                "system": "http://terminology.hl7.org/CodeSystem/observation-category"
              }
            ]
          }
        ],
        "code": {
          "coding": [
            {
              "code": "94531-1",
              "system": "http://loinc.org",
              "display": "SARS-CoV-2 (COVID-19) RNA panel - Respiratory system specimen by NAA with probe detection"
            }
          ],
          "text": "SARS-CoV-2 (COVID-19) RNA panel - Respiratory system specimen by NAA with probe detection"
        },
        "status": "final",
        "subject": {
          "reference": "urn:uuid:c2943606-832b-4eac-b08b-a8c4b1809e22"
        },
        "effectiveDateTime": "2024-11-18",
        "valueCodeableConcept": {
          "coding": [
            {
              "code": "260373001",
              "system": "http://snomed.info/sct",
              "display": "Detected"
            }
          ]
        },
        "specimen": {
          "reference": "urn:uuid:f74a9567-d20a-4970-add2-f54a896a4884"
        }
      }
    }
  ],
  "type": "document",
  "timestamp": "2024-11-19T18:41:40Z"
}
