{
  "resourceType": "Bundle",
  "id": "Instance-Bundle-e716dc26-d8b2-467a-a391-7862b194baa0",
  "meta": {
    "profile": [
      "http://hl7.eu/fhir/laboratory/StructureDefinition/Bundle-eu-lab"
    ]
  },
  "identifier": {
    "assigner": {
      "display": "HL7 Europe"
    },
    "system": "urn:oid:2.16.840.1.113883.2.51.999",
    "value": "59589fcb-ebd9-426a-ab9c-efc46e866300"
  },
  "entry": [
    {
      "fullUrl": "urn:uuid:ef1cd418-8a6f-44f9-be3d-11c04c17e4b4",
      "resource": {
        "resourceType": "Composition",
        "id": "ef1cd418-8a6f-44f9-be3d-11c04c17e4b4",
        "meta": {
          "profile": [
            "http://hl7.eu/fhir/laboratory/StructureDefinition/Composition-eu-lab"
          ]
        },
        "identifier": {
          "assigner": {
            "display": "HL7 Europe"
          },
          "system": "urn:oid:2.16.840.1.113883.2.51.999",
          "value": "911d545b-2089-4a15-aa10-0d9c37a8242b"
        },
        "author": [
          {
            "reference": "urn:uuid:74e7ff19-af65-4bd5-9e31-2dc6493ddd8c"
          }
        ],
        "category": [
          {
            "coding": [
              {
                "code": "26436-6",
                "system": "http://loinc.org",
                "display": "Laboratory studies (set)"
              }
            ]
          }
        ],
        "type": {
          "text": "Laboratory Report"
        },
        "section": [
          {
            "code": {
              "coding": [
                {
                  "code": "26436-6",
                  "system": "http://loinc.org",
                  "display": "Laboratory studies (set)"
                }
              ],
              "text": "Laboratory studies"
            },
            "section": [
              {
                "code": {
                  "coding": [
                    {
                      "code": "18719-5",
                      "system": "http://loinc.org",
                      "display": "Chemistry studies (set)"
                    }
                  ],
                  "text": "Chemistry"
                },
                "entry": [
                  {
                    "reference": "urn:uuid:233d3913-e7a6-4d4a-aafb-17eb87b2574a"
                  }
                ],
                "text": {
                  "status": "generated",
                  "div": "<div xmlns=\"http://www.w3.org/1999/xhtml\"><h3 id=\"section-1\">Chemistry</h3><table class=\"hl7__eu__lab__report\"><thead><tr><th>Test</th><th>18 Nov 2024</th><th>Reference Range</th><th>Unit</th></tr></thead><tbody><tr><td>Oxygen saturation in Arterial blood</td><td><strong>76.6 L</strong></td><td>95 - 100</td><td>%</td></tr></tbody></table></div>"
                },
                "title": "Chemistry"
              },
              {
                "code": {
                  "coding": [
                    {
                      "code": "18725-2",
                      "system": "http://loinc.org",
                      "display": "Microbiology studies"
                    }
                  ],
                  "text": "Microbiology"
                },
                "entry": [
                  {
                    "reference": "urn:uuid:9258f725-135c-48ab-8629-3167568fd386"
                  },
                  {
                    "reference": "urn:uuid:6ded4f16-69d3-42e7-8fc4-3bbaf34fffde"
                  },
                  {
                    "reference": "urn:uuid:4628c308-666a-4765-8088-c58aca0e4f18"
                  },
                  {
                    "reference": "urn:uuid:11e6ee00-2dbf-4be9-9236-bd47c59320f7"
                  },
                  {
                    "reference": "urn:uuid:1cfe5240-c122-436b-8d27-7ced5504d74c"
                  },
                  {
                    "reference": "urn:uuid:e774aaef-2d91-4d69-be50-f6f7745a824f"
                  },
                  {
                    "reference": "urn:uuid:e0d5bd96-db2e-4997-8c6f-4f43a3d62a86"
                  },
                  {
                    "reference": "urn:uuid:79f9bced-9109-405b-94df-c2c2ff633be4"
                  },
                  {
                    "reference": "urn:uuid:f3982566-6833-4160-bb93-13108db0c17e"
                  }
                ],
                "text": {
                  "status": "generated",
                  "div": "<div xmlns=\"http://www.w3.org/1999/xhtml\"><h3 id=\"section-2\">Microbiology</h3><table class=\"hl7__eu__lab__report\"><thead><tr><th>Test</th><th>18 Nov 2024</th><th>Reference Range</th><th>Unit</th></tr></thead><tbody><tr><td>Influenza virus A RNA [Presence] in Respiratory system specimen by NAA with probe detection</td><td>Positive</td><td></td><td></td></tr><tr><td>Influenza virus B RNA [Presence] in Respiratory system specimen by NAA with probe detection</td><td>Negative</td><td></td><td></td></tr><tr><td>Respiratory syncytial virus RNA [Presence] in Respiratory system specimen by NAA with probe detection</td><td>Negative</td><td></td><td></td></tr><tr><td>Parainfluenza virus 1 RNA [Presence] in Respiratory system specimen by NAA with probe detection</td><td>Negative</td><td></td><td></td></tr><tr><td>Parainfluenza virus 2 RNA [Presence] in Respiratory system specimen by NAA with probe detection</td><td>Negative</td><td></td><td></td></tr><tr><td>Parainfluenza virus 3 RNA [Presence] in Respiratory system specimen by NAA with probe detection</td><td>Negative</td><td></td><td></td></tr><tr><td>Rhinovirus RNA [Presence] in Respiratory system specimen by NAA with probe detection</td><td>Negative</td><td></td><td></td></tr><tr><td>Human metapneumovirus RNA [Presence] in Respiratory system specimen by NAA with probe detection</td><td>Negative</td><td></td><td></td></tr><tr><td>Adenovirus A+B+C+D+E DNA [Presence] in Respiratory system specimen by NAA with probe detection</td><td>Negative</td><td></td><td></td></tr></tbody></table></div>"
                },
                "title": "Microbiology"
              },
              {
                "code": {
                  "coding": [
                    {
                      "code": "18725-2",
                      "system": "http://loinc.org",
                      "display": "Microbiology studies"
                    }
                  ],
                  "text": "Microbiology Panel"
                },
                "entry": [
                  {
                    "reference": "urn:uuid:56343b66-57b7-4439-8908-2c717f7dc2e5"
                  }
                ],
                "text": {
                  "status": "generated",
                  "div": "<div xmlns=\"http://www.w3.org/1999/xhtml\"><h3 id=\"section-3\">Microbiology Panel</h3><table class=\"hl7__eu__lab__report\"><thead><tr><th>Test</th><th>18 Nov 2024</th><th>Reference Range</th><th>Unit</th></tr></thead><tbody><tr><td>SARS-CoV-2 (COVID-19) RNA panel - Respiratory system specimen by NAA with probe detection</td><td>Detected</td><td></td><td></td></tr></tbody></table></div>"
                },
                "title": "Microbiology Panel"
              }
            ],
            "title": "Laboratory Report"
          }
        ],
        "status": "final",
        "subject": {
          "reference": "urn:uuid:8785b794-1e55-4ff5-af2b-43dc4eb4a8ab"
        },
        "date": "2024-11-19T18:39:35Z",
        "title": "Laboratory Report",
        "confidentiality": "N"
      }
    },
    {
      "fullUrl": "urn:uuid:cef5cc24-0f58-4fbd-814c-44b904445db4",
      "resource": {
        "resourceType": "DiagnosticReport",
        "id": "cef5cc24-0f58-4fbd-814c-44b904445db4",
        "meta": {
          "profile": [
            "http://hl7.eu/fhir/laboratory/StructureDefinition/DiagnosticReport-eu-lab"
          ]
        },
        "identifier": [
          {
            "assigner": {
              "display": "HL7 Europe"
            },
            "system": "urn:oid:2.16.840.1.113883.2.51.999",
            "value": "29384b12-c07d-453a-b3f9-70714d90164f"
          }
        ],
        "extension": [
          {
            "url": "http://hl7.org/fhir/5.0/StructureDefinition/extension-DiagnosticReport.composition",
            "valueReference": {
              "reference": "urn:uuid:ef1cd418-8a6f-44f9-be3d-11c04c17e4b4"
            }
          }
        ],
        "category": [
          {
            "coding": [
              {
                "code": "18719-5",
                "system": "http://loinc.org",
                "display": "Chemistry studies (set)"
              }
            ]
          }
        ],
        "specimen": [
          {
            "reference": "urn:uuid:d24bcea5-0940-4c2f-9d9c-30a480c609ec"
          },
          {
            "reference": "urn:uuid:8ffcfb7c-414b-492d-8c27-83682adb4c00"
          }
        ],
        "result": [
          {
            "reference": "urn:uuid:233d3913-e7a6-4d4a-aafb-17eb87b2574a"
          },
          {
            "reference": "urn:uuid:9258f725-135c-48ab-8629-3167568fd386"
          },
          {
            "reference": "urn:uuid:6ded4f16-69d3-42e7-8fc4-3bbaf34fffde"
          },
          {
            "reference": "urn:uuid:4628c308-666a-4765-8088-c58aca0e4f18"
          },
          {
            "reference": "urn:uuid:11e6ee00-2dbf-4be9-9236-bd47c59320f7"
          },
          {
            "reference": "urn:uuid:1cfe5240-c122-436b-8d27-7ced5504d74c"
          },
          {
            "reference": "urn:uuid:e774aaef-2d91-4d69-be50-f6f7745a824f"
          },
          {
            "reference": "urn:uuid:e0d5bd96-db2e-4997-8c6f-4f43a3d62a86"
          },
          {
            "reference": "urn:uuid:79f9bced-9109-405b-94df-c2c2ff633be4"
          },
          {
            "reference": "urn:uuid:f3982566-6833-4160-bb93-13108db0c17e"
          },
          {
            "reference": "urn:uuid:56343b66-57b7-4439-8908-2c717f7dc2e5"
          }
        ],
        "status": "registered",
        "code": {
          "coding": [
            {
              "code": "11502-2",
              "system": "http://loinc.org",
              "display": "Laboratory report"
            }
          ]
        },
        "subject": {
          "reference": "urn:uuid:8785b794-1e55-4ff5-af2b-43dc4eb4a8ab"
        }
      }
    },
    {
      "fullUrl": "urn:uuid:8785b794-1e55-4ff5-af2b-43dc4eb4a8ab",
      "resource": {
        "resourceType": "Patient",
        "id": "8785b794-1e55-4ff5-af2b-43dc4eb4a8ab",
        "meta": {
          "profile": [
            "http://hl7.eu/fhir/laboratory/StructureDefinition/Patient-eu-lab"
          ]
        },
        "identifier": [
          {
            "type": {
              "coding": [
                {
                  "code": "NI",
                  "system": "http://terminology.hl7.org/CodeSystem/v2-0203"
                }
              ]
            },
            "system": "http://ec.europa.eu/identifier/eci",
            "value": "5097-104704-3"
          },
          {
            "type": {
              "coding": [
                {
                  "code": "MR",
                  "system": "http://terminology.hl7.org/CodeSystem/v2-0203"
                }
              ]
            },
            "system": "http://local.setting.eu/identifier",
            "value": "cb617c2b-91be-4b5a-a592-55ab695035dc"
          }
        ],
        "name": [
          {
            "given": [
              "Pauliina"
            ],
            "family": "Niinimaa",
            "text": "Pauliina Niinimaa"
          }
        ],
        "address": [
          {
            "line": [
              "Pikk 31"
            ],
            "use": "home",
            "type": "physical",
            "city": "Oonurme",
            "postalCode": "42206",
            "country": "Estonia"
          }
        ],
        "telecom": [
          {
            "system": "phone",
            "value": "+372 392 8353"
          }
        ],
        "gender": "female",
        "birthDate": "1988-12-31"
      }
    },
    {
      "fullUrl": "urn:uuid:188c01c6-7ebd-4684-a929-ff031bf5e759",
      "resource": {
        "resourceType": "ServiceRequest",
        "id": "188c01c6-7ebd-4684-a929-ff031bf5e759",
        "meta": {
          "profile": [
            "http://hl7.eu/fhir/laboratory/StructureDefinition/ServiceRequest-eu-lab"
          ]
        },
        "identifier": [
          {
            "system": "http://example.org",
            "value": "8d90413d-d100-4a86-9b2b-10c3746b326c"
          }
        ],
        "specimen": [
          {
            "reference": "urn:uuid:d24bcea5-0940-4c2f-9d9c-30a480c609ec"
          },
          {
            "reference": "urn:uuid:8ffcfb7c-414b-492d-8c27-83682adb4c00"
          }
        ],
        "status": "active",
        "intent": "order",
        "code": {
          "coding": [
            {
              "code": "108252007",
              "system": "http://snomed.info/sct",
              "display": "Laboratory procedure"
            }
          ]
        },
        "subject": {
          "reference": "urn:uuid:8785b794-1e55-4ff5-af2b-43dc4eb4a8ab"
        },
        "requester": {
          "reference": "urn:uuid:a4e2352b-3ffc-467d-9cc4-80984aedfbef"
        }
      }
    },
    {
      "fullUrl": "urn:uuid:a4e2352b-3ffc-467d-9cc4-80984aedfbef",
      "resource": {
        "resourceType": "PractitionerRole",
        "id": "a4e2352b-3ffc-467d-9cc4-80984aedfbef",
        "meta": {
          "profile": [
            "http://hl7.eu/fhir/laboratory/StructureDefinition/PractitionerRole-eu-lab"
          ]
        },
        "organization": {
          "reference": "urn:uuid:b8fa0d6e-7b74-46c0-8b52-12d3f0cb8f9d"
        }
      }
    },
    {
      "fullUrl": "urn:uuid:b8fa0d6e-7b74-46c0-8b52-12d3f0cb8f9d",
      "resource": {
        "resourceType": "Organization",
        "id": "b8fa0d6e-7b74-46c0-8b52-12d3f0cb8f9d",
        "meta": {
          "profile": [
            "http://hl7.org/fhir/uv/ips/StructureDefinition/Organization-uv-ips"
          ]
        },
        "identifier": [
          {
            "assigner": {
              "display": "HL7 Europe"
            },
            "system": "urn:oid:2.16.840.1.113883.2.51.999",
            "value": "fe678f25-47b9-4943-97ac-7e11a897dfd5"
          }
        ],
        "address": [
          {
            "line": [
              "Keskpuiestee 36"
            ],
            "city": "Lüganuse",
            "postalCode": "43125",
            "country": "ee"
          }
        ],
        "name": "Kiviõli polikliinik"
      }
    },
    {
      "fullUrl": "urn:uuid:74e7ff19-af65-4bd5-9e31-2dc6493ddd8c",
      "resource": {
        "resourceType": "PractitionerRole",
        "id": "74e7ff19-af65-4bd5-9e31-2dc6493ddd8c",
        "meta": {
          "profile": [
            "http://hl7.eu/fhir/laboratory/StructureDefinition/PractitionerRole-eu-lab"
          ]
        },
        "practitioner": {
          "reference": "urn:uuid:bd4fe1e9-7f20-4ea7-9e97-470e3b13eed9"
        }
      }
    },
    {
      "fullUrl": "urn:uuid:bd4fe1e9-7f20-4ea7-9e97-470e3b13eed9",
      "resource": {
        "resourceType": "Practitioner",
        "id": "bd4fe1e9-7f20-4ea7-9e97-470e3b13eed9",
        "meta": {
          "profile": [
            "http://hl7.eu/fhir/laboratory/StructureDefinition/Practitioner-eu-lab"
          ]
        },
        "identifier": [
          {
            "assigner": {
              "display": "HL7 Europe"
            },
            "system": "urn:oid:2.16.840.1.113883.2.51.999",
            "value": "a25cfc22-6af6-4636-a0ec-1faed3e00ad8"
          }
        ],
        "name": [
          {
            "prefix": [
              "dr"
            ],
            "given": [
              "Ex"
            ],
            "family": "Ample"
          }
        ],
        "address": [
          {
            "line": [
              "Boulevard du Jardin Botanique 32"
            ],
            "city": "Brussels",
            "postalCode": "1000"
          }
        ]
      }
    },
    {
      "fullUrl": "urn:uuid:d24bcea5-0940-4c2f-9d9c-30a480c609ec",
      "resource": {
        "resourceType": "Specimen",
        "id": "d24bcea5-0940-4c2f-9d9c-30a480c609ec",
        "meta": {
          "profile": [
            "http://hl7.eu/fhir/laboratory/StructureDefinition/Specimen-eu-lab"
          ]
        },
        "collection": {
          "collectedDateTime": "2024-11-18"
        },
        "status": "available",
        "type": {
          "coding": [
            {
              "code": "122552005",
              "system": "http://snomed.info/sct",
              "display": "Arterial blood specimen (specimen)"
            }
          ]
        }
      }
    },
    {
      "fullUrl": "urn:uuid:8ffcfb7c-414b-492d-8c27-83682adb4c00",
      "resource": {
        "resourceType": "Specimen",
        "id": "8ffcfb7c-414b-492d-8c27-83682adb4c00",
        "meta": {
          "profile": [
            "http://hl7.eu/fhir/laboratory/StructureDefinition/Specimen-eu-lab"
          ]
        },
        "collection": {
          "collectedDateTime": "2024-11-18"
        },
        "status": "available",
        "type": {
          "coding": [
            {
              "code": "258603007",
              "system": "http://snomed.info/sct",
              "display": "Respiratory specimen (specimen)"
            }
          ]
        }
      }
    },
    {
      "fullUrl": "urn:uuid:233d3913-e7a6-4d4a-aafb-17eb87b2574a",
      "resource": {
        "resourceType": "Observation",
        "id": "233d3913-e7a6-4d4a-aafb-17eb87b2574a",
        "meta": {
          "profile": [
            "http://hl7.eu/fhir/laboratory/StructureDefinition/Observation-resultslab-eu-lab"
          ]
        },
        "performer": [
          {
            "display": "The Central European Lab"
          }
        ],
        "category": [
          {
            "coding": [
              {
                "code": "laboratory",
                "system": "http://terminology.hl7.org/CodeSystem/observation-category"
              }
            ]
          }
        ],
        "code": {
          "coding": [
            {
              "code": "2708-6",
              "system": "http://loinc.org",
              "display": "Oxygen saturation in Arterial blood"
            }
          ],
          "text": "Oxygen saturation in Arterial blood"
        },
        "valueQuantity": {
          "system": "http://unitsofmeasure.org",
          "value": 76.6,
          "unit": "%",
          "code": "%"
        },
        "referenceRange": [
          {
            "low": {
              "value": 95,
              "code": "%",
              "system": "http://unitsofmeasure.org"
            }
          },
          {
            "high": {
              "value": 100,
              "code": "%",
              "system": "http://unitsofmeasure.org"
            }
          }
        ],
        "interpretation": [
          {
            "coding": [
              {
                "code": "L",
                "system": "http://terminology.hl7.org/CodeSystem/v3-ObservationInterpretation",
                "display": "Low"
              }
            ]
          }
        ],
        "status": "final",
        "subject": {
          "reference": "urn:uuid:8785b794-1e55-4ff5-af2b-43dc4eb4a8ab"
        },
        "effectiveDateTime": "2024-11-18",
        "specimen": {
          "reference": "urn:uuid:d24bcea5-0940-4c2f-9d9c-30a480c609ec"
        }
      }
    },
    {
      "fullUrl": "urn:uuid:9258f725-135c-48ab-8629-3167568fd386",
      "resource": {
        "resourceType": "Observation",
        "id": "9258f725-135c-48ab-8629-3167568fd386",
        "meta": {
          "profile": [
            "http://hl7.eu/fhir/laboratory/StructureDefinition/Observation-resultslab-eu-lab"
          ]
        },
        "performer": [
          {
            "display": "The Central European Lab"
          }
        ],
        "category": [
          {
            "coding": [
              {
                "code": "laboratory",
                "system": "http://terminology.hl7.org/CodeSystem/observation-category"
              }
            ]
          }
        ],
        "code": {
          "coding": [
            {
              "code": "92142-9",
              "system": "http://loinc.org",
              "display": "Influenza virus A RNA [Presence] in Respiratory system specimen by NAA with probe detection"
            }
          ],
          "text": "Influenza virus A RNA [Presence] in Respiratory system specimen by NAA with probe detection"
        },
        "status": "final",
        "subject": {
          "reference": "urn:uuid:8785b794-1e55-4ff5-af2b-43dc4eb4a8ab"
        },
        "effectiveDateTime": "2024-11-18",
        "valueCodeableConcept": {
          "coding": [
            {
              "code": "10828004",
              "system": "http://snomed.info/sct",
              "display": "Positive"
            }
          ]
        },
        "specimen": {
          "reference": "urn:uuid:8ffcfb7c-414b-492d-8c27-83682adb4c00"
        }
      }
    },
    {
      "fullUrl": "urn:uuid:6ded4f16-69d3-42e7-8fc4-3bbaf34fffde",
      "resource": {
        "resourceType": "Observation",
        "id": "6ded4f16-69d3-42e7-8fc4-3bbaf34fffde",
        "meta": {
          "profile": [
            "http://hl7.eu/fhir/laboratory/StructureDefinition/Observation-resultslab-eu-lab"
          ]
        },
        "performer": [
          {
            "display": "The Central European Lab"
          }
        ],
        "category": [
          {
            "coding": [
              {
                "code": "laboratory",
                "system": "http://terminology.hl7.org/CodeSystem/observation-category"
              }
            ]
          }
        ],
        "code": {
          "coding": [
            {
              "code": "92141-1",
              "system": "http://loinc.org",
              "display": "Influenza virus B RNA [Presence] in Respiratory system specimen by NAA with probe detection"
            }
          ],
          "text": "Influenza virus B RNA [Presence] in Respiratory system specimen by NAA with probe detection"
        },
        "status": "final",
        "subject": {
          "reference": "urn:uuid:8785b794-1e55-4ff5-af2b-43dc4eb4a8ab"
        },
        "effectiveDateTime": "2024-11-18",
        "valueCodeableConcept": {
          "coding": [
            {
              "code": "260385009",
              "system": "http://snomed.info/sct",
              "display": "Negative"
            }
          ]
        },
        "specimen": {
          "reference": "urn:uuid:8ffcfb7c-414b-492d-8c27-83682adb4c00"
        }
      }
    },
    {
      "fullUrl": "urn:uuid:4628c308-666a-4765-8088-c58aca0e4f18",
      "resource": {
        "resourceType": "Observation",
        "id": "4628c308-666a-4765-8088-c58aca0e4f18",
        "meta": {
          "profile": [
            "http://hl7.eu/fhir/laboratory/StructureDefinition/Observation-resultslab-eu-lab"
          ]
        },
        "performer": [
          {
            "display": "The Central European Lab"
          }
        ],
        "category": [
          {
            "coding": [
              {
                "code": "laboratory",
                "system": "http://terminology.hl7.org/CodeSystem/observation-category"
              }
            ]
          }
        ],
        "code": {
          "coding": [
            {
              "code": "92131-2",
              "system": "http://loinc.org",
              "display": "Respiratory syncytial virus RNA [Presence] in Respiratory system specimen by NAA with probe detection"
            }
          ],
          "text": "Respiratory syncytial virus RNA [Presence] in Respiratory system specimen by NAA with probe detection"
        },
        "status": "final",
        "subject": {
          "reference": "urn:uuid:8785b794-1e55-4ff5-af2b-43dc4eb4a8ab"
        },
        "effectiveDateTime": "2024-11-18",
        "valueCodeableConcept": {
          "coding": [
            {
              "code": "260385009",
              "system": "http://snomed.info/sct",
              "display": "Negative"
            }
          ]
        },
        "specimen": {
          "reference": "urn:uuid:8ffcfb7c-414b-492d-8c27-83682adb4c00"
        }
      }
    },
    {
      "fullUrl": "urn:uuid:11e6ee00-2dbf-4be9-9236-bd47c59320f7",
      "resource": {
        "resourceType": "Observation",
        "id": "11e6ee00-2dbf-4be9-9236-bd47c59320f7",
        "meta": {
          "profile": [
            "http://hl7.eu/fhir/laboratory/StructureDefinition/Observation-resultslab-eu-lab"
          ]
        },
        "performer": [
          {
            "display": "The Central European Lab"
          }
        ],
        "category": [
          {
            "coding": [
              {
                "code": "laboratory",
                "system": "http://terminology.hl7.org/CodeSystem/observation-category"
              }
            ]
          }
        ],
        "code": {
          "coding": [
            {
              "code": "92140-3",
              "system": "http://loinc.org",
              "display": "Parainfluenza virus 1 RNA [Presence] in Respiratory system specimen by NAA with probe detection"
            }
          ],
          "text": "Parainfluenza virus 1 RNA [Presence] in Respiratory system specimen by NAA with probe detection"
        },
        "status": "final",
        "subject": {
          "reference": "urn:uuid:8785b794-1e55-4ff5-af2b-43dc4eb4a8ab"
        },
        "effectiveDateTime": "2024-11-18",
        "valueCodeableConcept": {
          "coding": [
            {
              "code": "260385009",
              "system": "http://snomed.info/sct",
              "display": "Negative"
            }
          ]
        },
        "specimen": {
          "reference": "urn:uuid:8ffcfb7c-414b-492d-8c27-83682adb4c00"
        }
      }
    },
    {
      "fullUrl": "urn:uuid:1cfe5240-c122-436b-8d27-7ced5504d74c",
      "resource": {
        "resourceType": "Observation",
        "id": "1cfe5240-c122-436b-8d27-7ced5504d74c",
        "meta": {
          "profile": [
            "http://hl7.eu/fhir/laboratory/StructureDefinition/Observation-resultslab-eu-lab"
          ]
        },
        "performer": [
          {
            "display": "The Central European Lab"
          }
        ],
        "category": [
          {
            "coding": [
              {
                "code": "laboratory",
                "system": "http://terminology.hl7.org/CodeSystem/observation-category"
              }
            ]
          }
        ],
        "code": {
          "coding": [
            {
              "code": "92139-5",
              "system": "http://loinc.org",
              "display": "Parainfluenza virus 2 RNA [Presence] in Respiratory system specimen by NAA with probe detection"
            }
          ],
          "text": "Parainfluenza virus 2 RNA [Presence] in Respiratory system specimen by NAA with probe detection"
        },
        "status": "final",
        "subject": {
          "reference": "urn:uuid:8785b794-1e55-4ff5-af2b-43dc4eb4a8ab"
        },
        "effectiveDateTime": "2024-11-18",
        "valueCodeableConcept": {
          "coding": [
            {
              "code": "260385009",
              "system": "http://snomed.info/sct",
              "display": "Negative"
            }
          ]
        },
        "specimen": {
          "reference": "urn:uuid:8ffcfb7c-414b-492d-8c27-83682adb4c00"
        }
      }
    },
    {
      "fullUrl": "urn:uuid:e774aaef-2d91-4d69-be50-f6f7745a824f",
      "resource": {
        "resourceType": "Observation",
        "id": "e774aaef-2d91-4d69-be50-f6f7745a824f",
        "meta": {
          "profile": [
            "http://hl7.eu/fhir/laboratory/StructureDefinition/Observation-resultslab-eu-lab"
          ]
        },
        "performer": [
          {
            "display": "The Central European Lab"
          }
        ],
        "category": [
          {
            "coding": [
              {
                "code": "laboratory",
                "system": "http://terminology.hl7.org/CodeSystem/observation-category"
              }
            ]
          }
        ],
        "code": {
          "coding": [
            {
              "code": "92138-7",
              "system": "http://loinc.org",
              "display": "Parainfluenza virus 3 RNA [Presence] in Respiratory system specimen by NAA with probe detection"
            }
          ],
          "text": "Parainfluenza virus 3 RNA [Presence] in Respiratory system specimen by NAA with probe detection"
        },
        "status": "final",
        "subject": {
          "reference": "urn:uuid:8785b794-1e55-4ff5-af2b-43dc4eb4a8ab"
        },
        "effectiveDateTime": "2024-11-18",
        "valueCodeableConcept": {
          "coding": [
            {
              "code": "260385009",
              "system": "http://snomed.info/sct",
              "display": "Negative"
            }
          ]
        },
        "specimen": {
          "reference": "urn:uuid:8ffcfb7c-414b-492d-8c27-83682adb4c00"
        }
      }
    },
    {
      "fullUrl": "urn:uuid:e0d5bd96-db2e-4997-8c6f-4f43a3d62a86",
      "resource": {
        "resourceType": "Observation",
        "id": "e0d5bd96-db2e-4997-8c6f-4f43a3d62a86",
        "meta": {
          "profile": [
            "http://hl7.eu/fhir/laboratory/StructureDefinition/Observation-resultslab-eu-lab"
          ]
        },
        "performer": [
          {
            "display": "The Central European Lab"
          }
        ],
        "category": [
          {
            "coding": [
              {
                "code": "laboratory",
                "system": "http://terminology.hl7.org/CodeSystem/observation-category"
              }
            ]
          }
        ],
        "code": {
          "coding": [
            {
              "code": "92130-4",
              "system": "http://loinc.org",
              "display": "Rhinovirus RNA [Presence] in Respiratory system specimen by NAA with probe detection"
            }
          ],
          "text": "Rhinovirus RNA [Presence] in Respiratory system specimen by NAA with probe detection"
        },
        "status": "final",
        "subject": {
          "reference": "urn:uuid:8785b794-1e55-4ff5-af2b-43dc4eb4a8ab"
        },
        "effectiveDateTime": "2024-11-18",
        "valueCodeableConcept": {
          "coding": [
            {
              "code": "260385009",
              "system": "http://snomed.info/sct",
              "display": "Negative"
            }
          ]
        },
        "specimen": {
          "reference": "urn:uuid:8ffcfb7c-414b-492d-8c27-83682adb4c00"
        }
      }
    },
    {
      "fullUrl": "urn:uuid:79f9bced-9109-405b-94df-c2c2ff633be4",
      "resource": {
        "resourceType": "Observation",
        "id": "79f9bced-9109-405b-94df-c2c2ff633be4",
        "meta": {
          "profile": [
            "http://hl7.eu/fhir/laboratory/StructureDefinition/Observation-resultslab-eu-lab"
          ]
        },
        "performer": [
          {
            "display": "The Central European Lab"
          }
        ],
        "category": [
          {
            "coding": [
              {
                "code": "laboratory",
                "system": "http://terminology.hl7.org/CodeSystem/observation-category"
              }
            ]
          }
        ],
        "code": {
          "coding": [
            {
              "code": "92134-6",
              "system": "http://loinc.org",
              "display": "Human metapneumovirus RNA [Presence] in Respiratory system specimen by NAA with probe detection"
            }
          ],
          "text": "Human metapneumovirus RNA [Presence] in Respiratory system specimen by NAA with probe detection"
        },
        "status": "final",
        "subject": {
          "reference": "urn:uuid:8785b794-1e55-4ff5-af2b-43dc4eb4a8ab"
        },
        "effectiveDateTime": "2024-11-18",
        "valueCodeableConcept": {
          "coding": [
            {
              "code": "260385009",
              "system": "http://snomed.info/sct",
              "display": "Negative"
            }
          ]
        },
        "specimen": {
          "reference": "urn:uuid:8ffcfb7c-414b-492d-8c27-83682adb4c00"
        }
      }
    },
    {
      "fullUrl": "urn:uuid:f3982566-6833-4160-bb93-13108db0c17e",
      "resource": {
        "resourceType": "Observation",
        "id": "f3982566-6833-4160-bb93-13108db0c17e",
        "meta": {
          "profile": [
            "http://hl7.eu/fhir/laboratory/StructureDefinition/Observation-resultslab-eu-lab"
          ]
        },
        "performer": [
          {
            "display": "The Central European Lab"
          }
        ],
        "category": [
          {
            "coding": [
              {
                "code": "laboratory",
                "system": "http://terminology.hl7.org/CodeSystem/observation-category"
              }
            ]
          }
        ],
        "code": {
          "coding": [
            {
              "code": "94040-3",
              "system": "http://loinc.org",
              "display": "Adenovirus A+B+C+D+E DNA [Presence] in Respiratory system specimen by NAA with probe detection"
            }
          ],
          "text": "Adenovirus A+B+C+D+E DNA [Presence] in Respiratory system specimen by NAA with probe detection"
        },
        "status": "final",
        "subject": {
          "reference": "urn:uuid:8785b794-1e55-4ff5-af2b-43dc4eb4a8ab"
        },
        "effectiveDateTime": "2024-11-18",
        "valueCodeableConcept": {
          "coding": [
            {
              "code": "260385009",
              "system": "http://snomed.info/sct",
              "display": "Negative"
            }
          ]
        },
        "specimen": {
          "reference": "urn:uuid:8ffcfb7c-414b-492d-8c27-83682adb4c00"
        }
      }
    },
    {
      "fullUrl": "urn:uuid:56343b66-57b7-4439-8908-2c717f7dc2e5",
      "resource": {
        "resourceType": "Observation",
        "id": "56343b66-57b7-4439-8908-2c717f7dc2e5",
        "meta": {
          "profile": [
            "http://hl7.eu/fhir/laboratory/StructureDefinition/Observation-resultslab-eu-lab"
          ]
        },
        "performer": [
          {
            "display": "The Central European Lab"
          }
        ],
        "category": [
          {
            "coding": [
              {
                "code": "laboratory",
                "system": "http://terminology.hl7.org/CodeSystem/observation-category"
              }
            ]
          }
        ],
        "code": {
          "coding": [
            {
              "code": "94531-1",
              "system": "http://loinc.org",
              "display": "SARS-CoV-2 (COVID-19) RNA panel - Respiratory system specimen by NAA with probe detection"
            }
          ],
          "text": "SARS-CoV-2 (COVID-19) RNA panel - Respiratory system specimen by NAA with probe detection"
        },
        "status": "final",
        "subject": {
          "reference": "urn:uuid:8785b794-1e55-4ff5-af2b-43dc4eb4a8ab"
        },
        "effectiveDateTime": "2024-11-18",
        "valueCodeableConcept": {
          "coding": [
            {
              "code": "260373001",
              "system": "http://snomed.info/sct",
              "display": "Detected"
            }
          ]
        },
        "specimen": {
          "reference": "urn:uuid:8ffcfb7c-414b-492d-8c27-83682adb4c00"
        }
      }
    }
  ],
  "type": "document",
  "timestamp": "2024-11-19T18:39:35Z"
}
