{
  "resourceType": "Bundle",
  "id": "Instance-Bundle-ebe39624-9bd6-45a8-a3e6-569535d6322b",
  "meta": {
    "profile": [
      "http://hl7.eu/fhir/laboratory/StructureDefinition/Bundle-eu-lab"
    ]
  },
  "identifier": {
    "assigner": {
      "display": "HL7 Europe"
    },
    "system": "urn:oid:2.16.840.1.113883.2.51.999",
    "value": "1b96b141-0dde-4bc0-9c1e-012c703f616b"
  },
  "entry": [
    {
      "fullUrl": "urn:uuid:fed0885f-fd26-4f88-8579-c9adfd206586",
      "resource": {
        "resourceType": "Composition",
        "id": "fed0885f-fd26-4f88-8579-c9adfd206586",
        "meta": {
          "profile": [
            "http://hl7.eu/fhir/laboratory/StructureDefinition/Composition-eu-lab"
          ]
        },
        "identifier": {
          "assigner": {
            "display": "HL7 Europe"
          },
          "system": "urn:oid:2.16.840.1.113883.2.51.999",
          "value": "f1d8ee06-ddef-445a-ad8b-412314d67694"
        },
        "author": [
          {
            "reference": "urn:uuid:26e99898-4ae8-449f-9005-b57be77cb876"
          }
        ],
        "category": [
          {
            "coding": [
              {
                "code": "26436-6",
                "system": "http://loinc.org",
                "display": "Laboratory studies (set)"
              }
            ]
          }
        ],
        "type": {
          "text": "Laboratory Report"
        },
        "section": [
          {
            "code": {
              "coding": [
                {
                  "code": "26436-6",
                  "system": "http://loinc.org",
                  "display": "Laboratory studies (set)"
                }
              ],
              "text": "Laboratory studies"
            },
            "section": [
              {
                "code": {
                  "coding": [
                    {
                      "code": "18723-7",
                      "system": "http://loinc.org",
                      "display": "Hematology studies (set)"
                    }
                  ],
                  "text": "Hematology"
                },
                "entry": [
                  {
                    "reference": "urn:uuid:5abb108b-a206-422c-8b6b-0bb8b8b63f5a"
                  },
                  {
                    "reference": "urn:uuid:336eb5d4-5178-44fd-abe4-663bbb80e6b4"
                  },
                  {
                    "reference": "urn:uuid:de8a6f6e-15f1-4475-b2ba-9293f976fcbd"
                  },
                  {
                    "reference": "urn:uuid:75677982-32f0-4675-b8a3-5b878be93468"
                  },
                  {
                    "reference": "urn:uuid:41c4ab91-9343-40a9-929a-061fb6a02170"
                  },
                  {
                    "reference": "urn:uuid:26e75636-a701-4124-94c8-e0eef6737352"
                  },
                  {
                    "reference": "urn:uuid:46df4ef9-a4a5-4aa2-8336-8bac987fb31b"
                  },
                  {
                    "reference": "urn:uuid:cf9300db-97b4-4131-832b-619e10978590"
                  },
                  {
                    "reference": "urn:uuid:66587f40-7fea-4a4f-b5b9-1955903c394d"
                  },
                  {
                    "reference": "urn:uuid:7eb6d677-0bc9-4b02-b259-a5300177f9cd"
                  },
                  {
                    "reference": "urn:uuid:3d9e67ef-d71b-4eb1-9a0d-ae28852c7c9a"
                  }
                ],
                "text": {
                  "status": "generated",
                  "div": "<div xmlns=\"http://www.w3.org/1999/xhtml\"><h3 id=\"section-1\">Hematology</h3><table class=\"hl7__eu__lab__report\"><thead><tr><th>Test</th><th>18 Nov 2024</th><th>Reference Range</th><th>Unit</th></tr></thead><tbody><tr><td>Leukocytes [#/volume] in Blood by Automated count</td><td>8.0</td><td>3.6 - 10.5</td><td>10*3/uL</td></tr><tr><td>Erythrocytes [#/volume] in Blood by Automated count</td><td><strong>3.9 L</strong></td><td>4.5 - 5.2</td><td>10*6/uL</td></tr><tr><td>Hemoglobin [Mass/volume] in Blood</td><td>12.9</td><td>11.5 - 16</td><td>g/dL</td></tr><tr><td>Hematocrit [Volume Fraction] of Blood by Automated count</td><td>49.1</td><td>38 - 54</td><td>%</td></tr><tr><td>MCV [Entitic volume] by Automated count</td><td>82.4</td><td>78 - 98</td><td>fL</td></tr><tr><td>MCH [Entitic mass] by Automated count</td><td>27.8</td><td>27.3 - 33.2</td><td>pg</td></tr><tr><td>MCHC [Mass/volume] by Automated count</td><td>33.5</td><td>31 - 35</td><td>g/dL</td></tr><tr><td>Erythrocyte distribution width [Entitic volume] by Automated count</td><td>43.7</td><td>36.2 - 56.6</td><td>fL</td></tr><tr><td>Platelets [#/volume] in Blood by Automated count</td><td>279.7</td><td>150 - 450</td><td>10*3/uL</td></tr><tr><td>Platelet distribution width [Entitic volume] in Blood by Automated count</td><td><strong>194.7 H</strong></td><td>13.4 - 17.4</td><td>fL</td></tr><tr><td>Platelet mean volume [Entitic volume] in Blood by Automated count</td><td>10.4</td><td>7.4 - 13.4</td><td>fL</td></tr></tbody></table></div>"
                },
                "title": "Hematology"
              }
            ],
            "title": "Laboratory Report"
          }
        ],
        "status": "final",
        "subject": {
          "reference": "urn:uuid:f4130975-e075-48b7-a754-cbc17ec8a6c3"
        },
        "date": "2024-11-19T18:36:25Z",
        "title": "Laboratory Report",
        "confidentiality": "N"
      }
    },
    {
      "fullUrl": "urn:uuid:5c7e7203-7e83-4c56-bcd1-96e53bca823b",
      "resource": {
        "resourceType": "DiagnosticReport",
        "id": "5c7e7203-7e83-4c56-bcd1-96e53bca823b",
        "meta": {
          "profile": [
            "http://hl7.eu/fhir/laboratory/StructureDefinition/DiagnosticReport-eu-lab"
          ]
        },
        "identifier": [
          {
            "assigner": {
              "display": "HL7 Europe"
            },
            "system": "urn:oid:2.16.840.1.113883.2.51.999",
            "value": "38bdca29-2869-4c69-ba19-5af2e374903d"
          }
        ],
        "extension": [
          {
            "url": "http://hl7.org/fhir/5.0/StructureDefinition/extension-DiagnosticReport.composition",
            "valueReference": {
              "reference": "urn:uuid:fed0885f-fd26-4f88-8579-c9adfd206586"
            }
          }
        ],
        "category": [
          {
            "coding": [
              {
                "code": "18719-5",
                "system": "http://loinc.org",
                "display": "Chemistry studies (set)"
              }
            ]
          }
        ],
        "specimen": [
          {
            "reference": "urn:uuid:66cabc33-edac-4e0a-9d91-bd9a0fab6ee8"
          },
          {
            "reference": "urn:uuid:9ebb3291-db5c-4a26-a033-104ec00683b6"
          }
        ],
        "result": [
          {
            "reference": "urn:uuid:5abb108b-a206-422c-8b6b-0bb8b8b63f5a"
          },
          {
            "reference": "urn:uuid:336eb5d4-5178-44fd-abe4-663bbb80e6b4"
          },
          {
            "reference": "urn:uuid:de8a6f6e-15f1-4475-b2ba-9293f976fcbd"
          },
          {
            "reference": "urn:uuid:75677982-32f0-4675-b8a3-5b878be93468"
          },
          {
            "reference": "urn:uuid:41c4ab91-9343-40a9-929a-061fb6a02170"
          },
          {
            "reference": "urn:uuid:26e75636-a701-4124-94c8-e0eef6737352"
          },
          {
            "reference": "urn:uuid:46df4ef9-a4a5-4aa2-8336-8bac987fb31b"
          },
          {
            "reference": "urn:uuid:cf9300db-97b4-4131-832b-619e10978590"
          },
          {
            "reference": "urn:uuid:66587f40-7fea-4a4f-b5b9-1955903c394d"
          },
          {
            "reference": "urn:uuid:7eb6d677-0bc9-4b02-b259-a5300177f9cd"
          },
          {
            "reference": "urn:uuid:3d9e67ef-d71b-4eb1-9a0d-ae28852c7c9a"
          }
        ],
        "status": "registered",
        "code": {
          "coding": [
            {
              "code": "11502-2",
              "system": "http://loinc.org",
              "display": "Laboratory report"
            }
          ]
        },
        "subject": {
          "reference": "urn:uuid:f4130975-e075-48b7-a754-cbc17ec8a6c3"
        }
      }
    },
    {
      "fullUrl": "urn:uuid:f4130975-e075-48b7-a754-cbc17ec8a6c3",
      "resource": {
        "resourceType": "Patient",
        "id": "f4130975-e075-48b7-a754-cbc17ec8a6c3",
        "meta": {
          "profile": [
            "http://hl7.eu/fhir/laboratory/StructureDefinition/Patient-eu-lab"
          ]
        },
        "identifier": [
          {
            "type": {
              "coding": [
                {
                  "code": "NI",
                  "system": "http://terminology.hl7.org/CodeSystem/v2-0203"
                }
              ]
            },
            "system": "http://ec.europa.eu/identifier/eci",
            "value": "1837-984415-4"
          },
          {
            "type": {
              "coding": [
                {
                  "code": "MR",
                  "system": "http://terminology.hl7.org/CodeSystem/v2-0203"
                }
              ]
            },
            "system": "http://local.setting.eu/identifier",
            "value": "831c8f91-f173-474d-bd61-22d08fa5b8c9"
          }
        ],
        "name": [
          {
            "given": [
              "Ida"
            ],
            "family": "Kempen",
            "text": "Ida Kempen"
          }
        ],
        "address": [
          {
            "line": [
              "Hazenkampstraat 112"
            ],
            "use": "home",
            "type": "physical",
            "city": "Brunssum",
            "postalCode": "6445 BJ",
            "country": "Netherlands"
          }
        ],
        "telecom": [
          {
            "system": "phone",
            "value": "+31 06-64466093"
          }
        ],
        "gender": "female",
        "birthDate": "1944-04-22"
      }
    },
    {
      "fullUrl": "urn:uuid:c0e2732d-4084-44f8-96aa-50fdeef69d23",
      "resource": {
        "resourceType": "ServiceRequest",
        "id": "c0e2732d-4084-44f8-96aa-50fdeef69d23",
        "meta": {
          "profile": [
            "http://hl7.eu/fhir/laboratory/StructureDefinition/ServiceRequest-eu-lab"
          ]
        },
        "identifier": [
          {
            "system": "http://example.org",
            "value": "8e1894e8-0f93-47b6-95e4-84176d5edcbc"
          }
        ],
        "specimen": [
          {
            "reference": "urn:uuid:66cabc33-edac-4e0a-9d91-bd9a0fab6ee8"
          },
          {
            "reference": "urn:uuid:9ebb3291-db5c-4a26-a033-104ec00683b6"
          }
        ],
        "status": "active",
        "intent": "order",
        "code": {
          "coding": [
            {
              "code": "108252007",
              "system": "http://snomed.info/sct",
              "display": "Laboratory procedure"
            }
          ]
        },
        "subject": {
          "reference": "urn:uuid:f4130975-e075-48b7-a754-cbc17ec8a6c3"
        },
        "requester": {
          "reference": "urn:uuid:a8af297f-124d-40ae-ae7a-51444392d18b"
        }
      }
    },
    {
      "fullUrl": "urn:uuid:a8af297f-124d-40ae-ae7a-51444392d18b",
      "resource": {
        "resourceType": "PractitionerRole",
        "id": "a8af297f-124d-40ae-ae7a-51444392d18b",
        "meta": {
          "profile": [
            "http://hl7.eu/fhir/laboratory/StructureDefinition/PractitionerRole-eu-lab"
          ]
        },
        "organization": {
          "reference": "urn:uuid:bb9114fc-c70c-4377-8fa6-412850535fdc"
        }
      }
    },
    {
      "fullUrl": "urn:uuid:bb9114fc-c70c-4377-8fa6-412850535fdc",
      "resource": {
        "resourceType": "Organization",
        "id": "bb9114fc-c70c-4377-8fa6-412850535fdc",
        "meta": {
          "profile": [
            "http://hl7.org/fhir/uv/ips/StructureDefinition/Organization-uv-ips"
          ]
        },
        "identifier": [
          {
            "assigner": {
              "display": "HL7 Europe"
            },
            "system": "urn:oid:2.16.840.1.113883.2.51.999",
            "value": "95fa16de-5b6e-4f94-9421-06e95e9a49af"
          }
        ],
        "address": [
          {
            "city": "Puth",
            "postalCode": "6155",
            "country": "nl"
          }
        ],
        "name": "Medisch Centrum Puth"
      }
    },
    {
      "fullUrl": "urn:uuid:26e99898-4ae8-449f-9005-b57be77cb876",
      "resource": {
        "resourceType": "PractitionerRole",
        "id": "26e99898-4ae8-449f-9005-b57be77cb876",
        "meta": {
          "profile": [
            "http://hl7.eu/fhir/laboratory/StructureDefinition/PractitionerRole-eu-lab"
          ]
        },
        "practitioner": {
          "reference": "urn:uuid:e8137fe6-9fa7-4958-ae98-ec860c391dd5"
        }
      }
    },
    {
      "fullUrl": "urn:uuid:e8137fe6-9fa7-4958-ae98-ec860c391dd5",
      "resource": {
        "resourceType": "Practitioner",
        "id": "e8137fe6-9fa7-4958-ae98-ec860c391dd5",
        "meta": {
          "profile": [
            "http://hl7.eu/fhir/laboratory/StructureDefinition/Practitioner-eu-lab"
          ]
        },
        "identifier": [
          {
            "assigner": {
              "display": "HL7 Europe"
            },
            "system": "urn:oid:2.16.840.1.113883.2.51.999",
            "value": "5a125640-e3e8-4a49-a064-df255656f4c9"
          }
        ],
        "name": [
          {
            "prefix": [
              "dr"
            ],
            "given": [
              "Ex"
            ],
            "family": "Ample"
          }
        ],
        "address": [
          {
            "line": [
              "Boulevard du Jardin Botanique 32"
            ],
            "city": "Brussels",
            "postalCode": "1000"
          }
        ]
      }
    },
    {
      "fullUrl": "urn:uuid:66cabc33-edac-4e0a-9d91-bd9a0fab6ee8",
      "resource": {
        "resourceType": "Specimen",
        "id": "66cabc33-edac-4e0a-9d91-bd9a0fab6ee8",
        "meta": {
          "profile": [
            "http://hl7.eu/fhir/laboratory/StructureDefinition/Specimen-eu-lab"
          ]
        },
        "collection": {
          "collectedDateTime": "2024-11-18"
        },
        "status": "available",
        "type": {
          "coding": [
            {
              "code": "258580003",
              "system": "http://snomed.info/sct",
              "display": "Whole blood specimen (specimen)"
            }
          ]
        }
      }
    },
    {
      "fullUrl": "urn:uuid:9ebb3291-db5c-4a26-a033-104ec00683b6",
      "resource": {
        "resourceType": "Specimen",
        "id": "9ebb3291-db5c-4a26-a033-104ec00683b6",
        "meta": {
          "profile": [
            "http://hl7.eu/fhir/laboratory/StructureDefinition/Specimen-eu-lab"
          ]
        },
        "collection": {
          "collectedDateTime": "2024-11-18"
        },
        "status": "available",
        "type": {
          "coding": [
            {
              "code": "258580003",
              "system": "http://snomed.info/sct",
              "display": "Whole blood specimen (specimen)"
            }
          ]
        }
      }
    },
    {
      "fullUrl": "urn:uuid:5abb108b-a206-422c-8b6b-0bb8b8b63f5a",
      "resource": {
        "resourceType": "Observation",
        "id": "5abb108b-a206-422c-8b6b-0bb8b8b63f5a",
        "meta": {
          "profile": [
            "http://hl7.eu/fhir/laboratory/StructureDefinition/Observation-resultslab-eu-lab"
          ]
        },
        "performer": [
          {
            "display": "The Central European Lab"
          }
        ],
        "category": [
          {
            "coding": [
              {
                "code": "laboratory",
                "system": "http://terminology.hl7.org/CodeSystem/observation-category"
              }
            ]
          }
        ],
        "code": {
          "coding": [
            {
              "code": "6690-2",
              "system": "http://loinc.org",
              "display": "Leukocytes [#/volume] in Blood by Automated count"
            }
          ],
          "text": "Leukocytes [#/volume] in Blood by Automated count"
        },
        "valueQuantity": {
          "system": "http://unitsofmeasure.org",
          "value": 8,
          "unit": "10*3/uL",
          "code": "10*3/uL"
        },
        "referenceRange": [
          {
            "low": {
              "value": 3.6,
              "code": "10*3/uL",
              "system": "http://unitsofmeasure.org"
            }
          },
          {
            "high": {
              "value": 10.5,
              "code": "10*3/uL",
              "system": "http://unitsofmeasure.org"
            }
          }
        ],
        "status": "final",
        "subject": {
          "reference": "urn:uuid:f4130975-e075-48b7-a754-cbc17ec8a6c3"
        },
        "effectiveDateTime": "2024-11-18",
        "specimen": {
          "reference": "urn:uuid:66cabc33-edac-4e0a-9d91-bd9a0fab6ee8"
        }
      }
    },
    {
      "fullUrl": "urn:uuid:336eb5d4-5178-44fd-abe4-663bbb80e6b4",
      "resource": {
        "resourceType": "Observation",
        "id": "336eb5d4-5178-44fd-abe4-663bbb80e6b4",
        "meta": {
          "profile": [
            "http://hl7.eu/fhir/laboratory/StructureDefinition/Observation-resultslab-eu-lab"
          ]
        },
        "performer": [
          {
            "display": "The Central European Lab"
          }
        ],
        "category": [
          {
            "coding": [
              {
                "code": "laboratory",
                "system": "http://terminology.hl7.org/CodeSystem/observation-category"
              }
            ]
          }
        ],
        "code": {
          "coding": [
            {
              "code": "789-8",
              "system": "http://loinc.org",
              "display": "Erythrocytes [#/volume] in Blood by Automated count"
            }
          ],
          "text": "Erythrocytes [#/volume] in Blood by Automated count"
        },
        "valueQuantity": {
          "system": "http://unitsofmeasure.org",
          "value": 3.9,
          "unit": "10*6/uL",
          "code": "10*6/uL"
        },
        "referenceRange": [
          {
            "low": {
              "value": 4.5,
              "code": "10*6/uL",
              "system": "http://unitsofmeasure.org"
            }
          },
          {
            "high": {
              "value": 5.2,
              "code": "10*6/uL",
              "system": "http://unitsofmeasure.org"
            }
          }
        ],
        "interpretation": [
          {
            "coding": [
              {
                "code": "L",
                "system": "http://terminology.hl7.org/CodeSystem/v3-ObservationInterpretation",
                "display": "Low"
              }
            ]
          }
        ],
        "status": "final",
        "subject": {
          "reference": "urn:uuid:f4130975-e075-48b7-a754-cbc17ec8a6c3"
        },
        "effectiveDateTime": "2024-11-18",
        "specimen": {
          "reference": "urn:uuid:66cabc33-edac-4e0a-9d91-bd9a0fab6ee8"
        }
      }
    },
    {
      "fullUrl": "urn:uuid:de8a6f6e-15f1-4475-b2ba-9293f976fcbd",
      "resource": {
        "resourceType": "Observation",
        "id": "de8a6f6e-15f1-4475-b2ba-9293f976fcbd",
        "meta": {
          "profile": [
            "http://hl7.eu/fhir/laboratory/StructureDefinition/Observation-resultslab-eu-lab"
          ]
        },
        "performer": [
          {
            "display": "The Central European Lab"
          }
        ],
        "category": [
          {
            "coding": [
              {
                "code": "laboratory",
                "system": "http://terminology.hl7.org/CodeSystem/observation-category"
              }
            ]
          }
        ],
        "code": {
          "coding": [
            {
              "code": "718-7",
              "system": "http://loinc.org",
              "display": "Hemoglobin [Mass/volume] in Blood"
            }
          ],
          "text": "Hemoglobin [Mass/volume] in Blood"
        },
        "valueQuantity": {
          "system": "http://unitsofmeasure.org",
          "value": 12.9,
          "unit": "g/dL",
          "code": "g/dL"
        },
        "referenceRange": [
          {
            "low": {
              "value": 11.5,
              "code": "g/dL",
              "system": "http://unitsofmeasure.org"
            }
          },
          {
            "high": {
              "value": 16,
              "code": "g/dL",
              "system": "http://unitsofmeasure.org"
            }
          }
        ],
        "status": "final",
        "subject": {
          "reference": "urn:uuid:f4130975-e075-48b7-a754-cbc17ec8a6c3"
        },
        "effectiveDateTime": "2024-11-18",
        "specimen": {
          "reference": "urn:uuid:66cabc33-edac-4e0a-9d91-bd9a0fab6ee8"
        }
      }
    },
    {
      "fullUrl": "urn:uuid:75677982-32f0-4675-b8a3-5b878be93468",
      "resource": {
        "resourceType": "Observation",
        "id": "75677982-32f0-4675-b8a3-5b878be93468",
        "meta": {
          "profile": [
            "http://hl7.eu/fhir/laboratory/StructureDefinition/Observation-resultslab-eu-lab"
          ]
        },
        "performer": [
          {
            "display": "The Central European Lab"
          }
        ],
        "category": [
          {
            "coding": [
              {
                "code": "laboratory",
                "system": "http://terminology.hl7.org/CodeSystem/observation-category"
              }
            ]
          }
        ],
        "code": {
          "coding": [
            {
              "code": "4544-3",
              "system": "http://loinc.org",
              "display": "Hematocrit [Volume Fraction] of Blood by Automated count"
            }
          ],
          "text": "Hematocrit [Volume Fraction] of Blood by Automated count"
        },
        "valueQuantity": {
          "system": "http://unitsofmeasure.org",
          "value": 49.1,
          "unit": "%",
          "code": "%"
        },
        "referenceRange": [
          {
            "low": {
              "value": 38,
              "code": "%",
              "system": "http://unitsofmeasure.org"
            }
          },
          {
            "high": {
              "value": 54,
              "code": "%",
              "system": "http://unitsofmeasure.org"
            }
          }
        ],
        "status": "final",
        "subject": {
          "reference": "urn:uuid:f4130975-e075-48b7-a754-cbc17ec8a6c3"
        },
        "effectiveDateTime": "2024-11-18",
        "specimen": {
          "reference": "urn:uuid:66cabc33-edac-4e0a-9d91-bd9a0fab6ee8"
        }
      }
    },
    {
      "fullUrl": "urn:uuid:41c4ab91-9343-40a9-929a-061fb6a02170",
      "resource": {
        "resourceType": "Observation",
        "id": "41c4ab91-9343-40a9-929a-061fb6a02170",
        "meta": {
          "profile": [
            "http://hl7.eu/fhir/laboratory/StructureDefinition/Observation-resultslab-eu-lab"
          ]
        },
        "performer": [
          {
            "display": "The Central European Lab"
          }
        ],
        "category": [
          {
            "coding": [
              {
                "code": "laboratory",
                "system": "http://terminology.hl7.org/CodeSystem/observation-category"
              }
            ]
          }
        ],
        "code": {
          "coding": [
            {
              "code": "787-2",
              "system": "http://loinc.org",
              "display": "MCV [Entitic volume] by Automated count"
            }
          ],
          "text": "MCV [Entitic volume] by Automated count"
        },
        "valueQuantity": {
          "system": "http://unitsofmeasure.org",
          "value": 82.4,
          "unit": "fL",
          "code": "fL"
        },
        "referenceRange": [
          {
            "low": {
              "value": 78,
              "code": "fL",
              "system": "http://unitsofmeasure.org"
            }
          },
          {
            "high": {
              "value": 98,
              "code": "fL",
              "system": "http://unitsofmeasure.org"
            }
          }
        ],
        "status": "final",
        "subject": {
          "reference": "urn:uuid:f4130975-e075-48b7-a754-cbc17ec8a6c3"
        },
        "effectiveDateTime": "2024-11-18",
        "specimen": {
          "reference": "urn:uuid:9ebb3291-db5c-4a26-a033-104ec00683b6"
        }
      }
    },
    {
      "fullUrl": "urn:uuid:26e75636-a701-4124-94c8-e0eef6737352",
      "resource": {
        "resourceType": "Observation",
        "id": "26e75636-a701-4124-94c8-e0eef6737352",
        "meta": {
          "profile": [
            "http://hl7.eu/fhir/laboratory/StructureDefinition/Observation-resultslab-eu-lab"
          ]
        },
        "performer": [
          {
            "display": "The Central European Lab"
          }
        ],
        "category": [
          {
            "coding": [
              {
                "code": "laboratory",
                "system": "http://terminology.hl7.org/CodeSystem/observation-category"
              }
            ]
          }
        ],
        "code": {
          "coding": [
            {
              "code": "785-6",
              "system": "http://loinc.org",
              "display": "MCH [Entitic mass] by Automated count"
            }
          ],
          "text": "MCH [Entitic mass] by Automated count"
        },
        "valueQuantity": {
          "system": "http://unitsofmeasure.org",
          "value": 27.8,
          "unit": "pg",
          "code": "pg"
        },
        "referenceRange": [
          {
            "low": {
              "value": 27.3,
              "code": "pg",
              "system": "http://unitsofmeasure.org"
            }
          },
          {
            "high": {
              "value": 33.2,
              "code": "pg",
              "system": "http://unitsofmeasure.org"
            }
          }
        ],
        "status": "final",
        "subject": {
          "reference": "urn:uuid:f4130975-e075-48b7-a754-cbc17ec8a6c3"
        },
        "effectiveDateTime": "2024-11-18",
        "specimen": {
          "reference": "urn:uuid:9ebb3291-db5c-4a26-a033-104ec00683b6"
        }
      }
    },
    {
      "fullUrl": "urn:uuid:46df4ef9-a4a5-4aa2-8336-8bac987fb31b",
      "resource": {
        "resourceType": "Observation",
        "id": "46df4ef9-a4a5-4aa2-8336-8bac987fb31b",
        "meta": {
          "profile": [
            "http://hl7.eu/fhir/laboratory/StructureDefinition/Observation-resultslab-eu-lab"
          ]
        },
        "performer": [
          {
            "display": "The Central European Lab"
          }
        ],
        "category": [
          {
            "coding": [
              {
                "code": "laboratory",
                "system": "http://terminology.hl7.org/CodeSystem/observation-category"
              }
            ]
          }
        ],
        "code": {
          "coding": [
            {
              "code": "786-4",
              "system": "http://loinc.org",
              "display": "MCHC [Mass/volume] by Automated count"
            }
          ],
          "text": "MCHC [Mass/volume] by Automated count"
        },
        "valueQuantity": {
          "system": "http://unitsofmeasure.org",
          "value": 33.5,
          "unit": "g/dL",
          "code": "g/dL"
        },
        "referenceRange": [
          {
            "low": {
              "value": 31,
              "code": "g/dL",
              "system": "http://unitsofmeasure.org"
            }
          },
          {
            "high": {
              "value": 35,
              "code": "g/dL",
              "system": "http://unitsofmeasure.org"
            }
          }
        ],
        "status": "final",
        "subject": {
          "reference": "urn:uuid:f4130975-e075-48b7-a754-cbc17ec8a6c3"
        },
        "effectiveDateTime": "2024-11-18",
        "specimen": {
          "reference": "urn:uuid:9ebb3291-db5c-4a26-a033-104ec00683b6"
        }
      }
    },
    {
      "fullUrl": "urn:uuid:cf9300db-97b4-4131-832b-619e10978590",
      "resource": {
        "resourceType": "Observation",
        "id": "cf9300db-97b4-4131-832b-619e10978590",
        "meta": {
          "profile": [
            "http://hl7.eu/fhir/laboratory/StructureDefinition/Observation-resultslab-eu-lab"
          ]
        },
        "performer": [
          {
            "display": "The Central European Lab"
          }
        ],
        "category": [
          {
            "coding": [
              {
                "code": "laboratory",
                "system": "http://terminology.hl7.org/CodeSystem/observation-category"
              }
            ]
          }
        ],
        "code": {
          "coding": [
            {
              "code": "21000-5",
              "system": "http://loinc.org",
              "display": "Erythrocyte distribution width [Entitic volume] by Automated count"
            }
          ],
          "text": "Erythrocyte distribution width [Entitic volume] by Automated count"
        },
        "valueQuantity": {
          "system": "http://unitsofmeasure.org",
          "value": 43.7,
          "unit": "fL",
          "code": "fL"
        },
        "referenceRange": [
          {
            "low": {
              "value": 36.2,
              "code": "fL",
              "system": "http://unitsofmeasure.org"
            }
          },
          {
            "high": {
              "value": 56.6,
              "code": "fL",
              "system": "http://unitsofmeasure.org"
            }
          }
        ],
        "status": "final",
        "subject": {
          "reference": "urn:uuid:f4130975-e075-48b7-a754-cbc17ec8a6c3"
        },
        "effectiveDateTime": "2024-11-18",
        "specimen": {
          "reference": "urn:uuid:9ebb3291-db5c-4a26-a033-104ec00683b6"
        }
      }
    },
    {
      "fullUrl": "urn:uuid:66587f40-7fea-4a4f-b5b9-1955903c394d",
      "resource": {
        "resourceType": "Observation",
        "id": "66587f40-7fea-4a4f-b5b9-1955903c394d",
        "meta": {
          "profile": [
            "http://hl7.eu/fhir/laboratory/StructureDefinition/Observation-resultslab-eu-lab"
          ]
        },
        "performer": [
          {
            "display": "The Central European Lab"
          }
        ],
        "category": [
          {
            "coding": [
              {
                "code": "laboratory",
                "system": "http://terminology.hl7.org/CodeSystem/observation-category"
              }
            ]
          }
        ],
        "code": {
          "coding": [
            {
              "code": "777-3",
              "system": "http://loinc.org",
              "display": "Platelets [#/volume] in Blood by Automated count"
            }
          ],
          "text": "Platelets [#/volume] in Blood by Automated count"
        },
        "valueQuantity": {
          "system": "http://unitsofmeasure.org",
          "value": 279.7,
          "unit": "10*3/uL",
          "code": "10*3/uL"
        },
        "referenceRange": [
          {
            "low": {
              "value": 150,
              "code": "10*3/uL",
              "system": "http://unitsofmeasure.org"
            }
          },
          {
            "high": {
              "value": 450,
              "code": "10*3/uL",
              "system": "http://unitsofmeasure.org"
            }
          }
        ],
        "status": "final",
        "subject": {
          "reference": "urn:uuid:f4130975-e075-48b7-a754-cbc17ec8a6c3"
        },
        "effectiveDateTime": "2024-11-18",
        "specimen": {
          "reference": "urn:uuid:66cabc33-edac-4e0a-9d91-bd9a0fab6ee8"
        }
      }
    },
    {
      "fullUrl": "urn:uuid:7eb6d677-0bc9-4b02-b259-a5300177f9cd",
      "resource": {
        "resourceType": "Observation",
        "id": "7eb6d677-0bc9-4b02-b259-a5300177f9cd",
        "meta": {
          "profile": [
            "http://hl7.eu/fhir/laboratory/StructureDefinition/Observation-resultslab-eu-lab"
          ]
        },
        "performer": [
          {
            "display": "The Central European Lab"
          }
        ],
        "category": [
          {
            "coding": [
              {
                "code": "laboratory",
                "system": "http://terminology.hl7.org/CodeSystem/observation-category"
              }
            ]
          }
        ],
        "code": {
          "coding": [
            {
              "code": "32207-3",
              "system": "http://loinc.org",
              "display": "Platelet distribution width [Entitic volume] in Blood by Automated count"
            }
          ],
          "text": "Platelet distribution width [Entitic volume] in Blood by Automated count"
        },
        "valueQuantity": {
          "system": "http://unitsofmeasure.org",
          "value": 194.7,
          "unit": "fL",
          "code": "fL"
        },
        "referenceRange": [
          {
            "low": {
              "value": 13.4,
              "code": "fL",
              "system": "http://unitsofmeasure.org"
            }
          },
          {
            "high": {
              "value": 17.4,
              "code": "fL",
              "system": "http://unitsofmeasure.org"
            }
          }
        ],
        "interpretation": [
          {
            "coding": [
              {
                "code": "H",
                "system": "http://terminology.hl7.org/CodeSystem/v3-ObservationInterpretation",
                "display": "High"
              }
            ]
          }
        ],
        "status": "final",
        "subject": {
          "reference": "urn:uuid:f4130975-e075-48b7-a754-cbc17ec8a6c3"
        },
        "effectiveDateTime": "2024-11-18",
        "specimen": {
          "reference": "urn:uuid:66cabc33-edac-4e0a-9d91-bd9a0fab6ee8"
        }
      }
    },
    {
      "fullUrl": "urn:uuid:3d9e67ef-d71b-4eb1-9a0d-ae28852c7c9a",
      "resource": {
        "resourceType": "Observation",
        "id": "3d9e67ef-d71b-4eb1-9a0d-ae28852c7c9a",
        "meta": {
          "profile": [
            "http://hl7.eu/fhir/laboratory/StructureDefinition/Observation-resultslab-eu-lab"
          ]
        },
        "performer": [
          {
            "display": "The Central European Lab"
          }
        ],
        "category": [
          {
            "coding": [
              {
                "code": "laboratory",
                "system": "http://terminology.hl7.org/CodeSystem/observation-category"
              }
            ]
          }
        ],
        "code": {
          "coding": [
            {
              "code": "32623-1",
              "system": "http://loinc.org",
              "display": "Platelet mean volume [Entitic volume] in Blood by Automated count"
            }
          ],
          "text": "Platelet mean volume [Entitic volume] in Blood by Automated count"
        },
        "valueQuantity": {
          "system": "http://unitsofmeasure.org",
          "value": 10.4,
          "unit": "fL",
          "code": "fL"
        },
        "referenceRange": [
          {
            "low": {
              "value": 7.4,
              "code": "fL",
              "system": "http://unitsofmeasure.org"
            }
          },
          {
            "high": {
              "value": 13.4,
              "code": "fL",
              "system": "http://unitsofmeasure.org"
            }
          }
        ],
        "status": "final",
        "subject": {
          "reference": "urn:uuid:f4130975-e075-48b7-a754-cbc17ec8a6c3"
        },
        "effectiveDateTime": "2024-11-18",
        "specimen": {
          "reference": "urn:uuid:66cabc33-edac-4e0a-9d91-bd9a0fab6ee8"
        }
      }
    }
  ],
  "type": "document",
  "timestamp": "2024-11-19T18:36:25Z"
}
