{
  "resourceType": "Bundle",
  "id": "Instance-Bundle-18178246-9b0a-4108-a1e2-98afa4be6109",
  "meta": {
    "profile": [
      "http://hl7.eu/fhir/laboratory/StructureDefinition/Bundle-eu-lab"
    ]
  },
  "identifier": {
    "assigner": {
      "display": "HL7 Europe"
    },
    "system": "urn:oid:2.16.840.1.113883.2.51.999",
    "value": "e44b6224-ccc9-4054-9dbd-c9a671cc9374"
  },
  "entry": [
    {
      "fullUrl": "urn:uuid:deae0c68-8c5f-4203-bcaa-bbf98c6eec0b",
      "resource": {
        "resourceType": "Composition",
        "id": "deae0c68-8c5f-4203-bcaa-bbf98c6eec0b",
        "meta": {
          "profile": [
            "http://hl7.eu/fhir/laboratory/StructureDefinition/Composition-eu-lab"
          ]
        },
        "identifier": {
          "assigner": {
            "display": "HL7 Europe"
          },
          "system": "urn:oid:2.16.840.1.113883.2.51.999",
          "value": "81cf3585-9477-4c70-83fc-d077577e6a62"
        },
        "author": [
          {
            "reference": "urn:uuid:e6efdc54-2c09-4480-a765-4587b9ecbcdb"
          }
        ],
        "category": [
          {
            "coding": [
              {
                "code": "26436-6",
                "system": "http://loinc.org",
                "display": "Laboratory studies (set)"
              }
            ]
          }
        ],
        "type": {
          "text": "Laboratory Report"
        },
        "section": [
          {
            "code": {
              "coding": [
                {
                  "code": "26436-6",
                  "system": "http://loinc.org",
                  "display": "Laboratory studies (set)"
                }
              ],
              "text": "Laboratory studies"
            },
            "section": [
              {
                "code": {
                  "coding": [
                    {
                      "code": "18719-5",
                      "system": "http://loinc.org",
                      "display": "Chemistry studies (set)"
                    }
                  ],
                  "text": "Chemistry"
                },
                "entry": [
                  {
                    "reference": "urn:uuid:a5f89c9c-3d31-48b8-83bd-01552b8bd816"
                  },
                  {
                    "reference": "urn:uuid:dd58e514-bca0-4851-8592-b7623c1ed98b"
                  },
                  {
                    "reference": "urn:uuid:de43a872-8d90-4163-b7e5-e7e5d5fa98ed"
                  },
                  {
                    "reference": "urn:uuid:d375a083-d028-4002-9165-30a9bb0c97d1"
                  },
                  {
                    "reference": "urn:uuid:586c3b31-989f-4022-83ce-09e06fbe4472"
                  },
                  {
                    "reference": "urn:uuid:e53ec317-3055-4d6b-98ca-0d99ba1d7d53"
                  },
                  {
                    "reference": "urn:uuid:8c760ef5-9c38-4bf9-85c5-8b6e684fad07"
                  },
                  {
                    "reference": "urn:uuid:f902c00b-0b5a-4460-aa41-4af9c3099558"
                  },
                  {
                    "reference": "urn:uuid:42c06106-ea1d-4a80-a717-0c38f8d76d4b"
                  },
                  {
                    "reference": "urn:uuid:9b30d0c1-713f-433a-bb31-22cdab6f796f"
                  },
                  {
                    "reference": "urn:uuid:c2fdeacc-b917-4453-be74-9afdc2d09dcc"
                  },
                  {
                    "reference": "urn:uuid:f35f3319-3b9a-4d7f-9d2e-b31520062d17"
                  },
                  {
                    "reference": "urn:uuid:f7ff93eb-3838-4e56-845e-31136cfea759"
                  },
                  {
                    "reference": "urn:uuid:3597c7f1-0d83-4913-8fca-30920d0157bf"
                  },
                  {
                    "reference": "urn:uuid:0ed6cd56-f230-499f-b882-c00c0321c695"
                  },
                  {
                    "reference": "urn:uuid:5349d7ee-f2e0-4fac-ab07-23182874bb27"
                  },
                  {
                    "reference": "urn:uuid:195ff851-995b-412c-964f-58ffa79e3417"
                  },
                  {
                    "reference": "urn:uuid:54616d78-659f-4b77-a2e9-c7167a3bccb1"
                  },
                  {
                    "reference": "urn:uuid:f5317c7d-af35-478b-8efb-8126da1158f4"
                  }
                ],
                "text": {
                  "status": "generated",
                  "div": "<div xmlns=\"http://www.w3.org/1999/xhtml\"><h3 id=\"section-1\">Chemistry</h3><table class=\"hl7__eu__lab__report\"><thead><tr><th>Test</th><th>18 Nov 2024</th><th>Reference Range</th><th>Unit</th></tr></thead><tbody><tr><td>Glucose [Mass/volume] in Blood</td><td>71.0</td><td>70 - 99</td><td>mg/dL</td></tr><tr><td>Urea nitrogen [Mass/volume] in Blood</td><td>16.2</td><td>7 - 26</td><td>mg/dL</td></tr><tr><td>Creatinine [Mass/volume] in Blood</td><td><strong>3.0 H</strong></td><td>0.9 - 1.3</td><td>mg/dL</td></tr><tr><td>Calcium [Mass/volume] in Blood</td><td>9.3</td><td>8.5 - 10.5</td><td>mg/dL</td></tr><tr><td>Sodium [Moles/volume] in Blood</td><td>143.3</td><td>135 - 145</td><td>mmol/L</td></tr><tr><td>Potassium [Moles/volume] in Blood</td><td>5.0</td><td>3.5 - 5.3</td><td>mmol/L</td></tr><tr><td>Chloride [Moles/volume] in Blood</td><td>104.1</td><td>98 - 107</td><td>mmol/L</td></tr><tr><td>Carbon dioxide, total [Moles/volume] in Blood</td><td>23.6</td><td>22 - 29</td><td>mmol/L</td></tr><tr><td>Protein [Mass/volume] in Serum or Plasma</td><td>78.8</td><td>64 - 89.5</td><td>g/dL</td></tr><tr><td>Albumin [Mass/volume] in Serum or Plasma</td><td>5.4</td><td>3.5 - 5.5</td><td>g/dL</td></tr><tr><td>Globulin [Mass/volume] in Serum by calculation</td><td>3.5</td><td>2 - 4</td><td>g/L</td></tr><tr><td>Bilirubin.total [Mass/volume] in Serum or Plasma</td><td>1.1</td><td>0.3 - 1.2</td><td>mg/dL</td></tr><tr><td>Alkaline phosphatase [Enzymatic activity/volume] in Serum or Plasma</td><td>67.4</td><td>53 - 117</td><td>U/L</td></tr><tr><td>Alanine aminotransferase [Enzymatic activity/volume] in Serum or Plasma</td><td>22.3</td><td>10 - 49</td><td>U/L</td></tr><tr><td>Aspartate aminotransferase [Enzymatic activity/volume] in Serum or Plasma</td><td>36.1</td><td>15 - 49</td><td>U/L</td></tr><tr><td>Cholesterol [Mass/volume] in Serum or Plasma</td><td>169.7</td><td>125 - 200</td><td>mg/dL</td></tr><tr><td>Triglyceride [Mass/volume] in Serum or Plasma</td><td>122.7</td><td>0 - 150</td><td>mg/dL</td></tr><tr><td>Cholesterol in LDL [Mass/volume] in Serum or Plasma by Direct assay</td><td><strong>146.6 H</strong></td><td>70 - 130</td><td>mg/dL</td></tr><tr><td>Cholesterol in HDL [Mass/volume] in Serum or Plasma</td><td>41.2</td><td>40 - 60</td><td>mg/dL</td></tr></tbody></table></div>"
                },
                "title": "Chemistry"
              }
            ],
            "title": "Laboratory Report"
          }
        ],
        "status": "final",
        "subject": {
          "reference": "urn:uuid:46e888b5-3720-4ce0-a44d-8c96f3acce02"
        },
        "date": "2024-11-19T18:40:29Z",
        "title": "Laboratory Report",
        "confidentiality": "N"
      }
    },
    {
      "fullUrl": "urn:uuid:2e7118d6-b55d-4704-b7e1-28229d77eabc",
      "resource": {
        "resourceType": "DiagnosticReport",
        "id": "2e7118d6-b55d-4704-b7e1-28229d77eabc",
        "meta": {
          "profile": [
            "http://hl7.eu/fhir/laboratory/StructureDefinition/DiagnosticReport-eu-lab"
          ]
        },
        "identifier": [
          {
            "assigner": {
              "display": "HL7 Europe"
            },
            "system": "urn:oid:2.16.840.1.113883.2.51.999",
            "value": "58f657e2-9078-49e8-8c71-f48967054474"
          }
        ],
        "extension": [
          {
            "url": "http://hl7.org/fhir/5.0/StructureDefinition/extension-DiagnosticReport.composition",
            "valueReference": {
              "reference": "urn:uuid:deae0c68-8c5f-4203-bcaa-bbf98c6eec0b"
            }
          }
        ],
        "category": [
          {
            "coding": [
              {
                "code": "18719-5",
                "system": "http://loinc.org",
                "display": "Chemistry studies (set)"
              }
            ]
          }
        ],
        "specimen": [
          {
            "reference": "urn:uuid:2be52792-ca11-4e05-82f2-435fa0ce3064"
          },
          {
            "reference": "urn:uuid:a27bf008-7690-4d6d-8d17-99780b6b56ff"
          },
          {
            "reference": "urn:uuid:4ee400c4-2b1b-4351-93d2-af2be6d49b81"
          }
        ],
        "result": [
          {
            "reference": "urn:uuid:a5f89c9c-3d31-48b8-83bd-01552b8bd816"
          },
          {
            "reference": "urn:uuid:dd58e514-bca0-4851-8592-b7623c1ed98b"
          },
          {
            "reference": "urn:uuid:de43a872-8d90-4163-b7e5-e7e5d5fa98ed"
          },
          {
            "reference": "urn:uuid:d375a083-d028-4002-9165-30a9bb0c97d1"
          },
          {
            "reference": "urn:uuid:586c3b31-989f-4022-83ce-09e06fbe4472"
          },
          {
            "reference": "urn:uuid:e53ec317-3055-4d6b-98ca-0d99ba1d7d53"
          },
          {
            "reference": "urn:uuid:8c760ef5-9c38-4bf9-85c5-8b6e684fad07"
          },
          {
            "reference": "urn:uuid:f902c00b-0b5a-4460-aa41-4af9c3099558"
          },
          {
            "reference": "urn:uuid:42c06106-ea1d-4a80-a717-0c38f8d76d4b"
          },
          {
            "reference": "urn:uuid:9b30d0c1-713f-433a-bb31-22cdab6f796f"
          },
          {
            "reference": "urn:uuid:c2fdeacc-b917-4453-be74-9afdc2d09dcc"
          },
          {
            "reference": "urn:uuid:f35f3319-3b9a-4d7f-9d2e-b31520062d17"
          },
          {
            "reference": "urn:uuid:f7ff93eb-3838-4e56-845e-31136cfea759"
          },
          {
            "reference": "urn:uuid:3597c7f1-0d83-4913-8fca-30920d0157bf"
          },
          {
            "reference": "urn:uuid:0ed6cd56-f230-499f-b882-c00c0321c695"
          },
          {
            "reference": "urn:uuid:5349d7ee-f2e0-4fac-ab07-23182874bb27"
          },
          {
            "reference": "urn:uuid:195ff851-995b-412c-964f-58ffa79e3417"
          },
          {
            "reference": "urn:uuid:54616d78-659f-4b77-a2e9-c7167a3bccb1"
          },
          {
            "reference": "urn:uuid:f5317c7d-af35-478b-8efb-8126da1158f4"
          }
        ],
        "status": "registered",
        "code": {
          "coding": [
            {
              "code": "11502-2",
              "system": "http://loinc.org",
              "display": "Laboratory report"
            }
          ]
        },
        "subject": {
          "reference": "urn:uuid:46e888b5-3720-4ce0-a44d-8c96f3acce02"
        }
      }
    },
    {
      "fullUrl": "urn:uuid:46e888b5-3720-4ce0-a44d-8c96f3acce02",
      "resource": {
        "resourceType": "Patient",
        "id": "46e888b5-3720-4ce0-a44d-8c96f3acce02",
        "meta": {
          "profile": [
            "http://hl7.eu/fhir/laboratory/StructureDefinition/Patient-eu-lab"
          ]
        },
        "identifier": [
          {
            "type": {
              "coding": [
                {
                  "code": "NI",
                  "system": "http://terminology.hl7.org/CodeSystem/v2-0203"
                }
              ]
            },
            "system": "http://ec.europa.eu/identifier/eci",
            "value": "9119-387214-9"
          },
          {
            "type": {
              "coding": [
                {
                  "code": "MR",
                  "system": "http://terminology.hl7.org/CodeSystem/v2-0203"
                }
              ]
            },
            "system": "http://local.setting.eu/identifier",
            "value": "fd1439ef-13ad-4269-b4ae-ead958d8beef"
          }
        ],
        "name": [
          {
            "given": [
              "Abbondanzio"
            ],
            "family": "Folliero",
            "text": "Abbondanzio Folliero"
          }
        ],
        "address": [
          {
            "line": [
              "Via Nuova Agnano 115"
            ],
            "use": "home",
            "type": "physical",
            "city": "Celenza Valfortore",
            "postalCode": "71035",
            "country": "Italy"
          }
        ],
        "telecom": [
          {
            "system": "phone",
            "value": "+39 0356 1167320"
          }
        ],
        "gender": "male",
        "birthDate": "1979-07-04"
      }
    },
    {
      "fullUrl": "urn:uuid:b3262737-c7e7-4740-a4b0-fc56780f5592",
      "resource": {
        "resourceType": "ServiceRequest",
        "id": "b3262737-c7e7-4740-a4b0-fc56780f5592",
        "meta": {
          "profile": [
            "http://hl7.eu/fhir/laboratory/StructureDefinition/ServiceRequest-eu-lab"
          ]
        },
        "identifier": [
          {
            "system": "http://example.org",
            "value": "ebfed725-104c-4117-974c-a5e7d3fe4de5"
          }
        ],
        "specimen": [
          {
            "reference": "urn:uuid:2be52792-ca11-4e05-82f2-435fa0ce3064"
          },
          {
            "reference": "urn:uuid:a27bf008-7690-4d6d-8d17-99780b6b56ff"
          },
          {
            "reference": "urn:uuid:4ee400c4-2b1b-4351-93d2-af2be6d49b81"
          }
        ],
        "status": "active",
        "intent": "order",
        "code": {
          "coding": [
            {
              "code": "108252007",
              "system": "http://snomed.info/sct",
              "display": "Laboratory procedure"
            }
          ]
        },
        "subject": {
          "reference": "urn:uuid:46e888b5-3720-4ce0-a44d-8c96f3acce02"
        },
        "requester": {
          "reference": "urn:uuid:65da144c-db43-4d02-82cc-0b9152280840"
        }
      }
    },
    {
      "fullUrl": "urn:uuid:65da144c-db43-4d02-82cc-0b9152280840",
      "resource": {
        "resourceType": "PractitionerRole",
        "id": "65da144c-db43-4d02-82cc-0b9152280840",
        "meta": {
          "profile": [
            "http://hl7.eu/fhir/laboratory/StructureDefinition/PractitionerRole-eu-lab"
          ]
        },
        "organization": {
          "reference": "urn:uuid:f9bd2bae-9f58-4778-bfd0-fbecd58e7cbf"
        }
      }
    },
    {
      "fullUrl": "urn:uuid:f9bd2bae-9f58-4778-bfd0-fbecd58e7cbf",
      "resource": {
        "resourceType": "Organization",
        "id": "f9bd2bae-9f58-4778-bfd0-fbecd58e7cbf",
        "meta": {
          "profile": [
            "http://hl7.org/fhir/uv/ips/StructureDefinition/Organization-uv-ips"
          ]
        },
        "identifier": [
          {
            "assigner": {
              "display": "HL7 Europe"
            },
            "system": "urn:oid:2.16.840.1.113883.2.51.999",
            "value": "9171acf5-d92a-4fbd-a2e2-61e369a117e7"
          }
        ],
        "address": [
          {
            "city": "Casacalenda",
            "postalCode": "86043",
            "country": "it"
          }
        ],
        "name": "Guardia Medica"
      }
    },
    {
      "fullUrl": "urn:uuid:e6efdc54-2c09-4480-a765-4587b9ecbcdb",
      "resource": {
        "resourceType": "PractitionerRole",
        "id": "e6efdc54-2c09-4480-a765-4587b9ecbcdb",
        "meta": {
          "profile": [
            "http://hl7.eu/fhir/laboratory/StructureDefinition/PractitionerRole-eu-lab"
          ]
        },
        "practitioner": {
          "reference": "urn:uuid:c524b124-d4e8-45e1-958d-29c954782924"
        }
      }
    },
    {
      "fullUrl": "urn:uuid:c524b124-d4e8-45e1-958d-29c954782924",
      "resource": {
        "resourceType": "Practitioner",
        "id": "c524b124-d4e8-45e1-958d-29c954782924",
        "meta": {
          "profile": [
            "http://hl7.eu/fhir/laboratory/StructureDefinition/Practitioner-eu-lab"
          ]
        },
        "identifier": [
          {
            "assigner": {
              "display": "HL7 Europe"
            },
            "system": "urn:oid:2.16.840.1.113883.2.51.999",
            "value": "ace62544-61ee-4697-ab0b-7b873723a8dd"
          }
        ],
        "name": [
          {
            "prefix": [
              "dr"
            ],
            "given": [
              "Ex"
            ],
            "family": "Ample"
          }
        ],
        "address": [
          {
            "line": [
              "Boulevard du Jardin Botanique 32"
            ],
            "city": "Brussels",
            "postalCode": "1000"
          }
        ]
      }
    },
    {
      "fullUrl": "urn:uuid:2be52792-ca11-4e05-82f2-435fa0ce3064",
      "resource": {
        "resourceType": "Specimen",
        "id": "2be52792-ca11-4e05-82f2-435fa0ce3064",
        "meta": {
          "profile": [
            "http://hl7.eu/fhir/laboratory/StructureDefinition/Specimen-eu-lab"
          ]
        },
        "collection": {
          "collectedDateTime": "2024-11-18"
        },
        "status": "available",
        "type": {
          "coding": [
            {
              "code": "258580003",
              "system": "http://snomed.info/sct",
              "display": "Whole blood specimen (specimen)"
            }
          ]
        }
      }
    },
    {
      "fullUrl": "urn:uuid:a27bf008-7690-4d6d-8d17-99780b6b56ff",
      "resource": {
        "resourceType": "Specimen",
        "id": "a27bf008-7690-4d6d-8d17-99780b6b56ff",
        "meta": {
          "profile": [
            "http://hl7.eu/fhir/laboratory/StructureDefinition/Specimen-eu-lab"
          ]
        },
        "collection": {
          "collectedDateTime": "2024-11-18"
        },
        "status": "available",
        "type": {
          "coding": [
            {
              "code": "122592007",
              "system": "http://snomed.info/sct",
              "display": "Acellular blood (serum or plasma) specimen (specimen)"
            }
          ]
        }
      }
    },
    {
      "fullUrl": "urn:uuid:4ee400c4-2b1b-4351-93d2-af2be6d49b81",
      "resource": {
        "resourceType": "Specimen",
        "id": "4ee400c4-2b1b-4351-93d2-af2be6d49b81",
        "meta": {
          "profile": [
            "http://hl7.eu/fhir/laboratory/StructureDefinition/Specimen-eu-lab"
          ]
        },
        "collection": {
          "collectedDateTime": "2024-11-18"
        },
        "status": "available",
        "type": {
          "coding": [
            {
              "code": "119364003",
              "system": "http://snomed.info/sct",
              "display": "Serum specimen (specimen)"
            }
          ]
        }
      }
    },
    {
      "fullUrl": "urn:uuid:a5f89c9c-3d31-48b8-83bd-01552b8bd816",
      "resource": {
        "resourceType": "Observation",
        "id": "a5f89c9c-3d31-48b8-83bd-01552b8bd816",
        "meta": {
          "profile": [
            "http://hl7.eu/fhir/laboratory/StructureDefinition/Observation-resultslab-eu-lab"
          ]
        },
        "performer": [
          {
            "display": "The Central European Lab"
          }
        ],
        "category": [
          {
            "coding": [
              {
                "code": "laboratory",
                "system": "http://terminology.hl7.org/CodeSystem/observation-category"
              }
            ]
          }
        ],
        "code": {
          "coding": [
            {
              "code": "2339-0",
              "system": "http://loinc.org",
              "display": "Glucose [Mass/volume] in Blood"
            }
          ],
          "text": "Glucose [Mass/volume] in Blood"
        },
        "valueQuantity": {
          "system": "http://unitsofmeasure.org",
          "value": 71,
          "unit": "mg/dL",
          "code": "mg/dL"
        },
        "referenceRange": [
          {
            "low": {
              "value": 70,
              "code": "mg/dL",
              "system": "http://unitsofmeasure.org"
            }
          },
          {
            "high": {
              "value": 99,
              "code": "mg/dL",
              "system": "http://unitsofmeasure.org"
            }
          }
        ],
        "status": "final",
        "subject": {
          "reference": "urn:uuid:46e888b5-3720-4ce0-a44d-8c96f3acce02"
        },
        "effectiveDateTime": "2024-11-18",
        "specimen": {
          "reference": "urn:uuid:2be52792-ca11-4e05-82f2-435fa0ce3064"
        }
      }
    },
    {
      "fullUrl": "urn:uuid:dd58e514-bca0-4851-8592-b7623c1ed98b",
      "resource": {
        "resourceType": "Observation",
        "id": "dd58e514-bca0-4851-8592-b7623c1ed98b",
        "meta": {
          "profile": [
            "http://hl7.eu/fhir/laboratory/StructureDefinition/Observation-resultslab-eu-lab"
          ]
        },
        "performer": [
          {
            "display": "The Central European Lab"
          }
        ],
        "category": [
          {
            "coding": [
              {
                "code": "laboratory",
                "system": "http://terminology.hl7.org/CodeSystem/observation-category"
              }
            ]
          }
        ],
        "code": {
          "coding": [
            {
              "code": "6299-2",
              "system": "http://loinc.org",
              "display": "Urea nitrogen [Mass/volume] in Blood"
            }
          ],
          "text": "Urea nitrogen [Mass/volume] in Blood"
        },
        "valueQuantity": {
          "system": "http://unitsofmeasure.org",
          "value": 16.2,
          "unit": "mg/dL",
          "code": "mg/dL"
        },
        "referenceRange": [
          {
            "low": {
              "value": 7,
              "code": "mg/dL",
              "system": "http://unitsofmeasure.org"
            }
          },
          {
            "high": {
              "value": 26,
              "code": "mg/dL",
              "system": "http://unitsofmeasure.org"
            }
          }
        ],
        "status": "final",
        "subject": {
          "reference": "urn:uuid:46e888b5-3720-4ce0-a44d-8c96f3acce02"
        },
        "effectiveDateTime": "2024-11-18",
        "specimen": {
          "reference": "urn:uuid:2be52792-ca11-4e05-82f2-435fa0ce3064"
        }
      }
    },
    {
      "fullUrl": "urn:uuid:de43a872-8d90-4163-b7e5-e7e5d5fa98ed",
      "resource": {
        "resourceType": "Observation",
        "id": "de43a872-8d90-4163-b7e5-e7e5d5fa98ed",
        "meta": {
          "profile": [
            "http://hl7.eu/fhir/laboratory/StructureDefinition/Observation-resultslab-eu-lab"
          ]
        },
        "performer": [
          {
            "display": "The Central European Lab"
          }
        ],
        "category": [
          {
            "coding": [
              {
                "code": "laboratory",
                "system": "http://terminology.hl7.org/CodeSystem/observation-category"
              }
            ]
          }
        ],
        "code": {
          "coding": [
            {
              "code": "38483-4",
              "system": "http://loinc.org",
              "display": "Creatinine [Mass/volume] in Blood"
            }
          ],
          "text": "Creatinine [Mass/volume] in Blood"
        },
        "valueQuantity": {
          "system": "http://unitsofmeasure.org",
          "value": 3,
          "unit": "mg/dL",
          "code": "mg/dL"
        },
        "referenceRange": [
          {
            "low": {
              "value": 0.9,
              "code": "mg/dL",
              "system": "http://unitsofmeasure.org"
            }
          },
          {
            "high": {
              "value": 1.3,
              "code": "mg/dL",
              "system": "http://unitsofmeasure.org"
            }
          }
        ],
        "interpretation": [
          {
            "coding": [
              {
                "code": "H",
                "system": "http://terminology.hl7.org/CodeSystem/v3-ObservationInterpretation",
                "display": "High"
              }
            ]
          }
        ],
        "status": "final",
        "subject": {
          "reference": "urn:uuid:46e888b5-3720-4ce0-a44d-8c96f3acce02"
        },
        "effectiveDateTime": "2024-11-18",
        "specimen": {
          "reference": "urn:uuid:2be52792-ca11-4e05-82f2-435fa0ce3064"
        }
      }
    },
    {
      "fullUrl": "urn:uuid:d375a083-d028-4002-9165-30a9bb0c97d1",
      "resource": {
        "resourceType": "Observation",
        "id": "d375a083-d028-4002-9165-30a9bb0c97d1",
        "meta": {
          "profile": [
            "http://hl7.eu/fhir/laboratory/StructureDefinition/Observation-resultslab-eu-lab"
          ]
        },
        "performer": [
          {
            "display": "The Central European Lab"
          }
        ],
        "category": [
          {
            "coding": [
              {
                "code": "laboratory",
                "system": "http://terminology.hl7.org/CodeSystem/observation-category"
              }
            ]
          }
        ],
        "code": {
          "coding": [
            {
              "code": "49765-1",
              "system": "http://loinc.org",
              "display": "Calcium [Mass/volume] in Blood"
            }
          ],
          "text": "Calcium [Mass/volume] in Blood"
        },
        "valueQuantity": {
          "system": "http://unitsofmeasure.org",
          "value": 9.3,
          "unit": "mg/dL",
          "code": "mg/dL"
        },
        "referenceRange": [
          {
            "low": {
              "value": 8.5,
              "code": "mg/dL",
              "system": "http://unitsofmeasure.org"
            }
          },
          {
            "high": {
              "value": 10.5,
              "code": "mg/dL",
              "system": "http://unitsofmeasure.org"
            }
          }
        ],
        "status": "final",
        "subject": {
          "reference": "urn:uuid:46e888b5-3720-4ce0-a44d-8c96f3acce02"
        },
        "effectiveDateTime": "2024-11-18",
        "specimen": {
          "reference": "urn:uuid:2be52792-ca11-4e05-82f2-435fa0ce3064"
        }
      }
    },
    {
      "fullUrl": "urn:uuid:586c3b31-989f-4022-83ce-09e06fbe4472",
      "resource": {
        "resourceType": "Observation",
        "id": "586c3b31-989f-4022-83ce-09e06fbe4472",
        "meta": {
          "profile": [
            "http://hl7.eu/fhir/laboratory/StructureDefinition/Observation-resultslab-eu-lab"
          ]
        },
        "performer": [
          {
            "display": "The Central European Lab"
          }
        ],
        "category": [
          {
            "coding": [
              {
                "code": "laboratory",
                "system": "http://terminology.hl7.org/CodeSystem/observation-category"
              }
            ]
          }
        ],
        "code": {
          "coding": [
            {
              "code": "2947-0",
              "system": "http://loinc.org",
              "display": "Sodium [Moles/volume] in Blood"
            }
          ],
          "text": "Sodium [Moles/volume] in Blood"
        },
        "valueQuantity": {
          "system": "http://unitsofmeasure.org",
          "value": 143.3,
          "unit": "mmol/L",
          "code": "mmol/L"
        },
        "referenceRange": [
          {
            "low": {
              "value": 135,
              "code": "mmol/L",
              "system": "http://unitsofmeasure.org"
            }
          },
          {
            "high": {
              "value": 145,
              "code": "mmol/L",
              "system": "http://unitsofmeasure.org"
            }
          }
        ],
        "status": "final",
        "subject": {
          "reference": "urn:uuid:46e888b5-3720-4ce0-a44d-8c96f3acce02"
        },
        "effectiveDateTime": "2024-11-18",
        "specimen": {
          "reference": "urn:uuid:2be52792-ca11-4e05-82f2-435fa0ce3064"
        }
      }
    },
    {
      "fullUrl": "urn:uuid:e53ec317-3055-4d6b-98ca-0d99ba1d7d53",
      "resource": {
        "resourceType": "Observation",
        "id": "e53ec317-3055-4d6b-98ca-0d99ba1d7d53",
        "meta": {
          "profile": [
            "http://hl7.eu/fhir/laboratory/StructureDefinition/Observation-resultslab-eu-lab"
          ]
        },
        "performer": [
          {
            "display": "The Central European Lab"
          }
        ],
        "category": [
          {
            "coding": [
              {
                "code": "laboratory",
                "system": "http://terminology.hl7.org/CodeSystem/observation-category"
              }
            ]
          }
        ],
        "code": {
          "coding": [
            {
              "code": "6298-4",
              "system": "http://loinc.org",
              "display": "Potassium [Moles/volume] in Blood"
            }
          ],
          "text": "Potassium [Moles/volume] in Blood"
        },
        "valueQuantity": {
          "system": "http://unitsofmeasure.org",
          "value": 5,
          "unit": "mmol/L",
          "code": "mmol/L"
        },
        "referenceRange": [
          {
            "low": {
              "value": 3.5,
              "code": "mmol/L",
              "system": "http://unitsofmeasure.org"
            }
          },
          {
            "high": {
              "value": 5.3,
              "code": "mmol/L",
              "system": "http://unitsofmeasure.org"
            }
          }
        ],
        "status": "final",
        "subject": {
          "reference": "urn:uuid:46e888b5-3720-4ce0-a44d-8c96f3acce02"
        },
        "effectiveDateTime": "2024-11-18",
        "specimen": {
          "reference": "urn:uuid:2be52792-ca11-4e05-82f2-435fa0ce3064"
        }
      }
    },
    {
      "fullUrl": "urn:uuid:8c760ef5-9c38-4bf9-85c5-8b6e684fad07",
      "resource": {
        "resourceType": "Observation",
        "id": "8c760ef5-9c38-4bf9-85c5-8b6e684fad07",
        "meta": {
          "profile": [
            "http://hl7.eu/fhir/laboratory/StructureDefinition/Observation-resultslab-eu-lab"
          ]
        },
        "performer": [
          {
            "display": "The Central European Lab"
          }
        ],
        "category": [
          {
            "coding": [
              {
                "code": "laboratory",
                "system": "http://terminology.hl7.org/CodeSystem/observation-category"
              }
            ]
          }
        ],
        "code": {
          "coding": [
            {
              "code": "2069-3",
              "system": "http://loinc.org",
              "display": "Chloride [Moles/volume] in Blood"
            }
          ],
          "text": "Chloride [Moles/volume] in Blood"
        },
        "valueQuantity": {
          "system": "http://unitsofmeasure.org",
          "value": 104.1,
          "unit": "mmol/L",
          "code": "mmol/L"
        },
        "referenceRange": [
          {
            "low": {
              "value": 98,
              "code": "mmol/L",
              "system": "http://unitsofmeasure.org"
            }
          },
          {
            "high": {
              "value": 107,
              "code": "mmol/L",
              "system": "http://unitsofmeasure.org"
            }
          }
        ],
        "status": "final",
        "subject": {
          "reference": "urn:uuid:46e888b5-3720-4ce0-a44d-8c96f3acce02"
        },
        "effectiveDateTime": "2024-11-18",
        "specimen": {
          "reference": "urn:uuid:2be52792-ca11-4e05-82f2-435fa0ce3064"
        }
      }
    },
    {
      "fullUrl": "urn:uuid:f902c00b-0b5a-4460-aa41-4af9c3099558",
      "resource": {
        "resourceType": "Observation",
        "id": "f902c00b-0b5a-4460-aa41-4af9c3099558",
        "meta": {
          "profile": [
            "http://hl7.eu/fhir/laboratory/StructureDefinition/Observation-resultslab-eu-lab"
          ]
        },
        "performer": [
          {
            "display": "The Central European Lab"
          }
        ],
        "category": [
          {
            "coding": [
              {
                "code": "laboratory",
                "system": "http://terminology.hl7.org/CodeSystem/observation-category"
              }
            ]
          }
        ],
        "code": {
          "coding": [
            {
              "code": "20565-8",
              "system": "http://loinc.org",
              "display": "Carbon dioxide, total [Moles/volume] in Blood"
            }
          ],
          "text": "Carbon dioxide, total [Moles/volume] in Blood"
        },
        "valueQuantity": {
          "system": "http://unitsofmeasure.org",
          "value": 23.6,
          "unit": "mmol/L",
          "code": "mmol/L"
        },
        "referenceRange": [
          {
            "low": {
              "value": 22,
              "code": "mmol/L",
              "system": "http://unitsofmeasure.org"
            }
          },
          {
            "high": {
              "value": 29,
              "code": "mmol/L",
              "system": "http://unitsofmeasure.org"
            }
          }
        ],
        "status": "final",
        "subject": {
          "reference": "urn:uuid:46e888b5-3720-4ce0-a44d-8c96f3acce02"
        },
        "effectiveDateTime": "2024-11-18",
        "specimen": {
          "reference": "urn:uuid:2be52792-ca11-4e05-82f2-435fa0ce3064"
        }
      }
    },
    {
      "fullUrl": "urn:uuid:42c06106-ea1d-4a80-a717-0c38f8d76d4b",
      "resource": {
        "resourceType": "Observation",
        "id": "42c06106-ea1d-4a80-a717-0c38f8d76d4b",
        "meta": {
          "profile": [
            "http://hl7.eu/fhir/laboratory/StructureDefinition/Observation-resultslab-eu-lab"
          ]
        },
        "performer": [
          {
            "display": "The Central European Lab"
          }
        ],
        "category": [
          {
            "coding": [
              {
                "code": "laboratory",
                "system": "http://terminology.hl7.org/CodeSystem/observation-category"
              }
            ]
          }
        ],
        "code": {
          "coding": [
            {
              "code": "2885-2",
              "system": "http://loinc.org",
              "display": "Protein [Mass/volume] in Serum or Plasma"
            }
          ],
          "text": "Protein [Mass/volume] in Serum or Plasma"
        },
        "valueQuantity": {
          "system": "http://unitsofmeasure.org",
          "value": 78.8,
          "unit": "g/dL",
          "code": "g/dL"
        },
        "referenceRange": [
          {
            "low": {
              "value": 64,
              "code": "g/dL",
              "system": "http://unitsofmeasure.org"
            }
          },
          {
            "high": {
              "value": 89.5,
              "code": "g/dL",
              "system": "http://unitsofmeasure.org"
            }
          }
        ],
        "status": "final",
        "subject": {
          "reference": "urn:uuid:46e888b5-3720-4ce0-a44d-8c96f3acce02"
        },
        "effectiveDateTime": "2024-11-18",
        "specimen": {
          "reference": "urn:uuid:a27bf008-7690-4d6d-8d17-99780b6b56ff"
        }
      }
    },
    {
      "fullUrl": "urn:uuid:9b30d0c1-713f-433a-bb31-22cdab6f796f",
      "resource": {
        "resourceType": "Observation",
        "id": "9b30d0c1-713f-433a-bb31-22cdab6f796f",
        "meta": {
          "profile": [
            "http://hl7.eu/fhir/laboratory/StructureDefinition/Observation-resultslab-eu-lab"
          ]
        },
        "performer": [
          {
            "display": "The Central European Lab"
          }
        ],
        "category": [
          {
            "coding": [
              {
                "code": "laboratory",
                "system": "http://terminology.hl7.org/CodeSystem/observation-category"
              }
            ]
          }
        ],
        "code": {
          "coding": [
            {
              "code": "1751-7",
              "system": "http://loinc.org",
              "display": "Albumin [Mass/volume] in Serum or Plasma"
            }
          ],
          "text": "Albumin [Mass/volume] in Serum or Plasma"
        },
        "valueQuantity": {
          "system": "http://unitsofmeasure.org",
          "value": 5.4,
          "unit": "g/dL",
          "code": "g/dL"
        },
        "referenceRange": [
          {
            "low": {
              "value": 3.5,
              "code": "g/dL",
              "system": "http://unitsofmeasure.org"
            }
          },
          {
            "high": {
              "value": 5.5,
              "code": "g/dL",
              "system": "http://unitsofmeasure.org"
            }
          }
        ],
        "status": "final",
        "subject": {
          "reference": "urn:uuid:46e888b5-3720-4ce0-a44d-8c96f3acce02"
        },
        "effectiveDateTime": "2024-11-18",
        "specimen": {
          "reference": "urn:uuid:a27bf008-7690-4d6d-8d17-99780b6b56ff"
        }
      }
    },
    {
      "fullUrl": "urn:uuid:c2fdeacc-b917-4453-be74-9afdc2d09dcc",
      "resource": {
        "resourceType": "Observation",
        "id": "c2fdeacc-b917-4453-be74-9afdc2d09dcc",
        "meta": {
          "profile": [
            "http://hl7.eu/fhir/laboratory/StructureDefinition/Observation-resultslab-eu-lab"
          ]
        },
        "performer": [
          {
            "display": "The Central European Lab"
          }
        ],
        "category": [
          {
            "coding": [
              {
                "code": "laboratory",
                "system": "http://terminology.hl7.org/CodeSystem/observation-category"
              }
            ]
          }
        ],
        "code": {
          "coding": [
            {
              "code": "10834-0",
              "system": "http://loinc.org",
              "display": "Globulin [Mass/volume] in Serum by calculation"
            }
          ],
          "text": "Globulin [Mass/volume] in Serum by calculation"
        },
        "valueQuantity": {
          "system": "http://unitsofmeasure.org",
          "value": 3.5,
          "unit": "g/L",
          "code": "g/L"
        },
        "referenceRange": [
          {
            "low": {
              "value": 2,
              "code": "g/L",
              "system": "http://unitsofmeasure.org"
            }
          },
          {
            "high": {
              "value": 4,
              "code": "g/L",
              "system": "http://unitsofmeasure.org"
            }
          }
        ],
        "status": "final",
        "subject": {
          "reference": "urn:uuid:46e888b5-3720-4ce0-a44d-8c96f3acce02"
        },
        "effectiveDateTime": "2024-11-18",
        "specimen": {
          "reference": "urn:uuid:4ee400c4-2b1b-4351-93d2-af2be6d49b81"
        }
      }
    },
    {
      "fullUrl": "urn:uuid:f35f3319-3b9a-4d7f-9d2e-b31520062d17",
      "resource": {
        "resourceType": "Observation",
        "id": "f35f3319-3b9a-4d7f-9d2e-b31520062d17",
        "meta": {
          "profile": [
            "http://hl7.eu/fhir/laboratory/StructureDefinition/Observation-resultslab-eu-lab"
          ]
        },
        "performer": [
          {
            "display": "The Central European Lab"
          }
        ],
        "category": [
          {
            "coding": [
              {
                "code": "laboratory",
                "system": "http://terminology.hl7.org/CodeSystem/observation-category"
              }
            ]
          }
        ],
        "code": {
          "coding": [
            {
              "code": "1975-2",
              "system": "http://loinc.org",
              "display": "Bilirubin.total [Mass/volume] in Serum or Plasma"
            }
          ],
          "text": "Bilirubin.total [Mass/volume] in Serum or Plasma"
        },
        "valueQuantity": {
          "system": "http://unitsofmeasure.org",
          "value": 1.1,
          "unit": "mg/dL",
          "code": "mg/dL"
        },
        "referenceRange": [
          {
            "low": {
              "value": 0.3,
              "code": "mg/dL",
              "system": "http://unitsofmeasure.org"
            }
          },
          {
            "high": {
              "value": 1.2,
              "code": "mg/dL",
              "system": "http://unitsofmeasure.org"
            }
          }
        ],
        "status": "final",
        "subject": {
          "reference": "urn:uuid:46e888b5-3720-4ce0-a44d-8c96f3acce02"
        },
        "effectiveDateTime": "2024-11-18",
        "specimen": {
          "reference": "urn:uuid:a27bf008-7690-4d6d-8d17-99780b6b56ff"
        }
      }
    },
    {
      "fullUrl": "urn:uuid:f7ff93eb-3838-4e56-845e-31136cfea759",
      "resource": {
        "resourceType": "Observation",
        "id": "f7ff93eb-3838-4e56-845e-31136cfea759",
        "meta": {
          "profile": [
            "http://hl7.eu/fhir/laboratory/StructureDefinition/Observation-resultslab-eu-lab"
          ]
        },
        "performer": [
          {
            "display": "The Central European Lab"
          }
        ],
        "category": [
          {
            "coding": [
              {
                "code": "laboratory",
                "system": "http://terminology.hl7.org/CodeSystem/observation-category"
              }
            ]
          }
        ],
        "code": {
          "coding": [
            {
              "code": "6768-6",
              "system": "http://loinc.org",
              "display": "Alkaline phosphatase [Enzymatic activity/volume] in Serum or Plasma"
            }
          ],
          "text": "Alkaline phosphatase [Enzymatic activity/volume] in Serum or Plasma"
        },
        "valueQuantity": {
          "system": "http://unitsofmeasure.org",
          "value": 67.4,
          "unit": "U/L",
          "code": "U/L"
        },
        "referenceRange": [
          {
            "low": {
              "value": 53,
              "code": "U/L",
              "system": "http://unitsofmeasure.org"
            }
          },
          {
            "high": {
              "value": 117,
              "code": "U/L",
              "system": "http://unitsofmeasure.org"
            }
          }
        ],
        "status": "final",
        "subject": {
          "reference": "urn:uuid:46e888b5-3720-4ce0-a44d-8c96f3acce02"
        },
        "effectiveDateTime": "2024-11-18",
        "specimen": {
          "reference": "urn:uuid:a27bf008-7690-4d6d-8d17-99780b6b56ff"
        }
      }
    },
    {
      "fullUrl": "urn:uuid:3597c7f1-0d83-4913-8fca-30920d0157bf",
      "resource": {
        "resourceType": "Observation",
        "id": "3597c7f1-0d83-4913-8fca-30920d0157bf",
        "meta": {
          "profile": [
            "http://hl7.eu/fhir/laboratory/StructureDefinition/Observation-resultslab-eu-lab"
          ]
        },
        "performer": [
          {
            "display": "The Central European Lab"
          }
        ],
        "category": [
          {
            "coding": [
              {
                "code": "laboratory",
                "system": "http://terminology.hl7.org/CodeSystem/observation-category"
              }
            ]
          }
        ],
        "code": {
          "coding": [
            {
              "code": "1742-6",
              "system": "http://loinc.org",
              "display": "Alanine aminotransferase [Enzymatic activity/volume] in Serum or Plasma"
            }
          ],
          "text": "Alanine aminotransferase [Enzymatic activity/volume] in Serum or Plasma"
        },
        "valueQuantity": {
          "system": "http://unitsofmeasure.org",
          "value": 22.3,
          "unit": "U/L",
          "code": "U/L"
        },
        "referenceRange": [
          {
            "low": {
              "value": 10,
              "code": "U/L",
              "system": "http://unitsofmeasure.org"
            }
          },
          {
            "high": {
              "value": 49,
              "code": "U/L",
              "system": "http://unitsofmeasure.org"
            }
          }
        ],
        "status": "final",
        "subject": {
          "reference": "urn:uuid:46e888b5-3720-4ce0-a44d-8c96f3acce02"
        },
        "effectiveDateTime": "2024-11-18",
        "specimen": {
          "reference": "urn:uuid:a27bf008-7690-4d6d-8d17-99780b6b56ff"
        }
      }
    },
    {
      "fullUrl": "urn:uuid:0ed6cd56-f230-499f-b882-c00c0321c695",
      "resource": {
        "resourceType": "Observation",
        "id": "0ed6cd56-f230-499f-b882-c00c0321c695",
        "meta": {
          "profile": [
            "http://hl7.eu/fhir/laboratory/StructureDefinition/Observation-resultslab-eu-lab"
          ]
        },
        "performer": [
          {
            "display": "The Central European Lab"
          }
        ],
        "category": [
          {
            "coding": [
              {
                "code": "laboratory",
                "system": "http://terminology.hl7.org/CodeSystem/observation-category"
              }
            ]
          }
        ],
        "code": {
          "coding": [
            {
              "code": "1920-8",
              "system": "http://loinc.org",
              "display": "Aspartate aminotransferase [Enzymatic activity/volume] in Serum or Plasma"
            }
          ],
          "text": "Aspartate aminotransferase [Enzymatic activity/volume] in Serum or Plasma"
        },
        "valueQuantity": {
          "system": "http://unitsofmeasure.org",
          "value": 36.1,
          "unit": "U/L",
          "code": "U/L"
        },
        "referenceRange": [
          {
            "low": {
              "value": 15,
              "code": "U/L",
              "system": "http://unitsofmeasure.org"
            }
          },
          {
            "high": {
              "value": 49,
              "code": "U/L",
              "system": "http://unitsofmeasure.org"
            }
          }
        ],
        "status": "final",
        "subject": {
          "reference": "urn:uuid:46e888b5-3720-4ce0-a44d-8c96f3acce02"
        },
        "effectiveDateTime": "2024-11-18",
        "specimen": {
          "reference": "urn:uuid:a27bf008-7690-4d6d-8d17-99780b6b56ff"
        }
      }
    },
    {
      "fullUrl": "urn:uuid:5349d7ee-f2e0-4fac-ab07-23182874bb27",
      "resource": {
        "resourceType": "Observation",
        "id": "5349d7ee-f2e0-4fac-ab07-23182874bb27",
        "meta": {
          "profile": [
            "http://hl7.eu/fhir/laboratory/StructureDefinition/Observation-resultslab-eu-lab"
          ]
        },
        "performer": [
          {
            "display": "The Central European Lab"
          }
        ],
        "category": [
          {
            "coding": [
              {
                "code": "laboratory",
                "system": "http://terminology.hl7.org/CodeSystem/observation-category"
              }
            ]
          }
        ],
        "code": {
          "coding": [
            {
              "code": "2093-3",
              "system": "http://loinc.org",
              "display": "Cholesterol [Mass/volume] in Serum or Plasma"
            }
          ],
          "text": "Cholesterol [Mass/volume] in Serum or Plasma"
        },
        "valueQuantity": {
          "system": "http://unitsofmeasure.org",
          "value": 169.7,
          "unit": "mg/dL",
          "code": "mg/dL"
        },
        "referenceRange": [
          {
            "low": {
              "value": 125,
              "code": "mg/dL",
              "system": "http://unitsofmeasure.org"
            }
          },
          {
            "high": {
              "value": 200,
              "code": "mg/dL",
              "system": "http://unitsofmeasure.org"
            }
          }
        ],
        "status": "final",
        "subject": {
          "reference": "urn:uuid:46e888b5-3720-4ce0-a44d-8c96f3acce02"
        },
        "effectiveDateTime": "2024-11-18",
        "specimen": {
          "reference": "urn:uuid:a27bf008-7690-4d6d-8d17-99780b6b56ff"
        }
      }
    },
    {
      "fullUrl": "urn:uuid:195ff851-995b-412c-964f-58ffa79e3417",
      "resource": {
        "resourceType": "Observation",
        "id": "195ff851-995b-412c-964f-58ffa79e3417",
        "meta": {
          "profile": [
            "http://hl7.eu/fhir/laboratory/StructureDefinition/Observation-resultslab-eu-lab"
          ]
        },
        "performer": [
          {
            "display": "The Central European Lab"
          }
        ],
        "category": [
          {
            "coding": [
              {
                "code": "laboratory",
                "system": "http://terminology.hl7.org/CodeSystem/observation-category"
              }
            ]
          }
        ],
        "code": {
          "coding": [
            {
              "code": "2571-8",
              "system": "http://loinc.org",
              "display": "Triglyceride [Mass/volume] in Serum or Plasma"
            }
          ],
          "text": "Triglyceride [Mass/volume] in Serum or Plasma"
        },
        "valueQuantity": {
          "system": "http://unitsofmeasure.org",
          "value": 122.7,
          "unit": "mg/dL",
          "code": "mg/dL"
        },
        "referenceRange": [
          {
            "low": {
              "value": 0,
              "code": "mg/dL",
              "system": "http://unitsofmeasure.org"
            }
          },
          {
            "high": {
              "value": 150,
              "code": "mg/dL",
              "system": "http://unitsofmeasure.org"
            }
          }
        ],
        "status": "final",
        "subject": {
          "reference": "urn:uuid:46e888b5-3720-4ce0-a44d-8c96f3acce02"
        },
        "effectiveDateTime": "2024-11-18",
        "specimen": {
          "reference": "urn:uuid:a27bf008-7690-4d6d-8d17-99780b6b56ff"
        }
      }
    },
    {
      "fullUrl": "urn:uuid:54616d78-659f-4b77-a2e9-c7167a3bccb1",
      "resource": {
        "resourceType": "Observation",
        "id": "54616d78-659f-4b77-a2e9-c7167a3bccb1",
        "meta": {
          "profile": [
            "http://hl7.eu/fhir/laboratory/StructureDefinition/Observation-resultslab-eu-lab"
          ]
        },
        "performer": [
          {
            "display": "The Central European Lab"
          }
        ],
        "category": [
          {
            "coding": [
              {
                "code": "laboratory",
                "system": "http://terminology.hl7.org/CodeSystem/observation-category"
              }
            ]
          }
        ],
        "code": {
          "coding": [
            {
              "code": "18262-6",
              "system": "http://loinc.org",
              "display": "Cholesterol in LDL [Mass/volume] in Serum or Plasma by Direct assay"
            }
          ],
          "text": "Cholesterol in LDL [Mass/volume] in Serum or Plasma by Direct assay"
        },
        "valueQuantity": {
          "system": "http://unitsofmeasure.org",
          "value": 146.6,
          "unit": "mg/dL",
          "code": "mg/dL"
        },
        "referenceRange": [
          {
            "low": {
              "value": 70,
              "code": "mg/dL",
              "system": "http://unitsofmeasure.org"
            }
          },
          {
            "high": {
              "value": 130,
              "code": "mg/dL",
              "system": "http://unitsofmeasure.org"
            }
          }
        ],
        "interpretation": [
          {
            "coding": [
              {
                "code": "H",
                "system": "http://terminology.hl7.org/CodeSystem/v3-ObservationInterpretation",
                "display": "High"
              }
            ]
          }
        ],
        "status": "final",
        "subject": {
          "reference": "urn:uuid:46e888b5-3720-4ce0-a44d-8c96f3acce02"
        },
        "effectiveDateTime": "2024-11-18",
        "specimen": {
          "reference": "urn:uuid:a27bf008-7690-4d6d-8d17-99780b6b56ff"
        }
      }
    },
    {
      "fullUrl": "urn:uuid:f5317c7d-af35-478b-8efb-8126da1158f4",
      "resource": {
        "resourceType": "Observation",
        "id": "f5317c7d-af35-478b-8efb-8126da1158f4",
        "meta": {
          "profile": [
            "http://hl7.eu/fhir/laboratory/StructureDefinition/Observation-resultslab-eu-lab"
          ]
        },
        "performer": [
          {
            "display": "The Central European Lab"
          }
        ],
        "category": [
          {
            "coding": [
              {
                "code": "laboratory",
                "system": "http://terminology.hl7.org/CodeSystem/observation-category"
              }
            ]
          }
        ],
        "code": {
          "coding": [
            {
              "code": "2085-9",
              "system": "http://loinc.org",
              "display": "Cholesterol in HDL [Mass/volume] in Serum or Plasma"
            }
          ],
          "text": "Cholesterol in HDL [Mass/volume] in Serum or Plasma"
        },
        "valueQuantity": {
          "system": "http://unitsofmeasure.org",
          "value": 41.2,
          "unit": "mg/dL",
          "code": "mg/dL"
        },
        "referenceRange": [
          {
            "low": {
              "value": 40,
              "code": "mg/dL",
              "system": "http://unitsofmeasure.org"
            }
          },
          {
            "high": {
              "value": 60,
              "code": "mg/dL",
              "system": "http://unitsofmeasure.org"
            }
          }
        ],
        "status": "final",
        "subject": {
          "reference": "urn:uuid:46e888b5-3720-4ce0-a44d-8c96f3acce02"
        },
        "effectiveDateTime": "2024-11-18",
        "specimen": {
          "reference": "urn:uuid:a27bf008-7690-4d6d-8d17-99780b6b56ff"
        }
      }
    }
  ],
  "type": "document",
  "timestamp": "2024-11-19T18:40:29Z"
}
