{
  "resourceType": "Bundle",
  "id": "Instance-Bundle-6214da54-ae16-4dc8-a08a-ff2906d56833",
  "meta": {
    "profile": [
      "http://hl7.eu/fhir/laboratory/StructureDefinition/Bundle-eu-lab"
    ]
  },
  "identifier": {
    "assigner": {
      "display": "HL7 Europe"
    },
    "system": "urn:oid:2.16.840.1.113883.2.51.999",
    "value": "1b46e464-6db2-4347-a33f-95363b112647"
  },
  "entry": [
    {
      "fullUrl": "urn:uuid:f8299e80-c92a-4f5a-b985-347af0802667",
      "resource": {
        "resourceType": "Composition",
        "id": "f8299e80-c92a-4f5a-b985-347af0802667",
        "meta": {
          "profile": [
            "http://hl7.eu/fhir/laboratory/StructureDefinition/Composition-eu-lab"
          ]
        },
        "identifier": {
          "assigner": {
            "display": "HL7 Europe"
          },
          "system": "urn:oid:2.16.840.1.113883.2.51.999",
          "value": "a8291dfb-5e8e-4cf1-91a9-0da36a3354c9"
        },
        "author": [
          {
            "reference": "urn:uuid:587d7677-d442-47fb-b3d9-0136f332db50"
          }
        ],
        "category": [
          {
            "coding": [
              {
                "code": "26436-6",
                "system": "http://loinc.org",
                "display": "Laboratory studies (set)"
              }
            ]
          }
        ],
        "type": {
          "text": "Laboratory Report"
        },
        "section": [
          {
            "code": {
              "coding": [
                {
                  "code": "26436-6",
                  "system": "http://loinc.org",
                  "display": "Laboratory studies (set)"
                }
              ],
              "text": "Laboratory studies"
            },
            "section": [
              {
                "code": {
                  "coding": [
                    {
                      "code": "18723-7",
                      "system": "http://loinc.org",
                      "display": "Hematology studies (set)"
                    }
                  ],
                  "text": "Hematology"
                },
                "entry": [
                  {
                    "reference": "urn:uuid:0aac565b-2dd2-4be0-bc23-372c459d0414"
                  },
                  {
                    "reference": "urn:uuid:720158c0-cbca-47cd-98c8-6b1e42dae12c"
                  },
                  {
                    "reference": "urn:uuid:1e37bb94-06d3-4aec-afeb-9829691e490f"
                  },
                  {
                    "reference": "urn:uuid:5beb241e-cb99-4b26-b321-7d0fe0b2861f"
                  },
                  {
                    "reference": "urn:uuid:42d98d4b-ed3a-46d7-b711-5afd299cb46a"
                  },
                  {
                    "reference": "urn:uuid:bce5a495-045b-4ffc-afcf-55faee0ee414"
                  },
                  {
                    "reference": "urn:uuid:381ae684-1fda-4143-a1d2-9ec49305d35a"
                  },
                  {
                    "reference": "urn:uuid:763fc27b-bb7e-4224-ab80-7d5a834f1da7"
                  },
                  {
                    "reference": "urn:uuid:00b09ade-baa1-4b33-af7f-87d62a37bce9"
                  },
                  {
                    "reference": "urn:uuid:8e5fd062-f1b2-4418-9e05-ae3fe90815fa"
                  },
                  {
                    "reference": "urn:uuid:fc4e9f37-6e86-4d48-aeb3-4b4a9834b599"
                  },
                  {
                    "reference": "urn:uuid:5bc9a380-60a5-4559-9969-d628f575d935"
                  },
                  {
                    "reference": "urn:uuid:3e343d0c-c676-4c80-bac5-5845f53b7a35"
                  },
                  {
                    "reference": "urn:uuid:40c9be55-ef94-412a-88f4-5b898fb7703b"
                  },
                  {
                    "reference": "urn:uuid:441843a7-f0b5-47bd-a9c4-00499f43ed6f"
                  },
                  {
                    "reference": "urn:uuid:17151a25-7854-4dd0-bd6e-096f8ea479a4"
                  },
                  {
                    "reference": "urn:uuid:07d3a716-59bc-4de2-95fa-72d51367aeba"
                  },
                  {
                    "reference": "urn:uuid:dc19a67c-7e45-475e-a3de-89b8698bf3cd"
                  },
                  {
                    "reference": "urn:uuid:dba4d539-7a79-43e3-b140-aa79b566b1a6"
                  },
                  {
                    "reference": "urn:uuid:f1a3b8d5-8c59-4d43-802d-1df57a2fcae4"
                  },
                  {
                    "reference": "urn:uuid:b00c2daa-ff39-45ef-8c51-003d3bbbeb89"
                  },
                  {
                    "reference": "urn:uuid:f77850f4-4f1e-4c0a-9f83-115ef72931f8"
                  },
                  {
                    "reference": "urn:uuid:adaf3ea1-301c-4ac2-917d-335aab17baba"
                  },
                  {
                    "reference": "urn:uuid:929cea84-dbe5-4049-a376-ba3be4ae4311"
                  },
                  {
                    "reference": "urn:uuid:b08da06e-f65f-426a-925e-729d8005e9f1"
                  },
                  {
                    "reference": "urn:uuid:51a5bc47-8872-475f-81c5-b74a2419b381"
                  },
                  {
                    "reference": "urn:uuid:e386bfca-134d-4fe9-ab00-3c4c076d34d6"
                  },
                  {
                    "reference": "urn:uuid:e5eb6311-fefa-4641-9a39-db876feec0cd"
                  },
                  {
                    "reference": "urn:uuid:3a7b3bf2-9015-4f48-a0f6-226bbe69ffc3"
                  },
                  {
                    "reference": "urn:uuid:e6a6d188-4a98-4e8b-a101-67ca0817dbf5"
                  },
                  {
                    "reference": "urn:uuid:730ce422-b770-43e2-b831-27001e743a9a"
                  },
                  {
                    "reference": "urn:uuid:aed2f538-4c4c-4fc4-94ae-b3d647f9e6c8"
                  },
                  {
                    "reference": "urn:uuid:21909b0e-5088-49be-9afa-ef592ba84143"
                  },
                  {
                    "reference": "urn:uuid:1beb645c-8043-4a18-800f-a7e8c2e11569"
                  },
                  {
                    "reference": "urn:uuid:b82c4e32-a0c7-4895-84c2-50298c14373c"
                  },
                  {
                    "reference": "urn:uuid:7b2ebcb5-5836-4de6-a6be-3a55bae7f4d0"
                  },
                  {
                    "reference": "urn:uuid:a4ec47db-ee16-40de-ace4-85664fdb1703"
                  },
                  {
                    "reference": "urn:uuid:be6e0405-5b8c-4073-8805-3c9d2be11a1b"
                  }
                ],
                "text": {
                  "status": "generated",
                  "div": "<div xmlns=\"http://www.w3.org/1999/xhtml\"><h3 id=\"section-1\">Hematology</h3><table class=\"hl7__eu__lab__report\"><thead><tr><th>Test</th><th>18 Nov 2024</th><th>Reference Range</th><th>Unit</th></tr></thead><tbody><tr><td>Leukocytes [#/volume] in Blood by Automated count</td><td>3.8</td><td>3.4 - 10.6</td><td>10*3/uL</td></tr><tr><td>Erythrocytes [#/volume] in Blood by Automated count</td><td>5.0</td><td>4.5 - 5.2</td><td>10*6/uL</td></tr><tr><td>Hemoglobin [Mass/volume] in Blood</td><td><strong>11.5 L</strong></td><td>12 - 16</td><td>g/dL</td></tr><tr><td>Hematocrit [Volume Fraction] of Blood by Automated count</td><td>46.2</td><td>36 - 48</td><td>%</td></tr><tr><td>MCV [Entitic volume] by Automated count</td><td>89.1</td><td>82 - 98</td><td>fL</td></tr><tr><td>MCH [Entitic mass] by Automated count</td><td>30.3</td><td>27 - 34</td><td>pg</td></tr><tr><td>MCHC [Mass/volume] by Automated count</td><td>33.9</td><td>31 - 35</td><td>g/dL</td></tr><tr><td>Erythrocyte distribution width [Ratio] by Automated count</td><td>14.4</td><td>11.6 - 16.5</td><td>%</td></tr><tr><td>Platelets [#/volume] in Blood by Automated count</td><td><strong>134.8 L</strong></td><td>150 - 450</td><td>10*3/uL</td></tr><tr><td>Neutrophils/100 leukocytes in Blood by Automated count</td><td><strong>23.7 L</strong></td><td>40 - 70</td><td>%</td></tr><tr><td>Lymphocytes/100 leukocytes in Blood by Automated count</td><td>20.8</td><td>20 - 40</td><td>%</td></tr><tr><td>Monocytes/100 leukocytes in Blood by Automated count</td><td>9.1</td><td>2 - 11</td><td>%</td></tr><tr><td>Eosinophils/100 leukocytes in Blood by Automated count</td><td>5.0</td><td>0 - 7</td><td>%</td></tr><tr><td>Basophils/100 leukocytes in Blood by Automated count</td><td><strong>3.4 H</strong></td><td>0 - 1</td><td>%</td></tr><tr><td>Neutrophils [#/volume] in Blood by Automated count</td><td><strong>1.6 L</strong></td><td>2 - 7.7</td><td>10*3/uL</td></tr><tr><td>Lymphocytes [#/volume] in Blood by Automated count</td><td>1.2</td><td>0.7 - 3.4</td><td>10*3/uL</td></tr><tr><td>Monocytes [#/volume] in Blood by Automated count</td><td>0.7</td><td>0.1 - 0.9</td><td>10*3/uL</td></tr><tr><td>Eosinophils [#/volume] in Blood by Automated count</td><td>0.4</td><td>0 - 0.7</td><td>10*3/uL</td></tr><tr><td>Basophils [#/volume] in Blood by Automated count</td><td>0.2</td><td>0.1 - 0.3</td><td>10*3/uL</td></tr><tr><td>Leukocytes [#/volume] in Blood by Automated count</td><td>3.5</td><td>3.5 - 10.5</td><td>10*3/uL</td></tr><tr><td>Erythrocytes [#/volume] in Blood by Automated count</td><td>5.1</td><td>4.5 - 5.5</td><td>10*6/uL</td></tr><tr><td>Hemoglobin [Mass/volume] in Blood</td><td><strong>11.2 L</strong></td><td>12.1 - 15.5</td><td>g/dL</td></tr><tr><td>Hematocrit [Volume Fraction] of Blood by Automated count</td><td>45.7</td><td>35 - 52</td><td>%</td></tr><tr><td>MCV [Entitic volume] by Automated count</td><td>83.6</td><td>82 - 98</td><td>fL</td></tr><tr><td>MCH [Entitic mass] by Automated count</td><td>29.5</td><td>27 - 34</td><td>pg</td></tr><tr><td>MCHC [Mass/volume] by Automated count</td><td>33.5</td><td>31 - 35</td><td>g/dL</td></tr><tr><td>Erythrocyte distribution width [Ratio] by Automated count</td><td>15.2</td><td>11.5 - 16.5</td><td>%</td></tr><tr><td>Platelets [#/volume] in Blood by Automated count</td><td><strong>131.7 L</strong></td><td>150 - 400</td><td>10*3/uL</td></tr><tr><td>Neutrophils/100 leukocytes in Blood by Automated count</td><td>41.7</td><td>40 - 74.3</td><td>%</td></tr><tr><td>Lymphocytes/100 leukocytes in Blood by Automated count</td><td>21.5</td><td>18 - 48</td><td>%</td></tr><tr><td>Monocytes/100 leukocytes in Blood by Automated count</td><td>9.2</td><td>2 - 11</td><td>%</td></tr><tr><td>Eosinophils/100 leukocytes in Blood by Automated count</td><td>4.1</td><td>0 - 7</td><td>%</td></tr><tr><td>Basophils/100 leukocytes in Blood by Automated count</td><td>2.6</td><td>0.5 - 3</td><td>%</td></tr><tr><td>Neutrophils [#/volume] in Blood by Automated count</td><td>2.2</td><td>2 - 7.7</td><td>10*3/uL</td></tr><tr><td>Lymphocytes [#/volume] in Blood by Automated count</td><td>1.2</td><td>0.7 - 3.4</td><td>10*3/uL</td></tr><tr><td>Monocytes [#/volume] in Blood by Automated count</td><td><strong>1.1 H</strong></td><td>0.7 - 0.9</td><td>10*3/uL</td></tr><tr><td>Eosinophils [#/volume] in Blood by Automated count</td><td>0.4</td><td>0 - 0.7</td><td>10*3/uL</td></tr><tr><td>Basophils [#/volume] in Blood by Automated count</td><td>0.3</td><td>0 - 0.3</td><td>10*3/uL</td></tr></tbody></table></div>"
                },
                "title": "Hematology"
              },
              {
                "code": {
                  "coding": [
                    {
                      "code": "18719-5",
                      "system": "http://loinc.org",
                      "display": "Chemistry studies (set)"
                    }
                  ],
                  "text": "Chemistry"
                },
                "entry": [
                  {
                    "reference": "urn:uuid:69c37dc0-a9f7-4a2e-bf64-3dfb04f91c8c"
                  },
                  {
                    "reference": "urn:uuid:89b91a6c-b465-4843-ae1c-95197d7daacb"
                  },
                  {
                    "reference": "urn:uuid:f7f821cf-1df9-4b3e-a1f8-687ad0f67037"
                  },
                  {
                    "reference": "urn:uuid:9a8401f3-9277-4328-9be1-c55065081a2b"
                  },
                  {
                    "reference": "urn:uuid:ef640169-58f9-43a1-8249-4d08674b95e1"
                  },
                  {
                    "reference": "urn:uuid:aa42b0ba-380d-417c-8336-316a51e97dff"
                  },
                  {
                    "reference": "urn:uuid:46d2b2e8-e9a2-44c9-a410-5d5cd3c85688"
                  },
                  {
                    "reference": "urn:uuid:a2502e6c-faf7-4c24-8ce9-3c8d056599f7"
                  },
                  {
                    "reference": "urn:uuid:462b29f2-8dd2-48ff-8b54-143f0be551ec"
                  },
                  {
                    "reference": "urn:uuid:d88d416e-4002-478d-aea3-03cb45420433"
                  },
                  {
                    "reference": "urn:uuid:8c2e4d21-d345-43d0-ad9f-f63a95840f01"
                  },
                  {
                    "reference": "urn:uuid:2241422b-1bf5-473d-8ebc-57d00ea78776"
                  },
                  {
                    "reference": "urn:uuid:540ec794-d226-4192-933c-8d45d66535d7"
                  },
                  {
                    "reference": "urn:uuid:7a4f0757-a288-4730-af2b-29c61d27af9f"
                  },
                  {
                    "reference": "urn:uuid:c208506d-e61e-4406-b235-eea687892591"
                  },
                  {
                    "reference": "urn:uuid:432d7fcd-4b74-44dc-9d37-5f11726cbf95"
                  },
                  {
                    "reference": "urn:uuid:19e1b867-2885-49fc-9a97-60047b169cd2"
                  },
                  {
                    "reference": "urn:uuid:48877c99-e777-4a75-a374-a7c874e09e58"
                  },
                  {
                    "reference": "urn:uuid:6ec16495-b560-4f85-adfe-04bfc2e369eb"
                  },
                  {
                    "reference": "urn:uuid:fd6f6a38-01c6-4126-b6ea-53cacd44c9f2"
                  },
                  {
                    "reference": "urn:uuid:8f02044c-4209-4b13-b0ae-3d3d525fb975"
                  },
                  {
                    "reference": "urn:uuid:42d406fc-9825-4b35-a3b9-5ee480ecd81d"
                  },
                  {
                    "reference": "urn:uuid:9fccbed3-6681-4d27-a7bb-f1bc71272dfb"
                  },
                  {
                    "reference": "urn:uuid:9cefa0fe-8fa7-4ea8-ba1e-8746ac45cab5"
                  },
                  {
                    "reference": "urn:uuid:55edd702-3dc4-4b6a-8c44-12b5f896d790"
                  },
                  {
                    "reference": "urn:uuid:dbce2efa-4b48-4636-bcb0-a4ae6dec58dd"
                  },
                  {
                    "reference": "urn:uuid:c83756e9-5dd5-4c81-acda-0ff3c905763a"
                  },
                  {
                    "reference": "urn:uuid:fa869636-ee38-4b0e-9e6a-2fa483ae16e2"
                  },
                  {
                    "reference": "urn:uuid:f27f19aa-28c1-4af8-87f5-adb5a4f0f960"
                  },
                  {
                    "reference": "urn:uuid:decccbe5-277f-497c-a2d0-e2372a0e3996"
                  },
                  {
                    "reference": "urn:uuid:5c40df17-9e5b-4c02-981e-eaff7b83f133"
                  },
                  {
                    "reference": "urn:uuid:fc4335d6-63c4-4762-8597-0aaccc330806"
                  },
                  {
                    "reference": "urn:uuid:512057c7-1c3c-46b9-abcc-8d08d0a5b834"
                  },
                  {
                    "reference": "urn:uuid:1750ceed-4a7f-4847-923c-33d482816e1e"
                  },
                  {
                    "reference": "urn:uuid:d898baab-4d10-4e90-be26-03b01e3bd03d"
                  },
                  {
                    "reference": "urn:uuid:83769257-b050-46cf-b5b8-5dc1a9d9279d"
                  }
                ],
                "text": {
                  "status": "generated",
                  "div": "<div xmlns=\"http://www.w3.org/1999/xhtml\"><h3 id=\"section-2\">Chemistry</h3><table class=\"hl7__eu__lab__report\"><thead><tr><th>Test</th><th>18 Nov 2024</th><th>Reference Range</th><th>Unit</th></tr></thead><tbody><tr><td>Oxygen saturation in Arterial blood</td><td><strong>81.1 L</strong></td><td>95 - 100</td><td>%</td></tr><tr><td>Glucose [Mass/volume] in Serum or Plasma</td><td>89.6</td><td>70 - 99</td><td>mg/dL</td></tr><tr><td>Urea nitrogen [Mass/volume] in Serum or Plasma</td><td>7.2</td><td>7 - 20</td><td>mg/dL</td></tr><tr><td>Creatinine [Mass/volume] in Serum or Plasma</td><td><strong>2.6 H</strong></td><td>0.6 - 1.1</td><td>mg/dL</td></tr><tr><td>Calcium [Mass/volume] in Serum or Plasma</td><td>10.0</td><td>8.5 - 10.4</td><td>mg/dL</td></tr><tr><td>Sodium [Moles/volume] in Serum or Plasma</td><td>136.9</td><td>135 - 145</td><td>mmol/L</td></tr><tr><td>Potassium [Moles/volume] in Serum or Plasma</td><td>4.6</td><td>3.5 - 5.1</td><td>mmol/L</td></tr><tr><td>Chloride [Moles/volume] in Serum or Plasma</td><td>108.0</td><td>98 - 110</td><td>mmol/L</td></tr><tr><td>Carbon dioxide, total [Moles/volume] in Serum or Plasma</td><td><strong>20.5 L</strong></td><td>22 - 29</td><td>mmol/L</td></tr><tr><td>Protein [Mass/volume] in Serum or Plasma</td><td>6.0</td><td>6 - 8.3</td><td>g/dL</td></tr><tr><td>Albumin [Mass/volume] in Serum or Plasma</td><td>3.6</td><td>3.4 - 5</td><td>g/dL</td></tr><tr><td>Bilirubin.total [Mass/volume] in Serum or Plasma</td><td><strong>8.3 H</strong></td><td>0.3 - 1.2</td><td>mg/dL</td></tr><tr><td>Alkaline phosphatase [Enzymatic activity/volume] in Serum or Plasma</td><td>79.3</td><td>53 - 117</td><td>U/L</td></tr><tr><td>Alanine aminotransferase [Enzymatic activity/volume] in Serum or Plasma</td><td>23.9</td><td>7 - 55</td><td>U/L</td></tr><tr><td>Aspartate aminotransferase [Enzymatic activity/volume] in Serum or Plasma</td><td>27.1</td><td>10 - 33</td><td>U/L</td></tr><tr><td>Oxygen saturation in Arterial blood</td><td><strong>80.3 L</strong></td><td>95 - 100</td><td>%</td></tr><tr><td>Glucose [Mass/volume] in Serum or Plasma</td><td>89.6</td><td>70 - 99</td><td>mg/dL</td></tr><tr><td>Urea nitrogen [Mass/volume] in Serum or Plasma</td><td>7.2</td><td>7 - 20</td><td>mg/dL</td></tr><tr><td>Creatinine [Mass/volume] in Serum or Plasma</td><td><strong>2.8 H</strong></td><td>0.6 - 1.1</td><td>mg/dL</td></tr><tr><td>Calcium [Mass/volume] in Serum or Plasma</td><td>10.0</td><td>8.5 - 10.4</td><td>mg/dL</td></tr><tr><td>Sodium [Moles/volume] in Serum or Plasma</td><td>136.9</td><td>135 - 145</td><td>mmol/L</td></tr><tr><td>Potassium [Moles/volume] in Serum or Plasma</td><td>4.6</td><td>3.5 - 5.1</td><td>mmol/L</td></tr><tr><td>Chloride [Moles/volume] in Serum or Plasma</td><td>108.0</td><td>98 - 110</td><td>mmol/L</td></tr><tr><td>Carbon dioxide, total [Moles/volume] in Serum or Plasma</td><td><strong>20.5 L</strong></td><td>22 - 29</td><td>mmol/L</td></tr><tr><td>Protein [Mass/volume] in Serum or Plasma</td><td>7.2</td><td>6 - 8.3</td><td>g/dL</td></tr><tr><td>Albumin [Mass/volume] in Serum or Plasma</td><td>4.8</td><td>3.5 - 5.5</td><td>g/dL</td></tr><tr><td>Bilirubin.total [Mass/volume] in Serum or Plasma</td><td><strong>13.3 H</strong></td><td>0.3 - 1.2</td><td>mg/dL</td></tr><tr><td>Alkaline phosphatase [Enzymatic activity/volume] in Serum or Plasma</td><td>84.4</td><td>44 - 136</td><td>U/L</td></tr><tr><td>Alanine aminotransferase [Enzymatic activity/volume] in Serum or Plasma</td><td>17.8</td><td>7 - 55</td><td>U/L</td></tr><tr><td>Aspartate aminotransferase [Enzymatic activity/volume] in Serum or Plasma</td><td><strong>8.3 L</strong></td><td>10 - 40</td><td>U/L</td></tr><tr><td>Ferritin [Mass/volume] in Serum or Plasma</td><td><strong>637.6 H</strong></td><td>10 - 400</td><td>ug/L</td></tr><tr><td>Troponin I.cardiac [Mass/volume] in Serum or Plasma by High sensitivity method</td><td>4.1</td><td>0 - 19.9</td><td>pg/mL</td></tr><tr><td>Lactate dehydrogenase [Enzymatic activity/volume] in Serum or Plasma by Lactate to pyruvate reaction</td><td>293.1</td><td>124 - 333</td><td>U/L</td></tr><tr><td>Creatine kinase [Enzymatic activity/volume] in Serum or Plasma</td><td>41.9</td><td>30 - 130</td><td>U/L</td></tr><tr><td>C reactive protein [Mass/volume] in Serum or Plasma</td><td><strong>11.9 H</strong></td><td>0 - 10</td><td>mg/L</td></tr><tr><td>Procalcitonin [Mass/volume] in Serum or Plasma</td><td>0.1</td><td>0 - 0.5</td><td>ng/mL</td></tr></tbody></table></div>"
                },
                "title": "Chemistry"
              },
              {
                "code": {
                  "coding": [
                    {
                      "code": "18720-3",
                      "system": "http://loinc.org",
                      "display": "Coagulation studies (set)"
                    }
                  ],
                  "text": "Coagulation"
                },
                "entry": [
                  {
                    "reference": "urn:uuid:f177bcd8-0998-403a-9e47-d909f8164e06"
                  },
                  {
                    "reference": "urn:uuid:a37c68e3-f587-40f4-b117-b68dd722934c"
                  },
                  {
                    "reference": "urn:uuid:9685084c-754e-437b-ad4c-26c7618ef3e7"
                  }
                ],
                "text": {
                  "status": "generated",
                  "div": "<div xmlns=\"http://www.w3.org/1999/xhtml\"><h3 id=\"section-3\">Coagulation</h3><table class=\"hl7__eu__lab__report\"><thead><tr><th>Test</th><th>18 Nov 2024</th><th>Reference Range</th><th>Unit</th></tr></thead><tbody><tr><td>Fibrin D-dimer FEU [Mass/volume] in Platelet poor plasma</td><td>0.5</td><td>0 - 0.5</td><td>ug/mL</td></tr><tr><td>Prothrombin time (PT)</td><td><strong>10.3 L</strong></td><td>11 - 13.5</td><td>s</td></tr><tr><td>INR in Platelet poor plasma by Coagulation assay</td><td>1.2</td><td>0.9 - 3</td><td>{INR}</td></tr></tbody></table></div>"
                },
                "title": "Coagulation"
              }
            ],
            "title": "Laboratory Report"
          }
        ],
        "status": "final",
        "subject": {
          "reference": "urn:uuid:debb81b9-8de6-4b84-9a3f-e729c9f51c45"
        },
        "date": "2024-11-19T18:43:06Z",
        "title": "Laboratory Report",
        "confidentiality": "N"
      }
    },
    {
      "fullUrl": "urn:uuid:4fb329b9-a242-426a-9922-2625f6c4ac8a",
      "resource": {
        "resourceType": "DiagnosticReport",
        "id": "4fb329b9-a242-426a-9922-2625f6c4ac8a",
        "meta": {
          "profile": [
            "http://hl7.eu/fhir/laboratory/StructureDefinition/DiagnosticReport-eu-lab"
          ]
        },
        "identifier": [
          {
            "assigner": {
              "display": "HL7 Europe"
            },
            "system": "urn:oid:2.16.840.1.113883.2.51.999",
            "value": "01ccd36c-454e-4b3b-8b97-655ba5f895d2"
          }
        ],
        "extension": [
          {
            "url": "http://hl7.org/fhir/5.0/StructureDefinition/extension-DiagnosticReport.composition",
            "valueReference": {
              "reference": "urn:uuid:f8299e80-c92a-4f5a-b985-347af0802667"
            }
          }
        ],
        "category": [
          {
            "coding": [
              {
                "code": "18719-5",
                "system": "http://loinc.org",
                "display": "Chemistry studies (set)"
              }
            ]
          }
        ],
        "specimen": [
          {
            "reference": "urn:uuid:71558956-12f2-4b3b-99cd-7236bfe9e287"
          },
          {
            "reference": "urn:uuid:4d6800a3-19ff-4638-b3b7-352bdf385c42"
          },
          {
            "reference": "urn:uuid:6dd34182-7866-4bd8-8224-3ac90f4d0d5c"
          },
          {
            "reference": "urn:uuid:4eeabcfa-cf03-4e9f-be01-64dd9fa96d5b"
          },
          {
            "reference": "urn:uuid:e6f0dccd-3b4b-4e63-aac5-e2ae9de89622"
          }
        ],
        "result": [
          {
            "reference": "urn:uuid:69c37dc0-a9f7-4a2e-bf64-3dfb04f91c8c"
          },
          {
            "reference": "urn:uuid:0aac565b-2dd2-4be0-bc23-372c459d0414"
          },
          {
            "reference": "urn:uuid:720158c0-cbca-47cd-98c8-6b1e42dae12c"
          },
          {
            "reference": "urn:uuid:1e37bb94-06d3-4aec-afeb-9829691e490f"
          },
          {
            "reference": "urn:uuid:5beb241e-cb99-4b26-b321-7d0fe0b2861f"
          },
          {
            "reference": "urn:uuid:42d98d4b-ed3a-46d7-b711-5afd299cb46a"
          },
          {
            "reference": "urn:uuid:bce5a495-045b-4ffc-afcf-55faee0ee414"
          },
          {
            "reference": "urn:uuid:381ae684-1fda-4143-a1d2-9ec49305d35a"
          },
          {
            "reference": "urn:uuid:763fc27b-bb7e-4224-ab80-7d5a834f1da7"
          },
          {
            "reference": "urn:uuid:00b09ade-baa1-4b33-af7f-87d62a37bce9"
          },
          {
            "reference": "urn:uuid:8e5fd062-f1b2-4418-9e05-ae3fe90815fa"
          },
          {
            "reference": "urn:uuid:fc4e9f37-6e86-4d48-aeb3-4b4a9834b599"
          },
          {
            "reference": "urn:uuid:5bc9a380-60a5-4559-9969-d628f575d935"
          },
          {
            "reference": "urn:uuid:3e343d0c-c676-4c80-bac5-5845f53b7a35"
          },
          {
            "reference": "urn:uuid:40c9be55-ef94-412a-88f4-5b898fb7703b"
          },
          {
            "reference": "urn:uuid:441843a7-f0b5-47bd-a9c4-00499f43ed6f"
          },
          {
            "reference": "urn:uuid:17151a25-7854-4dd0-bd6e-096f8ea479a4"
          },
          {
            "reference": "urn:uuid:07d3a716-59bc-4de2-95fa-72d51367aeba"
          },
          {
            "reference": "urn:uuid:dc19a67c-7e45-475e-a3de-89b8698bf3cd"
          },
          {
            "reference": "urn:uuid:dba4d539-7a79-43e3-b140-aa79b566b1a6"
          },
          {
            "reference": "urn:uuid:89b91a6c-b465-4843-ae1c-95197d7daacb"
          },
          {
            "reference": "urn:uuid:f7f821cf-1df9-4b3e-a1f8-687ad0f67037"
          },
          {
            "reference": "urn:uuid:9a8401f3-9277-4328-9be1-c55065081a2b"
          },
          {
            "reference": "urn:uuid:ef640169-58f9-43a1-8249-4d08674b95e1"
          },
          {
            "reference": "urn:uuid:aa42b0ba-380d-417c-8336-316a51e97dff"
          },
          {
            "reference": "urn:uuid:46d2b2e8-e9a2-44c9-a410-5d5cd3c85688"
          },
          {
            "reference": "urn:uuid:a2502e6c-faf7-4c24-8ce9-3c8d056599f7"
          },
          {
            "reference": "urn:uuid:462b29f2-8dd2-48ff-8b54-143f0be551ec"
          },
          {
            "reference": "urn:uuid:d88d416e-4002-478d-aea3-03cb45420433"
          },
          {
            "reference": "urn:uuid:8c2e4d21-d345-43d0-ad9f-f63a95840f01"
          },
          {
            "reference": "urn:uuid:2241422b-1bf5-473d-8ebc-57d00ea78776"
          },
          {
            "reference": "urn:uuid:540ec794-d226-4192-933c-8d45d66535d7"
          },
          {
            "reference": "urn:uuid:7a4f0757-a288-4730-af2b-29c61d27af9f"
          },
          {
            "reference": "urn:uuid:c208506d-e61e-4406-b235-eea687892591"
          },
          {
            "reference": "urn:uuid:432d7fcd-4b74-44dc-9d37-5f11726cbf95"
          },
          {
            "reference": "urn:uuid:f1a3b8d5-8c59-4d43-802d-1df57a2fcae4"
          },
          {
            "reference": "urn:uuid:b00c2daa-ff39-45ef-8c51-003d3bbbeb89"
          },
          {
            "reference": "urn:uuid:f77850f4-4f1e-4c0a-9f83-115ef72931f8"
          },
          {
            "reference": "urn:uuid:adaf3ea1-301c-4ac2-917d-335aab17baba"
          },
          {
            "reference": "urn:uuid:929cea84-dbe5-4049-a376-ba3be4ae4311"
          },
          {
            "reference": "urn:uuid:b08da06e-f65f-426a-925e-729d8005e9f1"
          },
          {
            "reference": "urn:uuid:51a5bc47-8872-475f-81c5-b74a2419b381"
          },
          {
            "reference": "urn:uuid:e386bfca-134d-4fe9-ab00-3c4c076d34d6"
          },
          {
            "reference": "urn:uuid:e5eb6311-fefa-4641-9a39-db876feec0cd"
          },
          {
            "reference": "urn:uuid:3a7b3bf2-9015-4f48-a0f6-226bbe69ffc3"
          },
          {
            "reference": "urn:uuid:e6a6d188-4a98-4e8b-a101-67ca0817dbf5"
          },
          {
            "reference": "urn:uuid:730ce422-b770-43e2-b831-27001e743a9a"
          },
          {
            "reference": "urn:uuid:aed2f538-4c4c-4fc4-94ae-b3d647f9e6c8"
          },
          {
            "reference": "urn:uuid:21909b0e-5088-49be-9afa-ef592ba84143"
          },
          {
            "reference": "urn:uuid:1beb645c-8043-4a18-800f-a7e8c2e11569"
          },
          {
            "reference": "urn:uuid:b82c4e32-a0c7-4895-84c2-50298c14373c"
          },
          {
            "reference": "urn:uuid:7b2ebcb5-5836-4de6-a6be-3a55bae7f4d0"
          },
          {
            "reference": "urn:uuid:a4ec47db-ee16-40de-ace4-85664fdb1703"
          },
          {
            "reference": "urn:uuid:be6e0405-5b8c-4073-8805-3c9d2be11a1b"
          },
          {
            "reference": "urn:uuid:19e1b867-2885-49fc-9a97-60047b169cd2"
          },
          {
            "reference": "urn:uuid:48877c99-e777-4a75-a374-a7c874e09e58"
          },
          {
            "reference": "urn:uuid:6ec16495-b560-4f85-adfe-04bfc2e369eb"
          },
          {
            "reference": "urn:uuid:fd6f6a38-01c6-4126-b6ea-53cacd44c9f2"
          },
          {
            "reference": "urn:uuid:8f02044c-4209-4b13-b0ae-3d3d525fb975"
          },
          {
            "reference": "urn:uuid:42d406fc-9825-4b35-a3b9-5ee480ecd81d"
          },
          {
            "reference": "urn:uuid:9fccbed3-6681-4d27-a7bb-f1bc71272dfb"
          },
          {
            "reference": "urn:uuid:9cefa0fe-8fa7-4ea8-ba1e-8746ac45cab5"
          },
          {
            "reference": "urn:uuid:55edd702-3dc4-4b6a-8c44-12b5f896d790"
          },
          {
            "reference": "urn:uuid:dbce2efa-4b48-4636-bcb0-a4ae6dec58dd"
          },
          {
            "reference": "urn:uuid:c83756e9-5dd5-4c81-acda-0ff3c905763a"
          },
          {
            "reference": "urn:uuid:fa869636-ee38-4b0e-9e6a-2fa483ae16e2"
          },
          {
            "reference": "urn:uuid:f27f19aa-28c1-4af8-87f5-adb5a4f0f960"
          },
          {
            "reference": "urn:uuid:decccbe5-277f-497c-a2d0-e2372a0e3996"
          },
          {
            "reference": "urn:uuid:f177bcd8-0998-403a-9e47-d909f8164e06"
          },
          {
            "reference": "urn:uuid:5c40df17-9e5b-4c02-981e-eaff7b83f133"
          },
          {
            "reference": "urn:uuid:fc4335d6-63c4-4762-8597-0aaccc330806"
          },
          {
            "reference": "urn:uuid:512057c7-1c3c-46b9-abcc-8d08d0a5b834"
          },
          {
            "reference": "urn:uuid:1750ceed-4a7f-4847-923c-33d482816e1e"
          },
          {
            "reference": "urn:uuid:d898baab-4d10-4e90-be26-03b01e3bd03d"
          },
          {
            "reference": "urn:uuid:a37c68e3-f587-40f4-b117-b68dd722934c"
          },
          {
            "reference": "urn:uuid:9685084c-754e-437b-ad4c-26c7618ef3e7"
          },
          {
            "reference": "urn:uuid:83769257-b050-46cf-b5b8-5dc1a9d9279d"
          }
        ],
        "status": "registered",
        "code": {
          "coding": [
            {
              "code": "11502-2",
              "system": "http://loinc.org",
              "display": "Laboratory report"
            }
          ]
        },
        "subject": {
          "reference": "urn:uuid:debb81b9-8de6-4b84-9a3f-e729c9f51c45"
        }
      }
    },
    {
      "fullUrl": "urn:uuid:debb81b9-8de6-4b84-9a3f-e729c9f51c45",
      "resource": {
        "resourceType": "Patient",
        "id": "debb81b9-8de6-4b84-9a3f-e729c9f51c45",
        "meta": {
          "profile": [
            "http://hl7.eu/fhir/laboratory/StructureDefinition/Patient-eu-lab"
          ]
        },
        "identifier": [
          {
            "type": {
              "coding": [
                {
                  "code": "NI",
                  "system": "http://terminology.hl7.org/CodeSystem/v2-0203"
                }
              ]
            },
            "system": "http://ec.europa.eu/identifier/eci",
            "value": "9160-934285-1"
          },
          {
            "type": {
              "coding": [
                {
                  "code": "MR",
                  "system": "http://terminology.hl7.org/CodeSystem/v2-0203"
                }
              ]
            },
            "system": "http://local.setting.eu/identifier",
            "value": "0bb30c42-2a23-4575-8de5-ec3cc58e2ee7"
          }
        ],
        "name": [
          {
            "given": [
              "Didiane"
            ],
            "family": "de Launay",
            "text": "Didiane de Launay"
          }
        ],
        "address": [
          {
            "line": [
              "Plano Integrado 95"
            ],
            "use": "home",
            "type": "physical",
            "city": "Arcena",
            "postalCode": "2615-243",
            "country": "Portugal"
          }
        ],
        "telecom": [
          {
            "system": "phone",
            "value": "+351 21 217 476 3337"
          }
        ],
        "gender": "female",
        "birthDate": "1966-09-01"
      }
    },
    {
      "fullUrl": "urn:uuid:e9d3315c-6f31-4d13-8a6e-d7e0daa6d81e",
      "resource": {
        "resourceType": "ServiceRequest",
        "id": "e9d3315c-6f31-4d13-8a6e-d7e0daa6d81e",
        "meta": {
          "profile": [
            "http://hl7.eu/fhir/laboratory/StructureDefinition/ServiceRequest-eu-lab"
          ]
        },
        "identifier": [
          {
            "system": "http://example.org",
            "value": "1da8c935-71af-48e1-9fc0-28f57dbfcf10"
          }
        ],
        "specimen": [
          {
            "reference": "urn:uuid:71558956-12f2-4b3b-99cd-7236bfe9e287"
          },
          {
            "reference": "urn:uuid:4d6800a3-19ff-4638-b3b7-352bdf385c42"
          },
          {
            "reference": "urn:uuid:6dd34182-7866-4bd8-8224-3ac90f4d0d5c"
          },
          {
            "reference": "urn:uuid:4eeabcfa-cf03-4e9f-be01-64dd9fa96d5b"
          },
          {
            "reference": "urn:uuid:e6f0dccd-3b4b-4e63-aac5-e2ae9de89622"
          }
        ],
        "status": "active",
        "intent": "order",
        "code": {
          "coding": [
            {
              "code": "108252007",
              "system": "http://snomed.info/sct",
              "display": "Laboratory procedure"
            }
          ]
        },
        "subject": {
          "reference": "urn:uuid:debb81b9-8de6-4b84-9a3f-e729c9f51c45"
        },
        "requester": {
          "reference": "urn:uuid:c705101d-e2e9-4ab1-aaba-3250171423bc"
        }
      }
    },
    {
      "fullUrl": "urn:uuid:c705101d-e2e9-4ab1-aaba-3250171423bc",
      "resource": {
        "resourceType": "PractitionerRole",
        "id": "c705101d-e2e9-4ab1-aaba-3250171423bc",
        "meta": {
          "profile": [
            "http://hl7.eu/fhir/laboratory/StructureDefinition/PractitionerRole-eu-lab"
          ]
        },
        "organization": {
          "reference": "urn:uuid:196e3fda-d31a-4ab7-8f95-c65523ca7d41"
        }
      }
    },
    {
      "fullUrl": "urn:uuid:196e3fda-d31a-4ab7-8f95-c65523ca7d41",
      "resource": {
        "resourceType": "Organization",
        "id": "196e3fda-d31a-4ab7-8f95-c65523ca7d41",
        "meta": {
          "profile": [
            "http://hl7.org/fhir/uv/ips/StructureDefinition/Organization-uv-ips"
          ]
        },
        "identifier": [
          {
            "assigner": {
              "display": "HL7 Europe"
            },
            "system": "urn:oid:2.16.840.1.113883.2.51.999",
            "value": "12413aea-d5cd-437d-a712-656cf51fd1dc"
          }
        ],
        "address": [
          {
            "line": [
              "Rua da Mina nan"
            ],
            "city": "Óbidos",
            "postalCode": "2510-425",
            "country": "pt"
          }
        ],
        "name": "Centro de Saúde de Amoreira"
      }
    },
    {
      "fullUrl": "urn:uuid:587d7677-d442-47fb-b3d9-0136f332db50",
      "resource": {
        "resourceType": "PractitionerRole",
        "id": "587d7677-d442-47fb-b3d9-0136f332db50",
        "meta": {
          "profile": [
            "http://hl7.eu/fhir/laboratory/StructureDefinition/PractitionerRole-eu-lab"
          ]
        },
        "practitioner": {
          "reference": "urn:uuid:9651e03c-193d-41ae-a623-75a5d793e720"
        }
      }
    },
    {
      "fullUrl": "urn:uuid:9651e03c-193d-41ae-a623-75a5d793e720",
      "resource": {
        "resourceType": "Practitioner",
        "id": "9651e03c-193d-41ae-a623-75a5d793e720",
        "meta": {
          "profile": [
            "http://hl7.eu/fhir/laboratory/StructureDefinition/Practitioner-eu-lab"
          ]
        },
        "identifier": [
          {
            "assigner": {
              "display": "HL7 Europe"
            },
            "system": "urn:oid:2.16.840.1.113883.2.51.999",
            "value": "a7353a26-333d-487d-be5d-5fc597fa15fd"
          }
        ],
        "name": [
          {
            "prefix": [
              "dr"
            ],
            "given": [
              "Ex"
            ],
            "family": "Ample"
          }
        ],
        "address": [
          {
            "line": [
              "Boulevard du Jardin Botanique 32"
            ],
            "city": "Brussels",
            "postalCode": "1000"
          }
        ]
      }
    },
    {
      "fullUrl": "urn:uuid:71558956-12f2-4b3b-99cd-7236bfe9e287",
      "resource": {
        "resourceType": "Specimen",
        "id": "71558956-12f2-4b3b-99cd-7236bfe9e287",
        "meta": {
          "profile": [
            "http://hl7.eu/fhir/laboratory/StructureDefinition/Specimen-eu-lab"
          ]
        },
        "collection": {
          "collectedDateTime": "2024-11-18"
        },
        "status": "available",
        "type": {
          "coding": [
            {
              "code": "122552005",
              "system": "http://snomed.info/sct",
              "display": "Arterial blood specimen (specimen)"
            }
          ]
        }
      }
    },
    {
      "fullUrl": "urn:uuid:4d6800a3-19ff-4638-b3b7-352bdf385c42",
      "resource": {
        "resourceType": "Specimen",
        "id": "4d6800a3-19ff-4638-b3b7-352bdf385c42",
        "meta": {
          "profile": [
            "http://hl7.eu/fhir/laboratory/StructureDefinition/Specimen-eu-lab"
          ]
        },
        "collection": {
          "collectedDateTime": "2024-11-18"
        },
        "status": "available",
        "type": {
          "coding": [
            {
              "code": "258580003",
              "system": "http://snomed.info/sct",
              "display": "Whole blood specimen (specimen)"
            }
          ]
        }
      }
    },
    {
      "fullUrl": "urn:uuid:6dd34182-7866-4bd8-8224-3ac90f4d0d5c",
      "resource": {
        "resourceType": "Specimen",
        "id": "6dd34182-7866-4bd8-8224-3ac90f4d0d5c",
        "meta": {
          "profile": [
            "http://hl7.eu/fhir/laboratory/StructureDefinition/Specimen-eu-lab"
          ]
        },
        "collection": {
          "collectedDateTime": "2024-11-18"
        },
        "status": "available",
        "type": {
          "coding": [
            {
              "code": "258580003",
              "system": "http://snomed.info/sct",
              "display": "Whole blood specimen (specimen)"
            }
          ]
        }
      }
    },
    {
      "fullUrl": "urn:uuid:4eeabcfa-cf03-4e9f-be01-64dd9fa96d5b",
      "resource": {
        "resourceType": "Specimen",
        "id": "4eeabcfa-cf03-4e9f-be01-64dd9fa96d5b",
        "meta": {
          "profile": [
            "http://hl7.eu/fhir/laboratory/StructureDefinition/Specimen-eu-lab"
          ]
        },
        "collection": {
          "collectedDateTime": "2024-11-18"
        },
        "status": "available",
        "type": {
          "coding": [
            {
              "code": "122592007",
              "system": "http://snomed.info/sct",
              "display": "Acellular blood (serum or plasma) specimen (specimen)"
            }
          ]
        }
      }
    },
    {
      "fullUrl": "urn:uuid:e6f0dccd-3b4b-4e63-aac5-e2ae9de89622",
      "resource": {
        "resourceType": "Specimen",
        "id": "e6f0dccd-3b4b-4e63-aac5-e2ae9de89622",
        "meta": {
          "profile": [
            "http://hl7.eu/fhir/laboratory/StructureDefinition/Specimen-eu-lab"
          ]
        },
        "collection": {
          "collectedDateTime": "2024-11-18"
        },
        "status": "available",
        "type": {
          "coding": [
            {
              "code": "119362004",
              "system": "http://snomed.info/sct",
              "display": "Platelet poor plasma specimen (specimen) "
            }
          ]
        }
      }
    },
    {
      "fullUrl": "urn:uuid:69c37dc0-a9f7-4a2e-bf64-3dfb04f91c8c",
      "resource": {
        "resourceType": "Observation",
        "id": "69c37dc0-a9f7-4a2e-bf64-3dfb04f91c8c",
        "meta": {
          "profile": [
            "http://hl7.eu/fhir/laboratory/StructureDefinition/Observation-resultslab-eu-lab"
          ]
        },
        "performer": [
          {
            "display": "The Central European Lab"
          }
        ],
        "category": [
          {
            "coding": [
              {
                "code": "laboratory",
                "system": "http://terminology.hl7.org/CodeSystem/observation-category"
              }
            ]
          }
        ],
        "code": {
          "coding": [
            {
              "code": "2708-6",
              "system": "http://loinc.org",
              "display": "Oxygen saturation in Arterial blood"
            }
          ],
          "text": "Oxygen saturation in Arterial blood"
        },
        "valueQuantity": {
          "system": "http://unitsofmeasure.org",
          "value": 81.1,
          "unit": "%",
          "code": "%"
        },
        "referenceRange": [
          {
            "low": {
              "value": 95,
              "code": "%",
              "system": "http://unitsofmeasure.org"
            }
          },
          {
            "high": {
              "value": 100,
              "code": "%",
              "system": "http://unitsofmeasure.org"
            }
          }
        ],
        "interpretation": [
          {
            "coding": [
              {
                "code": "L",
                "system": "http://terminology.hl7.org/CodeSystem/v3-ObservationInterpretation",
                "display": "Low"
              }
            ]
          }
        ],
        "status": "final",
        "subject": {
          "reference": "urn:uuid:debb81b9-8de6-4b84-9a3f-e729c9f51c45"
        },
        "effectiveDateTime": "2024-11-18",
        "specimen": {
          "reference": "urn:uuid:71558956-12f2-4b3b-99cd-7236bfe9e287"
        }
      }
    },
    {
      "fullUrl": "urn:uuid:0aac565b-2dd2-4be0-bc23-372c459d0414",
      "resource": {
        "resourceType": "Observation",
        "id": "0aac565b-2dd2-4be0-bc23-372c459d0414",
        "meta": {
          "profile": [
            "http://hl7.eu/fhir/laboratory/StructureDefinition/Observation-resultslab-eu-lab"
          ]
        },
        "performer": [
          {
            "display": "The Central European Lab"
          }
        ],
        "category": [
          {
            "coding": [
              {
                "code": "laboratory",
                "system": "http://terminology.hl7.org/CodeSystem/observation-category"
              }
            ]
          }
        ],
        "code": {
          "coding": [
            {
              "code": "6690-2",
              "system": "http://loinc.org",
              "display": "Leukocytes [#/volume] in Blood by Automated count"
            }
          ],
          "text": "Leukocytes [#/volume] in Blood by Automated count"
        },
        "valueQuantity": {
          "system": "http://unitsofmeasure.org",
          "value": 3.8,
          "unit": "10*3/uL",
          "code": "10*3/uL"
        },
        "referenceRange": [
          {
            "low": {
              "value": 3.4,
              "code": "10*3/uL",
              "system": "http://unitsofmeasure.org"
            }
          },
          {
            "high": {
              "value": 10.6,
              "code": "10*3/uL",
              "system": "http://unitsofmeasure.org"
            }
          }
        ],
        "status": "final",
        "subject": {
          "reference": "urn:uuid:debb81b9-8de6-4b84-9a3f-e729c9f51c45"
        },
        "effectiveDateTime": "2024-11-18",
        "specimen": {
          "reference": "urn:uuid:4d6800a3-19ff-4638-b3b7-352bdf385c42"
        }
      }
    },
    {
      "fullUrl": "urn:uuid:720158c0-cbca-47cd-98c8-6b1e42dae12c",
      "resource": {
        "resourceType": "Observation",
        "id": "720158c0-cbca-47cd-98c8-6b1e42dae12c",
        "meta": {
          "profile": [
            "http://hl7.eu/fhir/laboratory/StructureDefinition/Observation-resultslab-eu-lab"
          ]
        },
        "performer": [
          {
            "display": "The Central European Lab"
          }
        ],
        "category": [
          {
            "coding": [
              {
                "code": "laboratory",
                "system": "http://terminology.hl7.org/CodeSystem/observation-category"
              }
            ]
          }
        ],
        "code": {
          "coding": [
            {
              "code": "789-8",
              "system": "http://loinc.org",
              "display": "Erythrocytes [#/volume] in Blood by Automated count"
            }
          ],
          "text": "Erythrocytes [#/volume] in Blood by Automated count"
        },
        "valueQuantity": {
          "system": "http://unitsofmeasure.org",
          "value": 5,
          "unit": "10*6/uL",
          "code": "10*6/uL"
        },
        "referenceRange": [
          {
            "low": {
              "value": 4.5,
              "code": "10*6/uL",
              "system": "http://unitsofmeasure.org"
            }
          },
          {
            "high": {
              "value": 5.2,
              "code": "10*6/uL",
              "system": "http://unitsofmeasure.org"
            }
          }
        ],
        "status": "final",
        "subject": {
          "reference": "urn:uuid:debb81b9-8de6-4b84-9a3f-e729c9f51c45"
        },
        "effectiveDateTime": "2024-11-18",
        "specimen": {
          "reference": "urn:uuid:4d6800a3-19ff-4638-b3b7-352bdf385c42"
        }
      }
    },
    {
      "fullUrl": "urn:uuid:1e37bb94-06d3-4aec-afeb-9829691e490f",
      "resource": {
        "resourceType": "Observation",
        "id": "1e37bb94-06d3-4aec-afeb-9829691e490f",
        "meta": {
          "profile": [
            "http://hl7.eu/fhir/laboratory/StructureDefinition/Observation-resultslab-eu-lab"
          ]
        },
        "performer": [
          {
            "display": "The Central European Lab"
          }
        ],
        "category": [
          {
            "coding": [
              {
                "code": "laboratory",
                "system": "http://terminology.hl7.org/CodeSystem/observation-category"
              }
            ]
          }
        ],
        "code": {
          "coding": [
            {
              "code": "718-7",
              "system": "http://loinc.org",
              "display": "Hemoglobin [Mass/volume] in Blood"
            }
          ],
          "text": "Hemoglobin [Mass/volume] in Blood"
        },
        "valueQuantity": {
          "system": "http://unitsofmeasure.org",
          "value": 11.5,
          "unit": "g/dL",
          "code": "g/dL"
        },
        "referenceRange": [
          {
            "low": {
              "value": 12,
              "code": "g/dL",
              "system": "http://unitsofmeasure.org"
            }
          },
          {
            "high": {
              "value": 16,
              "code": "g/dL",
              "system": "http://unitsofmeasure.org"
            }
          }
        ],
        "interpretation": [
          {
            "coding": [
              {
                "code": "L",
                "system": "http://terminology.hl7.org/CodeSystem/v3-ObservationInterpretation",
                "display": "Low"
              }
            ]
          }
        ],
        "status": "final",
        "subject": {
          "reference": "urn:uuid:debb81b9-8de6-4b84-9a3f-e729c9f51c45"
        },
        "effectiveDateTime": "2024-11-18",
        "specimen": {
          "reference": "urn:uuid:4d6800a3-19ff-4638-b3b7-352bdf385c42"
        }
      }
    },
    {
      "fullUrl": "urn:uuid:5beb241e-cb99-4b26-b321-7d0fe0b2861f",
      "resource": {
        "resourceType": "Observation",
        "id": "5beb241e-cb99-4b26-b321-7d0fe0b2861f",
        "meta": {
          "profile": [
            "http://hl7.eu/fhir/laboratory/StructureDefinition/Observation-resultslab-eu-lab"
          ]
        },
        "performer": [
          {
            "display": "The Central European Lab"
          }
        ],
        "category": [
          {
            "coding": [
              {
                "code": "laboratory",
                "system": "http://terminology.hl7.org/CodeSystem/observation-category"
              }
            ]
          }
        ],
        "code": {
          "coding": [
            {
              "code": "4544-3",
              "system": "http://loinc.org",
              "display": "Hematocrit [Volume Fraction] of Blood by Automated count"
            }
          ],
          "text": "Hematocrit [Volume Fraction] of Blood by Automated count"
        },
        "valueQuantity": {
          "system": "http://unitsofmeasure.org",
          "value": 46.2,
          "unit": "%",
          "code": "%"
        },
        "referenceRange": [
          {
            "low": {
              "value": 36,
              "code": "%",
              "system": "http://unitsofmeasure.org"
            }
          },
          {
            "high": {
              "value": 48,
              "code": "%",
              "system": "http://unitsofmeasure.org"
            }
          }
        ],
        "status": "final",
        "subject": {
          "reference": "urn:uuid:debb81b9-8de6-4b84-9a3f-e729c9f51c45"
        },
        "effectiveDateTime": "2024-11-18",
        "specimen": {
          "reference": "urn:uuid:4d6800a3-19ff-4638-b3b7-352bdf385c42"
        }
      }
    },
    {
      "fullUrl": "urn:uuid:42d98d4b-ed3a-46d7-b711-5afd299cb46a",
      "resource": {
        "resourceType": "Observation",
        "id": "42d98d4b-ed3a-46d7-b711-5afd299cb46a",
        "meta": {
          "profile": [
            "http://hl7.eu/fhir/laboratory/StructureDefinition/Observation-resultslab-eu-lab"
          ]
        },
        "performer": [
          {
            "display": "The Central European Lab"
          }
        ],
        "category": [
          {
            "coding": [
              {
                "code": "laboratory",
                "system": "http://terminology.hl7.org/CodeSystem/observation-category"
              }
            ]
          }
        ],
        "code": {
          "coding": [
            {
              "code": "787-2",
              "system": "http://loinc.org",
              "display": "MCV [Entitic volume] by Automated count"
            }
          ],
          "text": "MCV [Entitic volume] by Automated count"
        },
        "valueQuantity": {
          "system": "http://unitsofmeasure.org",
          "value": 89.1,
          "unit": "fL",
          "code": "fL"
        },
        "referenceRange": [
          {
            "low": {
              "value": 82,
              "code": "fL",
              "system": "http://unitsofmeasure.org"
            }
          },
          {
            "high": {
              "value": 98,
              "code": "fL",
              "system": "http://unitsofmeasure.org"
            }
          }
        ],
        "status": "final",
        "subject": {
          "reference": "urn:uuid:debb81b9-8de6-4b84-9a3f-e729c9f51c45"
        },
        "effectiveDateTime": "2024-11-18",
        "specimen": {
          "reference": "urn:uuid:6dd34182-7866-4bd8-8224-3ac90f4d0d5c"
        }
      }
    },
    {
      "fullUrl": "urn:uuid:bce5a495-045b-4ffc-afcf-55faee0ee414",
      "resource": {
        "resourceType": "Observation",
        "id": "bce5a495-045b-4ffc-afcf-55faee0ee414",
        "meta": {
          "profile": [
            "http://hl7.eu/fhir/laboratory/StructureDefinition/Observation-resultslab-eu-lab"
          ]
        },
        "performer": [
          {
            "display": "The Central European Lab"
          }
        ],
        "category": [
          {
            "coding": [
              {
                "code": "laboratory",
                "system": "http://terminology.hl7.org/CodeSystem/observation-category"
              }
            ]
          }
        ],
        "code": {
          "coding": [
            {
              "code": "785-6",
              "system": "http://loinc.org",
              "display": "MCH [Entitic mass] by Automated count"
            }
          ],
          "text": "MCH [Entitic mass] by Automated count"
        },
        "valueQuantity": {
          "system": "http://unitsofmeasure.org",
          "value": 30.3,
          "unit": "pg",
          "code": "pg"
        },
        "referenceRange": [
          {
            "low": {
              "value": 27,
              "code": "pg",
              "system": "http://unitsofmeasure.org"
            }
          },
          {
            "high": {
              "value": 34,
              "code": "pg",
              "system": "http://unitsofmeasure.org"
            }
          }
        ],
        "status": "final",
        "subject": {
          "reference": "urn:uuid:debb81b9-8de6-4b84-9a3f-e729c9f51c45"
        },
        "effectiveDateTime": "2024-11-18",
        "specimen": {
          "reference": "urn:uuid:6dd34182-7866-4bd8-8224-3ac90f4d0d5c"
        }
      }
    },
    {
      "fullUrl": "urn:uuid:381ae684-1fda-4143-a1d2-9ec49305d35a",
      "resource": {
        "resourceType": "Observation",
        "id": "381ae684-1fda-4143-a1d2-9ec49305d35a",
        "meta": {
          "profile": [
            "http://hl7.eu/fhir/laboratory/StructureDefinition/Observation-resultslab-eu-lab"
          ]
        },
        "performer": [
          {
            "display": "The Central European Lab"
          }
        ],
        "category": [
          {
            "coding": [
              {
                "code": "laboratory",
                "system": "http://terminology.hl7.org/CodeSystem/observation-category"
              }
            ]
          }
        ],
        "code": {
          "coding": [
            {
              "code": "786-4",
              "system": "http://loinc.org",
              "display": "MCHC [Mass/volume] by Automated count"
            }
          ],
          "text": "MCHC [Mass/volume] by Automated count"
        },
        "valueQuantity": {
          "system": "http://unitsofmeasure.org",
          "value": 33.9,
          "unit": "g/dL",
          "code": "g/dL"
        },
        "referenceRange": [
          {
            "low": {
              "value": 31,
              "code": "g/dL",
              "system": "http://unitsofmeasure.org"
            }
          },
          {
            "high": {
              "value": 35,
              "code": "g/dL",
              "system": "http://unitsofmeasure.org"
            }
          }
        ],
        "status": "final",
        "subject": {
          "reference": "urn:uuid:debb81b9-8de6-4b84-9a3f-e729c9f51c45"
        },
        "effectiveDateTime": "2024-11-18",
        "specimen": {
          "reference": "urn:uuid:6dd34182-7866-4bd8-8224-3ac90f4d0d5c"
        }
      }
    },
    {
      "fullUrl": "urn:uuid:763fc27b-bb7e-4224-ab80-7d5a834f1da7",
      "resource": {
        "resourceType": "Observation",
        "id": "763fc27b-bb7e-4224-ab80-7d5a834f1da7",
        "meta": {
          "profile": [
            "http://hl7.eu/fhir/laboratory/StructureDefinition/Observation-resultslab-eu-lab"
          ]
        },
        "performer": [
          {
            "display": "The Central European Lab"
          }
        ],
        "category": [
          {
            "coding": [
              {
                "code": "laboratory",
                "system": "http://terminology.hl7.org/CodeSystem/observation-category"
              }
            ]
          }
        ],
        "code": {
          "coding": [
            {
              "code": "788-0",
              "system": "http://loinc.org",
              "display": "Erythrocyte distribution width [Ratio] by Automated count"
            }
          ],
          "text": "Erythrocyte distribution width [Ratio] by Automated count"
        },
        "valueQuantity": {
          "system": "http://unitsofmeasure.org",
          "value": 14.4,
          "unit": "%",
          "code": "%"
        },
        "referenceRange": [
          {
            "low": {
              "value": 11.6,
              "code": "%",
              "system": "http://unitsofmeasure.org"
            }
          },
          {
            "high": {
              "value": 16.5,
              "code": "%",
              "system": "http://unitsofmeasure.org"
            }
          }
        ],
        "status": "final",
        "subject": {
          "reference": "urn:uuid:debb81b9-8de6-4b84-9a3f-e729c9f51c45"
        },
        "effectiveDateTime": "2024-11-18",
        "specimen": {
          "reference": "urn:uuid:6dd34182-7866-4bd8-8224-3ac90f4d0d5c"
        }
      }
    },
    {
      "fullUrl": "urn:uuid:00b09ade-baa1-4b33-af7f-87d62a37bce9",
      "resource": {
        "resourceType": "Observation",
        "id": "00b09ade-baa1-4b33-af7f-87d62a37bce9",
        "meta": {
          "profile": [
            "http://hl7.eu/fhir/laboratory/StructureDefinition/Observation-resultslab-eu-lab"
          ]
        },
        "performer": [
          {
            "display": "The Central European Lab"
          }
        ],
        "category": [
          {
            "coding": [
              {
                "code": "laboratory",
                "system": "http://terminology.hl7.org/CodeSystem/observation-category"
              }
            ]
          }
        ],
        "code": {
          "coding": [
            {
              "code": "777-3",
              "system": "http://loinc.org",
              "display": "Platelets [#/volume] in Blood by Automated count"
            }
          ],
          "text": "Platelets [#/volume] in Blood by Automated count"
        },
        "valueQuantity": {
          "system": "http://unitsofmeasure.org",
          "value": 134.8,
          "unit": "10*3/uL",
          "code": "10*3/uL"
        },
        "referenceRange": [
          {
            "low": {
              "value": 150,
              "code": "10*3/uL",
              "system": "http://unitsofmeasure.org"
            }
          },
          {
            "high": {
              "value": 450,
              "code": "10*3/uL",
              "system": "http://unitsofmeasure.org"
            }
          }
        ],
        "interpretation": [
          {
            "coding": [
              {
                "code": "L",
                "system": "http://terminology.hl7.org/CodeSystem/v3-ObservationInterpretation",
                "display": "Low"
              }
            ]
          }
        ],
        "status": "final",
        "subject": {
          "reference": "urn:uuid:debb81b9-8de6-4b84-9a3f-e729c9f51c45"
        },
        "effectiveDateTime": "2024-11-18",
        "specimen": {
          "reference": "urn:uuid:4d6800a3-19ff-4638-b3b7-352bdf385c42"
        }
      }
    },
    {
      "fullUrl": "urn:uuid:8e5fd062-f1b2-4418-9e05-ae3fe90815fa",
      "resource": {
        "resourceType": "Observation",
        "id": "8e5fd062-f1b2-4418-9e05-ae3fe90815fa",
        "meta": {
          "profile": [
            "http://hl7.eu/fhir/laboratory/StructureDefinition/Observation-resultslab-eu-lab"
          ]
        },
        "performer": [
          {
            "display": "The Central European Lab"
          }
        ],
        "category": [
          {
            "coding": [
              {
                "code": "laboratory",
                "system": "http://terminology.hl7.org/CodeSystem/observation-category"
              }
            ]
          }
        ],
        "code": {
          "coding": [
            {
              "code": "770-8",
              "system": "http://loinc.org",
              "display": "Neutrophils/100 leukocytes in Blood by Automated count"
            }
          ],
          "text": "Neutrophils/100 leukocytes in Blood by Automated count"
        },
        "valueQuantity": {
          "system": "http://unitsofmeasure.org",
          "value": 23.7,
          "unit": "%",
          "code": "%"
        },
        "referenceRange": [
          {
            "low": {
              "value": 40,
              "code": "%",
              "system": "http://unitsofmeasure.org"
            }
          },
          {
            "high": {
              "value": 70,
              "code": "%",
              "system": "http://unitsofmeasure.org"
            }
          }
        ],
        "interpretation": [
          {
            "coding": [
              {
                "code": "L",
                "system": "http://terminology.hl7.org/CodeSystem/v3-ObservationInterpretation",
                "display": "Low"
              }
            ]
          }
        ],
        "status": "final",
        "subject": {
          "reference": "urn:uuid:debb81b9-8de6-4b84-9a3f-e729c9f51c45"
        },
        "effectiveDateTime": "2024-11-18",
        "specimen": {
          "reference": "urn:uuid:4d6800a3-19ff-4638-b3b7-352bdf385c42"
        }
      }
    },
    {
      "fullUrl": "urn:uuid:fc4e9f37-6e86-4d48-aeb3-4b4a9834b599",
      "resource": {
        "resourceType": "Observation",
        "id": "fc4e9f37-6e86-4d48-aeb3-4b4a9834b599",
        "meta": {
          "profile": [
            "http://hl7.eu/fhir/laboratory/StructureDefinition/Observation-resultslab-eu-lab"
          ]
        },
        "performer": [
          {
            "display": "The Central European Lab"
          }
        ],
        "category": [
          {
            "coding": [
              {
                "code": "laboratory",
                "system": "http://terminology.hl7.org/CodeSystem/observation-category"
              }
            ]
          }
        ],
        "code": {
          "coding": [
            {
              "code": "736-9",
              "system": "http://loinc.org",
              "display": "Lymphocytes/100 leukocytes in Blood by Automated count"
            }
          ],
          "text": "Lymphocytes/100 leukocytes in Blood by Automated count"
        },
        "valueQuantity": {
          "system": "http://unitsofmeasure.org",
          "value": 20.8,
          "unit": "%",
          "code": "%"
        },
        "referenceRange": [
          {
            "low": {
              "value": 20,
              "code": "%",
              "system": "http://unitsofmeasure.org"
            }
          },
          {
            "high": {
              "value": 40,
              "code": "%",
              "system": "http://unitsofmeasure.org"
            }
          }
        ],
        "status": "final",
        "subject": {
          "reference": "urn:uuid:debb81b9-8de6-4b84-9a3f-e729c9f51c45"
        },
        "effectiveDateTime": "2024-11-18",
        "specimen": {
          "reference": "urn:uuid:4d6800a3-19ff-4638-b3b7-352bdf385c42"
        }
      }
    },
    {
      "fullUrl": "urn:uuid:5bc9a380-60a5-4559-9969-d628f575d935",
      "resource": {
        "resourceType": "Observation",
        "id": "5bc9a380-60a5-4559-9969-d628f575d935",
        "meta": {
          "profile": [
            "http://hl7.eu/fhir/laboratory/StructureDefinition/Observation-resultslab-eu-lab"
          ]
        },
        "performer": [
          {
            "display": "The Central European Lab"
          }
        ],
        "category": [
          {
            "coding": [
              {
                "code": "laboratory",
                "system": "http://terminology.hl7.org/CodeSystem/observation-category"
              }
            ]
          }
        ],
        "code": {
          "coding": [
            {
              "code": "5905-5",
              "system": "http://loinc.org",
              "display": "Monocytes/100 leukocytes in Blood by Automated count"
            }
          ],
          "text": "Monocytes/100 leukocytes in Blood by Automated count"
        },
        "valueQuantity": {
          "system": "http://unitsofmeasure.org",
          "value": 9.1,
          "unit": "%",
          "code": "%"
        },
        "referenceRange": [
          {
            "low": {
              "value": 2,
              "code": "%",
              "system": "http://unitsofmeasure.org"
            }
          },
          {
            "high": {
              "value": 11,
              "code": "%",
              "system": "http://unitsofmeasure.org"
            }
          }
        ],
        "status": "final",
        "subject": {
          "reference": "urn:uuid:debb81b9-8de6-4b84-9a3f-e729c9f51c45"
        },
        "effectiveDateTime": "2024-11-18",
        "specimen": {
          "reference": "urn:uuid:4d6800a3-19ff-4638-b3b7-352bdf385c42"
        }
      }
    },
    {
      "fullUrl": "urn:uuid:3e343d0c-c676-4c80-bac5-5845f53b7a35",
      "resource": {
        "resourceType": "Observation",
        "id": "3e343d0c-c676-4c80-bac5-5845f53b7a35",
        "meta": {
          "profile": [
            "http://hl7.eu/fhir/laboratory/StructureDefinition/Observation-resultslab-eu-lab"
          ]
        },
        "performer": [
          {
            "display": "The Central European Lab"
          }
        ],
        "category": [
          {
            "coding": [
              {
                "code": "laboratory",
                "system": "http://terminology.hl7.org/CodeSystem/observation-category"
              }
            ]
          }
        ],
        "code": {
          "coding": [
            {
              "code": "713-8",
              "system": "http://loinc.org",
              "display": "Eosinophils/100 leukocytes in Blood by Automated count"
            }
          ],
          "text": "Eosinophils/100 leukocytes in Blood by Automated count"
        },
        "valueQuantity": {
          "system": "http://unitsofmeasure.org",
          "value": 5,
          "unit": "%",
          "code": "%"
        },
        "referenceRange": [
          {
            "low": {
              "value": 0,
              "code": "%",
              "system": "http://unitsofmeasure.org"
            }
          },
          {
            "high": {
              "value": 7,
              "code": "%",
              "system": "http://unitsofmeasure.org"
            }
          }
        ],
        "status": "final",
        "subject": {
          "reference": "urn:uuid:debb81b9-8de6-4b84-9a3f-e729c9f51c45"
        },
        "effectiveDateTime": "2024-11-18",
        "specimen": {
          "reference": "urn:uuid:4d6800a3-19ff-4638-b3b7-352bdf385c42"
        }
      }
    },
    {
      "fullUrl": "urn:uuid:40c9be55-ef94-412a-88f4-5b898fb7703b",
      "resource": {
        "resourceType": "Observation",
        "id": "40c9be55-ef94-412a-88f4-5b898fb7703b",
        "meta": {
          "profile": [
            "http://hl7.eu/fhir/laboratory/StructureDefinition/Observation-resultslab-eu-lab"
          ]
        },
        "performer": [
          {
            "display": "The Central European Lab"
          }
        ],
        "category": [
          {
            "coding": [
              {
                "code": "laboratory",
                "system": "http://terminology.hl7.org/CodeSystem/observation-category"
              }
            ]
          }
        ],
        "code": {
          "coding": [
            {
              "code": "706-2",
              "system": "http://loinc.org",
              "display": "Basophils/100 leukocytes in Blood by Automated count"
            }
          ],
          "text": "Basophils/100 leukocytes in Blood by Automated count"
        },
        "valueQuantity": {
          "system": "http://unitsofmeasure.org",
          "value": 3.4,
          "unit": "%",
          "code": "%"
        },
        "referenceRange": [
          {
            "low": {
              "value": 0,
              "code": "%",
              "system": "http://unitsofmeasure.org"
            }
          },
          {
            "high": {
              "value": 1,
              "code": "%",
              "system": "http://unitsofmeasure.org"
            }
          }
        ],
        "interpretation": [
          {
            "coding": [
              {
                "code": "H",
                "system": "http://terminology.hl7.org/CodeSystem/v3-ObservationInterpretation",
                "display": "High"
              }
            ]
          }
        ],
        "status": "final",
        "subject": {
          "reference": "urn:uuid:debb81b9-8de6-4b84-9a3f-e729c9f51c45"
        },
        "effectiveDateTime": "2024-11-18",
        "specimen": {
          "reference": "urn:uuid:4d6800a3-19ff-4638-b3b7-352bdf385c42"
        }
      }
    },
    {
      "fullUrl": "urn:uuid:441843a7-f0b5-47bd-a9c4-00499f43ed6f",
      "resource": {
        "resourceType": "Observation",
        "id": "441843a7-f0b5-47bd-a9c4-00499f43ed6f",
        "meta": {
          "profile": [
            "http://hl7.eu/fhir/laboratory/StructureDefinition/Observation-resultslab-eu-lab"
          ]
        },
        "performer": [
          {
            "display": "The Central European Lab"
          }
        ],
        "category": [
          {
            "coding": [
              {
                "code": "laboratory",
                "system": "http://terminology.hl7.org/CodeSystem/observation-category"
              }
            ]
          }
        ],
        "code": {
          "coding": [
            {
              "code": "751-8",
              "system": "http://loinc.org",
              "display": "Neutrophils [#/volume] in Blood by Automated count"
            }
          ],
          "text": "Neutrophils [#/volume] in Blood by Automated count"
        },
        "valueQuantity": {
          "system": "http://unitsofmeasure.org",
          "value": 1.6,
          "unit": "10*3/uL",
          "code": "10*3/uL"
        },
        "referenceRange": [
          {
            "low": {
              "value": 2,
              "code": "10*3/uL",
              "system": "http://unitsofmeasure.org"
            }
          },
          {
            "high": {
              "value": 7.7,
              "code": "10*3/uL",
              "system": "http://unitsofmeasure.org"
            }
          }
        ],
        "interpretation": [
          {
            "coding": [
              {
                "code": "L",
                "system": "http://terminology.hl7.org/CodeSystem/v3-ObservationInterpretation",
                "display": "Low"
              }
            ]
          }
        ],
        "status": "final",
        "subject": {
          "reference": "urn:uuid:debb81b9-8de6-4b84-9a3f-e729c9f51c45"
        },
        "effectiveDateTime": "2024-11-18",
        "specimen": {
          "reference": "urn:uuid:4d6800a3-19ff-4638-b3b7-352bdf385c42"
        }
      }
    },
    {
      "fullUrl": "urn:uuid:17151a25-7854-4dd0-bd6e-096f8ea479a4",
      "resource": {
        "resourceType": "Observation",
        "id": "17151a25-7854-4dd0-bd6e-096f8ea479a4",
        "meta": {
          "profile": [
            "http://hl7.eu/fhir/laboratory/StructureDefinition/Observation-resultslab-eu-lab"
          ]
        },
        "performer": [
          {
            "display": "The Central European Lab"
          }
        ],
        "category": [
          {
            "coding": [
              {
                "code": "laboratory",
                "system": "http://terminology.hl7.org/CodeSystem/observation-category"
              }
            ]
          }
        ],
        "code": {
          "coding": [
            {
              "code": "731-0",
              "system": "http://loinc.org",
              "display": "Lymphocytes [#/volume] in Blood by Automated count"
            }
          ],
          "text": "Lymphocytes [#/volume] in Blood by Automated count"
        },
        "valueQuantity": {
          "system": "http://unitsofmeasure.org",
          "value": 1.2,
          "unit": "10*3/uL",
          "code": "10*3/uL"
        },
        "referenceRange": [
          {
            "low": {
              "value": 0.7,
              "code": "10*3/uL",
              "system": "http://unitsofmeasure.org"
            }
          },
          {
            "high": {
              "value": 3.4,
              "code": "10*3/uL",
              "system": "http://unitsofmeasure.org"
            }
          }
        ],
        "status": "final",
        "subject": {
          "reference": "urn:uuid:debb81b9-8de6-4b84-9a3f-e729c9f51c45"
        },
        "effectiveDateTime": "2024-11-18",
        "specimen": {
          "reference": "urn:uuid:4d6800a3-19ff-4638-b3b7-352bdf385c42"
        }
      }
    },
    {
      "fullUrl": "urn:uuid:07d3a716-59bc-4de2-95fa-72d51367aeba",
      "resource": {
        "resourceType": "Observation",
        "id": "07d3a716-59bc-4de2-95fa-72d51367aeba",
        "meta": {
          "profile": [
            "http://hl7.eu/fhir/laboratory/StructureDefinition/Observation-resultslab-eu-lab"
          ]
        },
        "performer": [
          {
            "display": "The Central European Lab"
          }
        ],
        "category": [
          {
            "coding": [
              {
                "code": "laboratory",
                "system": "http://terminology.hl7.org/CodeSystem/observation-category"
              }
            ]
          }
        ],
        "code": {
          "coding": [
            {
              "code": "742-7",
              "system": "http://loinc.org",
              "display": "Monocytes [#/volume] in Blood by Automated count"
            }
          ],
          "text": "Monocytes [#/volume] in Blood by Automated count"
        },
        "valueQuantity": {
          "system": "http://unitsofmeasure.org",
          "value": 0.7,
          "unit": "10*3/uL",
          "code": "10*3/uL"
        },
        "referenceRange": [
          {
            "low": {
              "value": 0.1,
              "code": "10*3/uL",
              "system": "http://unitsofmeasure.org"
            }
          },
          {
            "high": {
              "value": 0.9,
              "code": "10*3/uL",
              "system": "http://unitsofmeasure.org"
            }
          }
        ],
        "status": "final",
        "subject": {
          "reference": "urn:uuid:debb81b9-8de6-4b84-9a3f-e729c9f51c45"
        },
        "effectiveDateTime": "2024-11-18",
        "specimen": {
          "reference": "urn:uuid:4d6800a3-19ff-4638-b3b7-352bdf385c42"
        }
      }
    },
    {
      "fullUrl": "urn:uuid:dc19a67c-7e45-475e-a3de-89b8698bf3cd",
      "resource": {
        "resourceType": "Observation",
        "id": "dc19a67c-7e45-475e-a3de-89b8698bf3cd",
        "meta": {
          "profile": [
            "http://hl7.eu/fhir/laboratory/StructureDefinition/Observation-resultslab-eu-lab"
          ]
        },
        "performer": [
          {
            "display": "The Central European Lab"
          }
        ],
        "category": [
          {
            "coding": [
              {
                "code": "laboratory",
                "system": "http://terminology.hl7.org/CodeSystem/observation-category"
              }
            ]
          }
        ],
        "code": {
          "coding": [
            {
              "code": "711-2",
              "system": "http://loinc.org",
              "display": "Eosinophils [#/volume] in Blood by Automated count"
            }
          ],
          "text": "Eosinophils [#/volume] in Blood by Automated count"
        },
        "valueQuantity": {
          "system": "http://unitsofmeasure.org",
          "value": 0.4,
          "unit": "10*3/uL",
          "code": "10*3/uL"
        },
        "referenceRange": [
          {
            "low": {
              "value": 0,
              "code": "10*3/uL",
              "system": "http://unitsofmeasure.org"
            }
          },
          {
            "high": {
              "value": 0.7,
              "code": "10*3/uL",
              "system": "http://unitsofmeasure.org"
            }
          }
        ],
        "status": "final",
        "subject": {
          "reference": "urn:uuid:debb81b9-8de6-4b84-9a3f-e729c9f51c45"
        },
        "effectiveDateTime": "2024-11-18",
        "specimen": {
          "reference": "urn:uuid:4d6800a3-19ff-4638-b3b7-352bdf385c42"
        }
      }
    },
    {
      "fullUrl": "urn:uuid:dba4d539-7a79-43e3-b140-aa79b566b1a6",
      "resource": {
        "resourceType": "Observation",
        "id": "dba4d539-7a79-43e3-b140-aa79b566b1a6",
        "meta": {
          "profile": [
            "http://hl7.eu/fhir/laboratory/StructureDefinition/Observation-resultslab-eu-lab"
          ]
        },
        "performer": [
          {
            "display": "The Central European Lab"
          }
        ],
        "category": [
          {
            "coding": [
              {
                "code": "laboratory",
                "system": "http://terminology.hl7.org/CodeSystem/observation-category"
              }
            ]
          }
        ],
        "code": {
          "coding": [
            {
              "code": "704-7",
              "system": "http://loinc.org",
              "display": "Basophils [#/volume] in Blood by Automated count"
            }
          ],
          "text": "Basophils [#/volume] in Blood by Automated count"
        },
        "valueQuantity": {
          "system": "http://unitsofmeasure.org",
          "value": 0.2,
          "unit": "10*3/uL",
          "code": "10*3/uL"
        },
        "referenceRange": [
          {
            "low": {
              "value": 0.1,
              "code": "10*3/uL",
              "system": "http://unitsofmeasure.org"
            }
          },
          {
            "high": {
              "value": 0.3,
              "code": "10*3/uL",
              "system": "http://unitsofmeasure.org"
            }
          }
        ],
        "status": "final",
        "subject": {
          "reference": "urn:uuid:debb81b9-8de6-4b84-9a3f-e729c9f51c45"
        },
        "effectiveDateTime": "2024-11-18",
        "specimen": {
          "reference": "urn:uuid:4d6800a3-19ff-4638-b3b7-352bdf385c42"
        }
      }
    },
    {
      "fullUrl": "urn:uuid:89b91a6c-b465-4843-ae1c-95197d7daacb",
      "resource": {
        "resourceType": "Observation",
        "id": "89b91a6c-b465-4843-ae1c-95197d7daacb",
        "meta": {
          "profile": [
            "http://hl7.eu/fhir/laboratory/StructureDefinition/Observation-resultslab-eu-lab"
          ]
        },
        "performer": [
          {
            "display": "The Central European Lab"
          }
        ],
        "category": [
          {
            "coding": [
              {
                "code": "laboratory",
                "system": "http://terminology.hl7.org/CodeSystem/observation-category"
              }
            ]
          }
        ],
        "code": {
          "coding": [
            {
              "code": "2345-7",
              "system": "http://loinc.org",
              "display": "Glucose [Mass/volume] in Serum or Plasma"
            }
          ],
          "text": "Glucose [Mass/volume] in Serum or Plasma"
        },
        "valueQuantity": {
          "system": "http://unitsofmeasure.org",
          "value": 89.6,
          "unit": "mg/dL",
          "code": "mg/dL"
        },
        "referenceRange": [
          {
            "low": {
              "value": 70,
              "code": "mg/dL",
              "system": "http://unitsofmeasure.org"
            }
          },
          {
            "high": {
              "value": 99,
              "code": "mg/dL",
              "system": "http://unitsofmeasure.org"
            }
          }
        ],
        "status": "final",
        "subject": {
          "reference": "urn:uuid:debb81b9-8de6-4b84-9a3f-e729c9f51c45"
        },
        "effectiveDateTime": "2024-11-18",
        "specimen": {
          "reference": "urn:uuid:4eeabcfa-cf03-4e9f-be01-64dd9fa96d5b"
        }
      }
    },
    {
      "fullUrl": "urn:uuid:f7f821cf-1df9-4b3e-a1f8-687ad0f67037",
      "resource": {
        "resourceType": "Observation",
        "id": "f7f821cf-1df9-4b3e-a1f8-687ad0f67037",
        "meta": {
          "profile": [
            "http://hl7.eu/fhir/laboratory/StructureDefinition/Observation-resultslab-eu-lab"
          ]
        },
        "performer": [
          {
            "display": "The Central European Lab"
          }
        ],
        "category": [
          {
            "coding": [
              {
                "code": "laboratory",
                "system": "http://terminology.hl7.org/CodeSystem/observation-category"
              }
            ]
          }
        ],
        "code": {
          "coding": [
            {
              "code": "3094-0",
              "system": "http://loinc.org",
              "display": "Urea nitrogen [Mass/volume] in Serum or Plasma"
            }
          ],
          "text": "Urea nitrogen [Mass/volume] in Serum or Plasma"
        },
        "valueQuantity": {
          "system": "http://unitsofmeasure.org",
          "value": 7.2,
          "unit": "mg/dL",
          "code": "mg/dL"
        },
        "referenceRange": [
          {
            "low": {
              "value": 7,
              "code": "mg/dL",
              "system": "http://unitsofmeasure.org"
            }
          },
          {
            "high": {
              "value": 20,
              "code": "mg/dL",
              "system": "http://unitsofmeasure.org"
            }
          }
        ],
        "status": "final",
        "subject": {
          "reference": "urn:uuid:debb81b9-8de6-4b84-9a3f-e729c9f51c45"
        },
        "effectiveDateTime": "2024-11-18",
        "specimen": {
          "reference": "urn:uuid:4eeabcfa-cf03-4e9f-be01-64dd9fa96d5b"
        }
      }
    },
    {
      "fullUrl": "urn:uuid:9a8401f3-9277-4328-9be1-c55065081a2b",
      "resource": {
        "resourceType": "Observation",
        "id": "9a8401f3-9277-4328-9be1-c55065081a2b",
        "meta": {
          "profile": [
            "http://hl7.eu/fhir/laboratory/StructureDefinition/Observation-resultslab-eu-lab"
          ]
        },
        "performer": [
          {
            "display": "The Central European Lab"
          }
        ],
        "category": [
          {
            "coding": [
              {
                "code": "laboratory",
                "system": "http://terminology.hl7.org/CodeSystem/observation-category"
              }
            ]
          }
        ],
        "code": {
          "coding": [
            {
              "code": "2160-0",
              "system": "http://loinc.org",
              "display": "Creatinine [Mass/volume] in Serum or Plasma"
            }
          ],
          "text": "Creatinine [Mass/volume] in Serum or Plasma"
        },
        "valueQuantity": {
          "system": "http://unitsofmeasure.org",
          "value": 2.6,
          "unit": "mg/dL",
          "code": "mg/dL"
        },
        "referenceRange": [
          {
            "low": {
              "value": 0.6,
              "code": "mg/dL",
              "system": "http://unitsofmeasure.org"
            }
          },
          {
            "high": {
              "value": 1.1,
              "code": "mg/dL",
              "system": "http://unitsofmeasure.org"
            }
          }
        ],
        "interpretation": [
          {
            "coding": [
              {
                "code": "H",
                "system": "http://terminology.hl7.org/CodeSystem/v3-ObservationInterpretation",
                "display": "High"
              }
            ]
          }
        ],
        "status": "final",
        "subject": {
          "reference": "urn:uuid:debb81b9-8de6-4b84-9a3f-e729c9f51c45"
        },
        "effectiveDateTime": "2024-11-18",
        "specimen": {
          "reference": "urn:uuid:4eeabcfa-cf03-4e9f-be01-64dd9fa96d5b"
        }
      }
    },
    {
      "fullUrl": "urn:uuid:ef640169-58f9-43a1-8249-4d08674b95e1",
      "resource": {
        "resourceType": "Observation",
        "id": "ef640169-58f9-43a1-8249-4d08674b95e1",
        "meta": {
          "profile": [
            "http://hl7.eu/fhir/laboratory/StructureDefinition/Observation-resultslab-eu-lab"
          ]
        },
        "performer": [
          {
            "display": "The Central European Lab"
          }
        ],
        "category": [
          {
            "coding": [
              {
                "code": "laboratory",
                "system": "http://terminology.hl7.org/CodeSystem/observation-category"
              }
            ]
          }
        ],
        "code": {
          "coding": [
            {
              "code": "17861-6",
              "system": "http://loinc.org",
              "display": "Calcium [Mass/volume] in Serum or Plasma"
            }
          ],
          "text": "Calcium [Mass/volume] in Serum or Plasma"
        },
        "valueQuantity": {
          "system": "http://unitsofmeasure.org",
          "value": 10,
          "unit": "mg/dL",
          "code": "mg/dL"
        },
        "referenceRange": [
          {
            "low": {
              "value": 8.5,
              "code": "mg/dL",
              "system": "http://unitsofmeasure.org"
            }
          },
          {
            "high": {
              "value": 10.4,
              "code": "mg/dL",
              "system": "http://unitsofmeasure.org"
            }
          }
        ],
        "status": "final",
        "subject": {
          "reference": "urn:uuid:debb81b9-8de6-4b84-9a3f-e729c9f51c45"
        },
        "effectiveDateTime": "2024-11-18",
        "specimen": {
          "reference": "urn:uuid:4eeabcfa-cf03-4e9f-be01-64dd9fa96d5b"
        }
      }
    },
    {
      "fullUrl": "urn:uuid:aa42b0ba-380d-417c-8336-316a51e97dff",
      "resource": {
        "resourceType": "Observation",
        "id": "aa42b0ba-380d-417c-8336-316a51e97dff",
        "meta": {
          "profile": [
            "http://hl7.eu/fhir/laboratory/StructureDefinition/Observation-resultslab-eu-lab"
          ]
        },
        "performer": [
          {
            "display": "The Central European Lab"
          }
        ],
        "category": [
          {
            "coding": [
              {
                "code": "laboratory",
                "system": "http://terminology.hl7.org/CodeSystem/observation-category"
              }
            ]
          }
        ],
        "code": {
          "coding": [
            {
              "code": "2951-2",
              "system": "http://loinc.org",
              "display": "Sodium [Moles/volume] in Serum or Plasma"
            }
          ],
          "text": "Sodium [Moles/volume] in Serum or Plasma"
        },
        "valueQuantity": {
          "system": "http://unitsofmeasure.org",
          "value": 136.9,
          "unit": "mmol/L",
          "code": "mmol/L"
        },
        "referenceRange": [
          {
            "low": {
              "value": 135,
              "code": "mmol/L",
              "system": "http://unitsofmeasure.org"
            }
          },
          {
            "high": {
              "value": 145,
              "code": "mmol/L",
              "system": "http://unitsofmeasure.org"
            }
          }
        ],
        "status": "final",
        "subject": {
          "reference": "urn:uuid:debb81b9-8de6-4b84-9a3f-e729c9f51c45"
        },
        "effectiveDateTime": "2024-11-18",
        "specimen": {
          "reference": "urn:uuid:4eeabcfa-cf03-4e9f-be01-64dd9fa96d5b"
        }
      }
    },
    {
      "fullUrl": "urn:uuid:46d2b2e8-e9a2-44c9-a410-5d5cd3c85688",
      "resource": {
        "resourceType": "Observation",
        "id": "46d2b2e8-e9a2-44c9-a410-5d5cd3c85688",
        "meta": {
          "profile": [
            "http://hl7.eu/fhir/laboratory/StructureDefinition/Observation-resultslab-eu-lab"
          ]
        },
        "performer": [
          {
            "display": "The Central European Lab"
          }
        ],
        "category": [
          {
            "coding": [
              {
                "code": "laboratory",
                "system": "http://terminology.hl7.org/CodeSystem/observation-category"
              }
            ]
          }
        ],
        "code": {
          "coding": [
            {
              "code": "2823-3",
              "system": "http://loinc.org",
              "display": "Potassium [Moles/volume] in Serum or Plasma"
            }
          ],
          "text": "Potassium [Moles/volume] in Serum or Plasma"
        },
        "valueQuantity": {
          "system": "http://unitsofmeasure.org",
          "value": 4.6,
          "unit": "mmol/L",
          "code": "mmol/L"
        },
        "referenceRange": [
          {
            "low": {
              "value": 3.5,
              "code": "mmol/L",
              "system": "http://unitsofmeasure.org"
            }
          },
          {
            "high": {
              "value": 5.1,
              "code": "mmol/L",
              "system": "http://unitsofmeasure.org"
            }
          }
        ],
        "status": "final",
        "subject": {
          "reference": "urn:uuid:debb81b9-8de6-4b84-9a3f-e729c9f51c45"
        },
        "effectiveDateTime": "2024-11-18",
        "specimen": {
          "reference": "urn:uuid:4eeabcfa-cf03-4e9f-be01-64dd9fa96d5b"
        }
      }
    },
    {
      "fullUrl": "urn:uuid:a2502e6c-faf7-4c24-8ce9-3c8d056599f7",
      "resource": {
        "resourceType": "Observation",
        "id": "a2502e6c-faf7-4c24-8ce9-3c8d056599f7",
        "meta": {
          "profile": [
            "http://hl7.eu/fhir/laboratory/StructureDefinition/Observation-resultslab-eu-lab"
          ]
        },
        "performer": [
          {
            "display": "The Central European Lab"
          }
        ],
        "category": [
          {
            "coding": [
              {
                "code": "laboratory",
                "system": "http://terminology.hl7.org/CodeSystem/observation-category"
              }
            ]
          }
        ],
        "code": {
          "coding": [
            {
              "code": "2075-0",
              "system": "http://loinc.org",
              "display": "Chloride [Moles/volume] in Serum or Plasma"
            }
          ],
          "text": "Chloride [Moles/volume] in Serum or Plasma"
        },
        "valueQuantity": {
          "system": "http://unitsofmeasure.org",
          "value": 108,
          "unit": "mmol/L",
          "code": "mmol/L"
        },
        "referenceRange": [
          {
            "low": {
              "value": 98,
              "code": "mmol/L",
              "system": "http://unitsofmeasure.org"
            }
          },
          {
            "high": {
              "value": 110,
              "code": "mmol/L",
              "system": "http://unitsofmeasure.org"
            }
          }
        ],
        "status": "final",
        "subject": {
          "reference": "urn:uuid:debb81b9-8de6-4b84-9a3f-e729c9f51c45"
        },
        "effectiveDateTime": "2024-11-18",
        "specimen": {
          "reference": "urn:uuid:4eeabcfa-cf03-4e9f-be01-64dd9fa96d5b"
        }
      }
    },
    {
      "fullUrl": "urn:uuid:462b29f2-8dd2-48ff-8b54-143f0be551ec",
      "resource": {
        "resourceType": "Observation",
        "id": "462b29f2-8dd2-48ff-8b54-143f0be551ec",
        "meta": {
          "profile": [
            "http://hl7.eu/fhir/laboratory/StructureDefinition/Observation-resultslab-eu-lab"
          ]
        },
        "performer": [
          {
            "display": "The Central European Lab"
          }
        ],
        "category": [
          {
            "coding": [
              {
                "code": "laboratory",
                "system": "http://terminology.hl7.org/CodeSystem/observation-category"
              }
            ]
          }
        ],
        "code": {
          "coding": [
            {
              "code": "2028-9",
              "system": "http://loinc.org",
              "display": "Carbon dioxide, total [Moles/volume] in Serum or Plasma"
            }
          ],
          "text": "Carbon dioxide, total [Moles/volume] in Serum or Plasma"
        },
        "valueQuantity": {
          "system": "http://unitsofmeasure.org",
          "value": 20.5,
          "unit": "mmol/L",
          "code": "mmol/L"
        },
        "referenceRange": [
          {
            "low": {
              "value": 22,
              "code": "mmol/L",
              "system": "http://unitsofmeasure.org"
            }
          },
          {
            "high": {
              "value": 29,
              "code": "mmol/L",
              "system": "http://unitsofmeasure.org"
            }
          }
        ],
        "interpretation": [
          {
            "coding": [
              {
                "code": "L",
                "system": "http://terminology.hl7.org/CodeSystem/v3-ObservationInterpretation",
                "display": "Low"
              }
            ]
          }
        ],
        "status": "final",
        "subject": {
          "reference": "urn:uuid:debb81b9-8de6-4b84-9a3f-e729c9f51c45"
        },
        "effectiveDateTime": "2024-11-18",
        "specimen": {
          "reference": "urn:uuid:4eeabcfa-cf03-4e9f-be01-64dd9fa96d5b"
        }
      }
    },
    {
      "fullUrl": "urn:uuid:d88d416e-4002-478d-aea3-03cb45420433",
      "resource": {
        "resourceType": "Observation",
        "id": "d88d416e-4002-478d-aea3-03cb45420433",
        "meta": {
          "profile": [
            "http://hl7.eu/fhir/laboratory/StructureDefinition/Observation-resultslab-eu-lab"
          ]
        },
        "performer": [
          {
            "display": "The Central European Lab"
          }
        ],
        "category": [
          {
            "coding": [
              {
                "code": "laboratory",
                "system": "http://terminology.hl7.org/CodeSystem/observation-category"
              }
            ]
          }
        ],
        "code": {
          "coding": [
            {
              "code": "2885-2",
              "system": "http://loinc.org",
              "display": "Protein [Mass/volume] in Serum or Plasma"
            }
          ],
          "text": "Protein [Mass/volume] in Serum or Plasma"
        },
        "valueQuantity": {
          "system": "http://unitsofmeasure.org",
          "value": 6,
          "unit": "g/dL",
          "code": "g/dL"
        },
        "referenceRange": [
          {
            "low": {
              "value": 6,
              "code": "g/dL",
              "system": "http://unitsofmeasure.org"
            }
          },
          {
            "high": {
              "value": 8.3,
              "code": "g/dL",
              "system": "http://unitsofmeasure.org"
            }
          }
        ],
        "status": "final",
        "subject": {
          "reference": "urn:uuid:debb81b9-8de6-4b84-9a3f-e729c9f51c45"
        },
        "effectiveDateTime": "2024-11-18",
        "specimen": {
          "reference": "urn:uuid:4eeabcfa-cf03-4e9f-be01-64dd9fa96d5b"
        }
      }
    },
    {
      "fullUrl": "urn:uuid:8c2e4d21-d345-43d0-ad9f-f63a95840f01",
      "resource": {
        "resourceType": "Observation",
        "id": "8c2e4d21-d345-43d0-ad9f-f63a95840f01",
        "meta": {
          "profile": [
            "http://hl7.eu/fhir/laboratory/StructureDefinition/Observation-resultslab-eu-lab"
          ]
        },
        "performer": [
          {
            "display": "The Central European Lab"
          }
        ],
        "category": [
          {
            "coding": [
              {
                "code": "laboratory",
                "system": "http://terminology.hl7.org/CodeSystem/observation-category"
              }
            ]
          }
        ],
        "code": {
          "coding": [
            {
              "code": "1751-7",
              "system": "http://loinc.org",
              "display": "Albumin [Mass/volume] in Serum or Plasma"
            }
          ],
          "text": "Albumin [Mass/volume] in Serum or Plasma"
        },
        "valueQuantity": {
          "system": "http://unitsofmeasure.org",
          "value": 3.6,
          "unit": "g/dL",
          "code": "g/dL"
        },
        "referenceRange": [
          {
            "low": {
              "value": 3.4,
              "code": "g/dL",
              "system": "http://unitsofmeasure.org"
            }
          },
          {
            "high": {
              "value": 5,
              "code": "g/dL",
              "system": "http://unitsofmeasure.org"
            }
          }
        ],
        "status": "final",
        "subject": {
          "reference": "urn:uuid:debb81b9-8de6-4b84-9a3f-e729c9f51c45"
        },
        "effectiveDateTime": "2024-11-18",
        "specimen": {
          "reference": "urn:uuid:4eeabcfa-cf03-4e9f-be01-64dd9fa96d5b"
        }
      }
    },
    {
      "fullUrl": "urn:uuid:2241422b-1bf5-473d-8ebc-57d00ea78776",
      "resource": {
        "resourceType": "Observation",
        "id": "2241422b-1bf5-473d-8ebc-57d00ea78776",
        "meta": {
          "profile": [
            "http://hl7.eu/fhir/laboratory/StructureDefinition/Observation-resultslab-eu-lab"
          ]
        },
        "performer": [
          {
            "display": "The Central European Lab"
          }
        ],
        "category": [
          {
            "coding": [
              {
                "code": "laboratory",
                "system": "http://terminology.hl7.org/CodeSystem/observation-category"
              }
            ]
          }
        ],
        "code": {
          "coding": [
            {
              "code": "1975-2",
              "system": "http://loinc.org",
              "display": "Bilirubin.total [Mass/volume] in Serum or Plasma"
            }
          ],
          "text": "Bilirubin.total [Mass/volume] in Serum or Plasma"
        },
        "valueQuantity": {
          "system": "http://unitsofmeasure.org",
          "value": 8.3,
          "unit": "mg/dL",
          "code": "mg/dL"
        },
        "referenceRange": [
          {
            "low": {
              "value": 0.3,
              "code": "mg/dL",
              "system": "http://unitsofmeasure.org"
            }
          },
          {
            "high": {
              "value": 1.2,
              "code": "mg/dL",
              "system": "http://unitsofmeasure.org"
            }
          }
        ],
        "interpretation": [
          {
            "coding": [
              {
                "code": "H",
                "system": "http://terminology.hl7.org/CodeSystem/v3-ObservationInterpretation",
                "display": "High"
              }
            ]
          }
        ],
        "status": "final",
        "subject": {
          "reference": "urn:uuid:debb81b9-8de6-4b84-9a3f-e729c9f51c45"
        },
        "effectiveDateTime": "2024-11-18",
        "specimen": {
          "reference": "urn:uuid:4eeabcfa-cf03-4e9f-be01-64dd9fa96d5b"
        }
      }
    },
    {
      "fullUrl": "urn:uuid:540ec794-d226-4192-933c-8d45d66535d7",
      "resource": {
        "resourceType": "Observation",
        "id": "540ec794-d226-4192-933c-8d45d66535d7",
        "meta": {
          "profile": [
            "http://hl7.eu/fhir/laboratory/StructureDefinition/Observation-resultslab-eu-lab"
          ]
        },
        "performer": [
          {
            "display": "The Central European Lab"
          }
        ],
        "category": [
          {
            "coding": [
              {
                "code": "laboratory",
                "system": "http://terminology.hl7.org/CodeSystem/observation-category"
              }
            ]
          }
        ],
        "code": {
          "coding": [
            {
              "code": "6768-6",
              "system": "http://loinc.org",
              "display": "Alkaline phosphatase [Enzymatic activity/volume] in Serum or Plasma"
            }
          ],
          "text": "Alkaline phosphatase [Enzymatic activity/volume] in Serum or Plasma"
        },
        "valueQuantity": {
          "system": "http://unitsofmeasure.org",
          "value": 79.3,
          "unit": "U/L",
          "code": "U/L"
        },
        "referenceRange": [
          {
            "low": {
              "value": 53,
              "code": "U/L",
              "system": "http://unitsofmeasure.org"
            }
          },
          {
            "high": {
              "value": 117,
              "code": "U/L",
              "system": "http://unitsofmeasure.org"
            }
          }
        ],
        "status": "final",
        "subject": {
          "reference": "urn:uuid:debb81b9-8de6-4b84-9a3f-e729c9f51c45"
        },
        "effectiveDateTime": "2024-11-18",
        "specimen": {
          "reference": "urn:uuid:4eeabcfa-cf03-4e9f-be01-64dd9fa96d5b"
        }
      }
    },
    {
      "fullUrl": "urn:uuid:7a4f0757-a288-4730-af2b-29c61d27af9f",
      "resource": {
        "resourceType": "Observation",
        "id": "7a4f0757-a288-4730-af2b-29c61d27af9f",
        "meta": {
          "profile": [
            "http://hl7.eu/fhir/laboratory/StructureDefinition/Observation-resultslab-eu-lab"
          ]
        },
        "performer": [
          {
            "display": "The Central European Lab"
          }
        ],
        "category": [
          {
            "coding": [
              {
                "code": "laboratory",
                "system": "http://terminology.hl7.org/CodeSystem/observation-category"
              }
            ]
          }
        ],
        "code": {
          "coding": [
            {
              "code": "1742-6",
              "system": "http://loinc.org",
              "display": "Alanine aminotransferase [Enzymatic activity/volume] in Serum or Plasma"
            }
          ],
          "text": "Alanine aminotransferase [Enzymatic activity/volume] in Serum or Plasma"
        },
        "valueQuantity": {
          "system": "http://unitsofmeasure.org",
          "value": 23.9,
          "unit": "U/L",
          "code": "U/L"
        },
        "referenceRange": [
          {
            "low": {
              "value": 7,
              "code": "U/L",
              "system": "http://unitsofmeasure.org"
            }
          },
          {
            "high": {
              "value": 55,
              "code": "U/L",
              "system": "http://unitsofmeasure.org"
            }
          }
        ],
        "status": "final",
        "subject": {
          "reference": "urn:uuid:debb81b9-8de6-4b84-9a3f-e729c9f51c45"
        },
        "effectiveDateTime": "2024-11-18",
        "specimen": {
          "reference": "urn:uuid:4eeabcfa-cf03-4e9f-be01-64dd9fa96d5b"
        }
      }
    },
    {
      "fullUrl": "urn:uuid:c208506d-e61e-4406-b235-eea687892591",
      "resource": {
        "resourceType": "Observation",
        "id": "c208506d-e61e-4406-b235-eea687892591",
        "meta": {
          "profile": [
            "http://hl7.eu/fhir/laboratory/StructureDefinition/Observation-resultslab-eu-lab"
          ]
        },
        "performer": [
          {
            "display": "The Central European Lab"
          }
        ],
        "category": [
          {
            "coding": [
              {
                "code": "laboratory",
                "system": "http://terminology.hl7.org/CodeSystem/observation-category"
              }
            ]
          }
        ],
        "code": {
          "coding": [
            {
              "code": "1920-8",
              "system": "http://loinc.org",
              "display": "Aspartate aminotransferase [Enzymatic activity/volume] in Serum or Plasma"
            }
          ],
          "text": "Aspartate aminotransferase [Enzymatic activity/volume] in Serum or Plasma"
        },
        "valueQuantity": {
          "system": "http://unitsofmeasure.org",
          "value": 27.1,
          "unit": "U/L",
          "code": "U/L"
        },
        "referenceRange": [
          {
            "low": {
              "value": 10,
              "code": "U/L",
              "system": "http://unitsofmeasure.org"
            }
          },
          {
            "high": {
              "value": 33,
              "code": "U/L",
              "system": "http://unitsofmeasure.org"
            }
          }
        ],
        "status": "final",
        "subject": {
          "reference": "urn:uuid:debb81b9-8de6-4b84-9a3f-e729c9f51c45"
        },
        "effectiveDateTime": "2024-11-18",
        "specimen": {
          "reference": "urn:uuid:4eeabcfa-cf03-4e9f-be01-64dd9fa96d5b"
        }
      }
    },
    {
      "fullUrl": "urn:uuid:432d7fcd-4b74-44dc-9d37-5f11726cbf95",
      "resource": {
        "resourceType": "Observation",
        "id": "432d7fcd-4b74-44dc-9d37-5f11726cbf95",
        "meta": {
          "profile": [
            "http://hl7.eu/fhir/laboratory/StructureDefinition/Observation-resultslab-eu-lab"
          ]
        },
        "performer": [
          {
            "display": "The Central European Lab"
          }
        ],
        "category": [
          {
            "coding": [
              {
                "code": "laboratory",
                "system": "http://terminology.hl7.org/CodeSystem/observation-category"
              }
            ]
          }
        ],
        "code": {
          "coding": [
            {
              "code": "2708-6",
              "system": "http://loinc.org",
              "display": "Oxygen saturation in Arterial blood"
            }
          ],
          "text": "Oxygen saturation in Arterial blood"
        },
        "valueQuantity": {
          "system": "http://unitsofmeasure.org",
          "value": 80.3,
          "unit": "%",
          "code": "%"
        },
        "referenceRange": [
          {
            "low": {
              "value": 95,
              "code": "%",
              "system": "http://unitsofmeasure.org"
            }
          },
          {
            "high": {
              "value": 100,
              "code": "%",
              "system": "http://unitsofmeasure.org"
            }
          }
        ],
        "interpretation": [
          {
            "coding": [
              {
                "code": "L",
                "system": "http://terminology.hl7.org/CodeSystem/v3-ObservationInterpretation",
                "display": "Low"
              }
            ]
          }
        ],
        "status": "final",
        "subject": {
          "reference": "urn:uuid:debb81b9-8de6-4b84-9a3f-e729c9f51c45"
        },
        "effectiveDateTime": "2024-11-18",
        "specimen": {
          "reference": "urn:uuid:71558956-12f2-4b3b-99cd-7236bfe9e287"
        }
      }
    },
    {
      "fullUrl": "urn:uuid:f1a3b8d5-8c59-4d43-802d-1df57a2fcae4",
      "resource": {
        "resourceType": "Observation",
        "id": "f1a3b8d5-8c59-4d43-802d-1df57a2fcae4",
        "meta": {
          "profile": [
            "http://hl7.eu/fhir/laboratory/StructureDefinition/Observation-resultslab-eu-lab"
          ]
        },
        "performer": [
          {
            "display": "The Central European Lab"
          }
        ],
        "category": [
          {
            "coding": [
              {
                "code": "laboratory",
                "system": "http://terminology.hl7.org/CodeSystem/observation-category"
              }
            ]
          }
        ],
        "code": {
          "coding": [
            {
              "code": "6690-2",
              "system": "http://loinc.org",
              "display": "Leukocytes [#/volume] in Blood by Automated count"
            }
          ],
          "text": "Leukocytes [#/volume] in Blood by Automated count"
        },
        "valueQuantity": {
          "system": "http://unitsofmeasure.org",
          "value": 3.5,
          "unit": "10*3/uL",
          "code": "10*3/uL"
        },
        "referenceRange": [
          {
            "low": {
              "value": 3.5,
              "code": "10*3/uL",
              "system": "http://unitsofmeasure.org"
            }
          },
          {
            "high": {
              "value": 10.5,
              "code": "10*3/uL",
              "system": "http://unitsofmeasure.org"
            }
          }
        ],
        "status": "final",
        "subject": {
          "reference": "urn:uuid:debb81b9-8de6-4b84-9a3f-e729c9f51c45"
        },
        "effectiveDateTime": "2024-11-18",
        "specimen": {
          "reference": "urn:uuid:4d6800a3-19ff-4638-b3b7-352bdf385c42"
        }
      }
    },
    {
      "fullUrl": "urn:uuid:b00c2daa-ff39-45ef-8c51-003d3bbbeb89",
      "resource": {
        "resourceType": "Observation",
        "id": "b00c2daa-ff39-45ef-8c51-003d3bbbeb89",
        "meta": {
          "profile": [
            "http://hl7.eu/fhir/laboratory/StructureDefinition/Observation-resultslab-eu-lab"
          ]
        },
        "performer": [
          {
            "display": "The Central European Lab"
          }
        ],
        "category": [
          {
            "coding": [
              {
                "code": "laboratory",
                "system": "http://terminology.hl7.org/CodeSystem/observation-category"
              }
            ]
          }
        ],
        "code": {
          "coding": [
            {
              "code": "789-8",
              "system": "http://loinc.org",
              "display": "Erythrocytes [#/volume] in Blood by Automated count"
            }
          ],
          "text": "Erythrocytes [#/volume] in Blood by Automated count"
        },
        "valueQuantity": {
          "system": "http://unitsofmeasure.org",
          "value": 5.1,
          "unit": "10*6/uL",
          "code": "10*6/uL"
        },
        "referenceRange": [
          {
            "low": {
              "value": 4.5,
              "code": "10*6/uL",
              "system": "http://unitsofmeasure.org"
            }
          },
          {
            "high": {
              "value": 5.5,
              "code": "10*6/uL",
              "system": "http://unitsofmeasure.org"
            }
          }
        ],
        "status": "final",
        "subject": {
          "reference": "urn:uuid:debb81b9-8de6-4b84-9a3f-e729c9f51c45"
        },
        "effectiveDateTime": "2024-11-18",
        "specimen": {
          "reference": "urn:uuid:4d6800a3-19ff-4638-b3b7-352bdf385c42"
        }
      }
    },
    {
      "fullUrl": "urn:uuid:f77850f4-4f1e-4c0a-9f83-115ef72931f8",
      "resource": {
        "resourceType": "Observation",
        "id": "f77850f4-4f1e-4c0a-9f83-115ef72931f8",
        "meta": {
          "profile": [
            "http://hl7.eu/fhir/laboratory/StructureDefinition/Observation-resultslab-eu-lab"
          ]
        },
        "performer": [
          {
            "display": "The Central European Lab"
          }
        ],
        "category": [
          {
            "coding": [
              {
                "code": "laboratory",
                "system": "http://terminology.hl7.org/CodeSystem/observation-category"
              }
            ]
          }
        ],
        "code": {
          "coding": [
            {
              "code": "718-7",
              "system": "http://loinc.org",
              "display": "Hemoglobin [Mass/volume] in Blood"
            }
          ],
          "text": "Hemoglobin [Mass/volume] in Blood"
        },
        "valueQuantity": {
          "system": "http://unitsofmeasure.org",
          "value": 11.2,
          "unit": "g/dL",
          "code": "g/dL"
        },
        "referenceRange": [
          {
            "low": {
              "value": 12.1,
              "code": "g/dL",
              "system": "http://unitsofmeasure.org"
            }
          },
          {
            "high": {
              "value": 15.5,
              "code": "g/dL",
              "system": "http://unitsofmeasure.org"
            }
          }
        ],
        "interpretation": [
          {
            "coding": [
              {
                "code": "L",
                "system": "http://terminology.hl7.org/CodeSystem/v3-ObservationInterpretation",
                "display": "Low"
              }
            ]
          }
        ],
        "status": "final",
        "subject": {
          "reference": "urn:uuid:debb81b9-8de6-4b84-9a3f-e729c9f51c45"
        },
        "effectiveDateTime": "2024-11-18",
        "specimen": {
          "reference": "urn:uuid:4d6800a3-19ff-4638-b3b7-352bdf385c42"
        }
      }
    },
    {
      "fullUrl": "urn:uuid:adaf3ea1-301c-4ac2-917d-335aab17baba",
      "resource": {
        "resourceType": "Observation",
        "id": "adaf3ea1-301c-4ac2-917d-335aab17baba",
        "meta": {
          "profile": [
            "http://hl7.eu/fhir/laboratory/StructureDefinition/Observation-resultslab-eu-lab"
          ]
        },
        "performer": [
          {
            "display": "The Central European Lab"
          }
        ],
        "category": [
          {
            "coding": [
              {
                "code": "laboratory",
                "system": "http://terminology.hl7.org/CodeSystem/observation-category"
              }
            ]
          }
        ],
        "code": {
          "coding": [
            {
              "code": "4544-3",
              "system": "http://loinc.org",
              "display": "Hematocrit [Volume Fraction] of Blood by Automated count"
            }
          ],
          "text": "Hematocrit [Volume Fraction] of Blood by Automated count"
        },
        "valueQuantity": {
          "system": "http://unitsofmeasure.org",
          "value": 45.7,
          "unit": "%",
          "code": "%"
        },
        "referenceRange": [
          {
            "low": {
              "value": 35,
              "code": "%",
              "system": "http://unitsofmeasure.org"
            }
          },
          {
            "high": {
              "value": 52,
              "code": "%",
              "system": "http://unitsofmeasure.org"
            }
          }
        ],
        "status": "final",
        "subject": {
          "reference": "urn:uuid:debb81b9-8de6-4b84-9a3f-e729c9f51c45"
        },
        "effectiveDateTime": "2024-11-18",
        "specimen": {
          "reference": "urn:uuid:4d6800a3-19ff-4638-b3b7-352bdf385c42"
        }
      }
    },
    {
      "fullUrl": "urn:uuid:929cea84-dbe5-4049-a376-ba3be4ae4311",
      "resource": {
        "resourceType": "Observation",
        "id": "929cea84-dbe5-4049-a376-ba3be4ae4311",
        "meta": {
          "profile": [
            "http://hl7.eu/fhir/laboratory/StructureDefinition/Observation-resultslab-eu-lab"
          ]
        },
        "performer": [
          {
            "display": "The Central European Lab"
          }
        ],
        "category": [
          {
            "coding": [
              {
                "code": "laboratory",
                "system": "http://terminology.hl7.org/CodeSystem/observation-category"
              }
            ]
          }
        ],
        "code": {
          "coding": [
            {
              "code": "787-2",
              "system": "http://loinc.org",
              "display": "MCV [Entitic volume] by Automated count"
            }
          ],
          "text": "MCV [Entitic volume] by Automated count"
        },
        "valueQuantity": {
          "system": "http://unitsofmeasure.org",
          "value": 83.6,
          "unit": "fL",
          "code": "fL"
        },
        "referenceRange": [
          {
            "low": {
              "value": 82,
              "code": "fL",
              "system": "http://unitsofmeasure.org"
            }
          },
          {
            "high": {
              "value": 98,
              "code": "fL",
              "system": "http://unitsofmeasure.org"
            }
          }
        ],
        "status": "final",
        "subject": {
          "reference": "urn:uuid:debb81b9-8de6-4b84-9a3f-e729c9f51c45"
        },
        "effectiveDateTime": "2024-11-18",
        "specimen": {
          "reference": "urn:uuid:6dd34182-7866-4bd8-8224-3ac90f4d0d5c"
        }
      }
    },
    {
      "fullUrl": "urn:uuid:b08da06e-f65f-426a-925e-729d8005e9f1",
      "resource": {
        "resourceType": "Observation",
        "id": "b08da06e-f65f-426a-925e-729d8005e9f1",
        "meta": {
          "profile": [
            "http://hl7.eu/fhir/laboratory/StructureDefinition/Observation-resultslab-eu-lab"
          ]
        },
        "performer": [
          {
            "display": "The Central European Lab"
          }
        ],
        "category": [
          {
            "coding": [
              {
                "code": "laboratory",
                "system": "http://terminology.hl7.org/CodeSystem/observation-category"
              }
            ]
          }
        ],
        "code": {
          "coding": [
            {
              "code": "785-6",
              "system": "http://loinc.org",
              "display": "MCH [Entitic mass] by Automated count"
            }
          ],
          "text": "MCH [Entitic mass] by Automated count"
        },
        "valueQuantity": {
          "system": "http://unitsofmeasure.org",
          "value": 29.5,
          "unit": "pg",
          "code": "pg"
        },
        "referenceRange": [
          {
            "low": {
              "value": 27,
              "code": "pg",
              "system": "http://unitsofmeasure.org"
            }
          },
          {
            "high": {
              "value": 34,
              "code": "pg",
              "system": "http://unitsofmeasure.org"
            }
          }
        ],
        "status": "final",
        "subject": {
          "reference": "urn:uuid:debb81b9-8de6-4b84-9a3f-e729c9f51c45"
        },
        "effectiveDateTime": "2024-11-18",
        "specimen": {
          "reference": "urn:uuid:6dd34182-7866-4bd8-8224-3ac90f4d0d5c"
        }
      }
    },
    {
      "fullUrl": "urn:uuid:51a5bc47-8872-475f-81c5-b74a2419b381",
      "resource": {
        "resourceType": "Observation",
        "id": "51a5bc47-8872-475f-81c5-b74a2419b381",
        "meta": {
          "profile": [
            "http://hl7.eu/fhir/laboratory/StructureDefinition/Observation-resultslab-eu-lab"
          ]
        },
        "performer": [
          {
            "display": "The Central European Lab"
          }
        ],
        "category": [
          {
            "coding": [
              {
                "code": "laboratory",
                "system": "http://terminology.hl7.org/CodeSystem/observation-category"
              }
            ]
          }
        ],
        "code": {
          "coding": [
            {
              "code": "786-4",
              "system": "http://loinc.org",
              "display": "MCHC [Mass/volume] by Automated count"
            }
          ],
          "text": "MCHC [Mass/volume] by Automated count"
        },
        "valueQuantity": {
          "system": "http://unitsofmeasure.org",
          "value": 33.5,
          "unit": "g/dL",
          "code": "g/dL"
        },
        "referenceRange": [
          {
            "low": {
              "value": 31,
              "code": "g/dL",
              "system": "http://unitsofmeasure.org"
            }
          },
          {
            "high": {
              "value": 35,
              "code": "g/dL",
              "system": "http://unitsofmeasure.org"
            }
          }
        ],
        "status": "final",
        "subject": {
          "reference": "urn:uuid:debb81b9-8de6-4b84-9a3f-e729c9f51c45"
        },
        "effectiveDateTime": "2024-11-18",
        "specimen": {
          "reference": "urn:uuid:6dd34182-7866-4bd8-8224-3ac90f4d0d5c"
        }
      }
    },
    {
      "fullUrl": "urn:uuid:e386bfca-134d-4fe9-ab00-3c4c076d34d6",
      "resource": {
        "resourceType": "Observation",
        "id": "e386bfca-134d-4fe9-ab00-3c4c076d34d6",
        "meta": {
          "profile": [
            "http://hl7.eu/fhir/laboratory/StructureDefinition/Observation-resultslab-eu-lab"
          ]
        },
        "performer": [
          {
            "display": "The Central European Lab"
          }
        ],
        "category": [
          {
            "coding": [
              {
                "code": "laboratory",
                "system": "http://terminology.hl7.org/CodeSystem/observation-category"
              }
            ]
          }
        ],
        "code": {
          "coding": [
            {
              "code": "788-0",
              "system": "http://loinc.org",
              "display": "Erythrocyte distribution width [Ratio] by Automated count"
            }
          ],
          "text": "Erythrocyte distribution width [Ratio] by Automated count"
        },
        "valueQuantity": {
          "system": "http://unitsofmeasure.org",
          "value": 15.2,
          "unit": "%",
          "code": "%"
        },
        "referenceRange": [
          {
            "low": {
              "value": 11.5,
              "code": "%",
              "system": "http://unitsofmeasure.org"
            }
          },
          {
            "high": {
              "value": 16.5,
              "code": "%",
              "system": "http://unitsofmeasure.org"
            }
          }
        ],
        "status": "final",
        "subject": {
          "reference": "urn:uuid:debb81b9-8de6-4b84-9a3f-e729c9f51c45"
        },
        "effectiveDateTime": "2024-11-18",
        "specimen": {
          "reference": "urn:uuid:6dd34182-7866-4bd8-8224-3ac90f4d0d5c"
        }
      }
    },
    {
      "fullUrl": "urn:uuid:e5eb6311-fefa-4641-9a39-db876feec0cd",
      "resource": {
        "resourceType": "Observation",
        "id": "e5eb6311-fefa-4641-9a39-db876feec0cd",
        "meta": {
          "profile": [
            "http://hl7.eu/fhir/laboratory/StructureDefinition/Observation-resultslab-eu-lab"
          ]
        },
        "performer": [
          {
            "display": "The Central European Lab"
          }
        ],
        "category": [
          {
            "coding": [
              {
                "code": "laboratory",
                "system": "http://terminology.hl7.org/CodeSystem/observation-category"
              }
            ]
          }
        ],
        "code": {
          "coding": [
            {
              "code": "777-3",
              "system": "http://loinc.org",
              "display": "Platelets [#/volume] in Blood by Automated count"
            }
          ],
          "text": "Platelets [#/volume] in Blood by Automated count"
        },
        "valueQuantity": {
          "system": "http://unitsofmeasure.org",
          "value": 131.7,
          "unit": "10*3/uL",
          "code": "10*3/uL"
        },
        "referenceRange": [
          {
            "low": {
              "value": 150,
              "code": "10*3/uL",
              "system": "http://unitsofmeasure.org"
            }
          },
          {
            "high": {
              "value": 400,
              "code": "10*3/uL",
              "system": "http://unitsofmeasure.org"
            }
          }
        ],
        "interpretation": [
          {
            "coding": [
              {
                "code": "L",
                "system": "http://terminology.hl7.org/CodeSystem/v3-ObservationInterpretation",
                "display": "Low"
              }
            ]
          }
        ],
        "status": "final",
        "subject": {
          "reference": "urn:uuid:debb81b9-8de6-4b84-9a3f-e729c9f51c45"
        },
        "effectiveDateTime": "2024-11-18",
        "specimen": {
          "reference": "urn:uuid:4d6800a3-19ff-4638-b3b7-352bdf385c42"
        }
      }
    },
    {
      "fullUrl": "urn:uuid:3a7b3bf2-9015-4f48-a0f6-226bbe69ffc3",
      "resource": {
        "resourceType": "Observation",
        "id": "3a7b3bf2-9015-4f48-a0f6-226bbe69ffc3",
        "meta": {
          "profile": [
            "http://hl7.eu/fhir/laboratory/StructureDefinition/Observation-resultslab-eu-lab"
          ]
        },
        "performer": [
          {
            "display": "The Central European Lab"
          }
        ],
        "category": [
          {
            "coding": [
              {
                "code": "laboratory",
                "system": "http://terminology.hl7.org/CodeSystem/observation-category"
              }
            ]
          }
        ],
        "code": {
          "coding": [
            {
              "code": "770-8",
              "system": "http://loinc.org",
              "display": "Neutrophils/100 leukocytes in Blood by Automated count"
            }
          ],
          "text": "Neutrophils/100 leukocytes in Blood by Automated count"
        },
        "valueQuantity": {
          "system": "http://unitsofmeasure.org",
          "value": 41.7,
          "unit": "%",
          "code": "%"
        },
        "referenceRange": [
          {
            "low": {
              "value": 40,
              "code": "%",
              "system": "http://unitsofmeasure.org"
            }
          },
          {
            "high": {
              "value": 74.3,
              "code": "%",
              "system": "http://unitsofmeasure.org"
            }
          }
        ],
        "status": "final",
        "subject": {
          "reference": "urn:uuid:debb81b9-8de6-4b84-9a3f-e729c9f51c45"
        },
        "effectiveDateTime": "2024-11-18",
        "specimen": {
          "reference": "urn:uuid:4d6800a3-19ff-4638-b3b7-352bdf385c42"
        }
      }
    },
    {
      "fullUrl": "urn:uuid:e6a6d188-4a98-4e8b-a101-67ca0817dbf5",
      "resource": {
        "resourceType": "Observation",
        "id": "e6a6d188-4a98-4e8b-a101-67ca0817dbf5",
        "meta": {
          "profile": [
            "http://hl7.eu/fhir/laboratory/StructureDefinition/Observation-resultslab-eu-lab"
          ]
        },
        "performer": [
          {
            "display": "The Central European Lab"
          }
        ],
        "category": [
          {
            "coding": [
              {
                "code": "laboratory",
                "system": "http://terminology.hl7.org/CodeSystem/observation-category"
              }
            ]
          }
        ],
        "code": {
          "coding": [
            {
              "code": "736-9",
              "system": "http://loinc.org",
              "display": "Lymphocytes/100 leukocytes in Blood by Automated count"
            }
          ],
          "text": "Lymphocytes/100 leukocytes in Blood by Automated count"
        },
        "valueQuantity": {
          "system": "http://unitsofmeasure.org",
          "value": 21.5,
          "unit": "%",
          "code": "%"
        },
        "referenceRange": [
          {
            "low": {
              "value": 18,
              "code": "%",
              "system": "http://unitsofmeasure.org"
            }
          },
          {
            "high": {
              "value": 48,
              "code": "%",
              "system": "http://unitsofmeasure.org"
            }
          }
        ],
        "status": "final",
        "subject": {
          "reference": "urn:uuid:debb81b9-8de6-4b84-9a3f-e729c9f51c45"
        },
        "effectiveDateTime": "2024-11-18",
        "specimen": {
          "reference": "urn:uuid:4d6800a3-19ff-4638-b3b7-352bdf385c42"
        }
      }
    },
    {
      "fullUrl": "urn:uuid:730ce422-b770-43e2-b831-27001e743a9a",
      "resource": {
        "resourceType": "Observation",
        "id": "730ce422-b770-43e2-b831-27001e743a9a",
        "meta": {
          "profile": [
            "http://hl7.eu/fhir/laboratory/StructureDefinition/Observation-resultslab-eu-lab"
          ]
        },
        "performer": [
          {
            "display": "The Central European Lab"
          }
        ],
        "category": [
          {
            "coding": [
              {
                "code": "laboratory",
                "system": "http://terminology.hl7.org/CodeSystem/observation-category"
              }
            ]
          }
        ],
        "code": {
          "coding": [
            {
              "code": "5905-5",
              "system": "http://loinc.org",
              "display": "Monocytes/100 leukocytes in Blood by Automated count"
            }
          ],
          "text": "Monocytes/100 leukocytes in Blood by Automated count"
        },
        "valueQuantity": {
          "system": "http://unitsofmeasure.org",
          "value": 9.2,
          "unit": "%",
          "code": "%"
        },
        "referenceRange": [
          {
            "low": {
              "value": 2,
              "code": "%",
              "system": "http://unitsofmeasure.org"
            }
          },
          {
            "high": {
              "value": 11,
              "code": "%",
              "system": "http://unitsofmeasure.org"
            }
          }
        ],
        "status": "final",
        "subject": {
          "reference": "urn:uuid:debb81b9-8de6-4b84-9a3f-e729c9f51c45"
        },
        "effectiveDateTime": "2024-11-18",
        "specimen": {
          "reference": "urn:uuid:4d6800a3-19ff-4638-b3b7-352bdf385c42"
        }
      }
    },
    {
      "fullUrl": "urn:uuid:aed2f538-4c4c-4fc4-94ae-b3d647f9e6c8",
      "resource": {
        "resourceType": "Observation",
        "id": "aed2f538-4c4c-4fc4-94ae-b3d647f9e6c8",
        "meta": {
          "profile": [
            "http://hl7.eu/fhir/laboratory/StructureDefinition/Observation-resultslab-eu-lab"
          ]
        },
        "performer": [
          {
            "display": "The Central European Lab"
          }
        ],
        "category": [
          {
            "coding": [
              {
                "code": "laboratory",
                "system": "http://terminology.hl7.org/CodeSystem/observation-category"
              }
            ]
          }
        ],
        "code": {
          "coding": [
            {
              "code": "713-8",
              "system": "http://loinc.org",
              "display": "Eosinophils/100 leukocytes in Blood by Automated count"
            }
          ],
          "text": "Eosinophils/100 leukocytes in Blood by Automated count"
        },
        "valueQuantity": {
          "system": "http://unitsofmeasure.org",
          "value": 4.1,
          "unit": "%",
          "code": "%"
        },
        "referenceRange": [
          {
            "low": {
              "value": 0,
              "code": "%",
              "system": "http://unitsofmeasure.org"
            }
          },
          {
            "high": {
              "value": 7,
              "code": "%",
              "system": "http://unitsofmeasure.org"
            }
          }
        ],
        "status": "final",
        "subject": {
          "reference": "urn:uuid:debb81b9-8de6-4b84-9a3f-e729c9f51c45"
        },
        "effectiveDateTime": "2024-11-18",
        "specimen": {
          "reference": "urn:uuid:4d6800a3-19ff-4638-b3b7-352bdf385c42"
        }
      }
    },
    {
      "fullUrl": "urn:uuid:21909b0e-5088-49be-9afa-ef592ba84143",
      "resource": {
        "resourceType": "Observation",
        "id": "21909b0e-5088-49be-9afa-ef592ba84143",
        "meta": {
          "profile": [
            "http://hl7.eu/fhir/laboratory/StructureDefinition/Observation-resultslab-eu-lab"
          ]
        },
        "performer": [
          {
            "display": "The Central European Lab"
          }
        ],
        "category": [
          {
            "coding": [
              {
                "code": "laboratory",
                "system": "http://terminology.hl7.org/CodeSystem/observation-category"
              }
            ]
          }
        ],
        "code": {
          "coding": [
            {
              "code": "706-2",
              "system": "http://loinc.org",
              "display": "Basophils/100 leukocytes in Blood by Automated count"
            }
          ],
          "text": "Basophils/100 leukocytes in Blood by Automated count"
        },
        "valueQuantity": {
          "system": "http://unitsofmeasure.org",
          "value": 2.6,
          "unit": "%",
          "code": "%"
        },
        "referenceRange": [
          {
            "low": {
              "value": 0.5,
              "code": "%",
              "system": "http://unitsofmeasure.org"
            }
          },
          {
            "high": {
              "value": 3,
              "code": "%",
              "system": "http://unitsofmeasure.org"
            }
          }
        ],
        "status": "final",
        "subject": {
          "reference": "urn:uuid:debb81b9-8de6-4b84-9a3f-e729c9f51c45"
        },
        "effectiveDateTime": "2024-11-18",
        "specimen": {
          "reference": "urn:uuid:4d6800a3-19ff-4638-b3b7-352bdf385c42"
        }
      }
    },
    {
      "fullUrl": "urn:uuid:1beb645c-8043-4a18-800f-a7e8c2e11569",
      "resource": {
        "resourceType": "Observation",
        "id": "1beb645c-8043-4a18-800f-a7e8c2e11569",
        "meta": {
          "profile": [
            "http://hl7.eu/fhir/laboratory/StructureDefinition/Observation-resultslab-eu-lab"
          ]
        },
        "performer": [
          {
            "display": "The Central European Lab"
          }
        ],
        "category": [
          {
            "coding": [
              {
                "code": "laboratory",
                "system": "http://terminology.hl7.org/CodeSystem/observation-category"
              }
            ]
          }
        ],
        "code": {
          "coding": [
            {
              "code": "751-8",
              "system": "http://loinc.org",
              "display": "Neutrophils [#/volume] in Blood by Automated count"
            }
          ],
          "text": "Neutrophils [#/volume] in Blood by Automated count"
        },
        "valueQuantity": {
          "system": "http://unitsofmeasure.org",
          "value": 2.2,
          "unit": "10*3/uL",
          "code": "10*3/uL"
        },
        "referenceRange": [
          {
            "low": {
              "value": 2,
              "code": "10*3/uL",
              "system": "http://unitsofmeasure.org"
            }
          },
          {
            "high": {
              "value": 7.7,
              "code": "10*3/uL",
              "system": "http://unitsofmeasure.org"
            }
          }
        ],
        "status": "final",
        "subject": {
          "reference": "urn:uuid:debb81b9-8de6-4b84-9a3f-e729c9f51c45"
        },
        "effectiveDateTime": "2024-11-18",
        "specimen": {
          "reference": "urn:uuid:4d6800a3-19ff-4638-b3b7-352bdf385c42"
        }
      }
    },
    {
      "fullUrl": "urn:uuid:b82c4e32-a0c7-4895-84c2-50298c14373c",
      "resource": {
        "resourceType": "Observation",
        "id": "b82c4e32-a0c7-4895-84c2-50298c14373c",
        "meta": {
          "profile": [
            "http://hl7.eu/fhir/laboratory/StructureDefinition/Observation-resultslab-eu-lab"
          ]
        },
        "performer": [
          {
            "display": "The Central European Lab"
          }
        ],
        "category": [
          {
            "coding": [
              {
                "code": "laboratory",
                "system": "http://terminology.hl7.org/CodeSystem/observation-category"
              }
            ]
          }
        ],
        "code": {
          "coding": [
            {
              "code": "731-0",
              "system": "http://loinc.org",
              "display": "Lymphocytes [#/volume] in Blood by Automated count"
            }
          ],
          "text": "Lymphocytes [#/volume] in Blood by Automated count"
        },
        "valueQuantity": {
          "system": "http://unitsofmeasure.org",
          "value": 1.2,
          "unit": "10*3/uL",
          "code": "10*3/uL"
        },
        "referenceRange": [
          {
            "low": {
              "value": 0.7,
              "code": "10*3/uL",
              "system": "http://unitsofmeasure.org"
            }
          },
          {
            "high": {
              "value": 3.4,
              "code": "10*3/uL",
              "system": "http://unitsofmeasure.org"
            }
          }
        ],
        "status": "final",
        "subject": {
          "reference": "urn:uuid:debb81b9-8de6-4b84-9a3f-e729c9f51c45"
        },
        "effectiveDateTime": "2024-11-18",
        "specimen": {
          "reference": "urn:uuid:4d6800a3-19ff-4638-b3b7-352bdf385c42"
        }
      }
    },
    {
      "fullUrl": "urn:uuid:7b2ebcb5-5836-4de6-a6be-3a55bae7f4d0",
      "resource": {
        "resourceType": "Observation",
        "id": "7b2ebcb5-5836-4de6-a6be-3a55bae7f4d0",
        "meta": {
          "profile": [
            "http://hl7.eu/fhir/laboratory/StructureDefinition/Observation-resultslab-eu-lab"
          ]
        },
        "performer": [
          {
            "display": "The Central European Lab"
          }
        ],
        "category": [
          {
            "coding": [
              {
                "code": "laboratory",
                "system": "http://terminology.hl7.org/CodeSystem/observation-category"
              }
            ]
          }
        ],
        "code": {
          "coding": [
            {
              "code": "742-7",
              "system": "http://loinc.org",
              "display": "Monocytes [#/volume] in Blood by Automated count"
            }
          ],
          "text": "Monocytes [#/volume] in Blood by Automated count"
        },
        "valueQuantity": {
          "system": "http://unitsofmeasure.org",
          "value": 1.1,
          "unit": "10*3/uL",
          "code": "10*3/uL"
        },
        "referenceRange": [
          {
            "low": {
              "value": 0.7,
              "code": "10*3/uL",
              "system": "http://unitsofmeasure.org"
            }
          },
          {
            "high": {
              "value": 0.9,
              "code": "10*3/uL",
              "system": "http://unitsofmeasure.org"
            }
          }
        ],
        "interpretation": [
          {
            "coding": [
              {
                "code": "H",
                "system": "http://terminology.hl7.org/CodeSystem/v3-ObservationInterpretation",
                "display": "High"
              }
            ]
          }
        ],
        "status": "final",
        "subject": {
          "reference": "urn:uuid:debb81b9-8de6-4b84-9a3f-e729c9f51c45"
        },
        "effectiveDateTime": "2024-11-18",
        "specimen": {
          "reference": "urn:uuid:4d6800a3-19ff-4638-b3b7-352bdf385c42"
        }
      }
    },
    {
      "fullUrl": "urn:uuid:a4ec47db-ee16-40de-ace4-85664fdb1703",
      "resource": {
        "resourceType": "Observation",
        "id": "a4ec47db-ee16-40de-ace4-85664fdb1703",
        "meta": {
          "profile": [
            "http://hl7.eu/fhir/laboratory/StructureDefinition/Observation-resultslab-eu-lab"
          ]
        },
        "performer": [
          {
            "display": "The Central European Lab"
          }
        ],
        "category": [
          {
            "coding": [
              {
                "code": "laboratory",
                "system": "http://terminology.hl7.org/CodeSystem/observation-category"
              }
            ]
          }
        ],
        "code": {
          "coding": [
            {
              "code": "711-2",
              "system": "http://loinc.org",
              "display": "Eosinophils [#/volume] in Blood by Automated count"
            }
          ],
          "text": "Eosinophils [#/volume] in Blood by Automated count"
        },
        "valueQuantity": {
          "system": "http://unitsofmeasure.org",
          "value": 0.4,
          "unit": "10*3/uL",
          "code": "10*3/uL"
        },
        "referenceRange": [
          {
            "low": {
              "value": 0,
              "code": "10*3/uL",
              "system": "http://unitsofmeasure.org"
            }
          },
          {
            "high": {
              "value": 0.7,
              "code": "10*3/uL",
              "system": "http://unitsofmeasure.org"
            }
          }
        ],
        "status": "final",
        "subject": {
          "reference": "urn:uuid:debb81b9-8de6-4b84-9a3f-e729c9f51c45"
        },
        "effectiveDateTime": "2024-11-18",
        "specimen": {
          "reference": "urn:uuid:4d6800a3-19ff-4638-b3b7-352bdf385c42"
        }
      }
    },
    {
      "fullUrl": "urn:uuid:be6e0405-5b8c-4073-8805-3c9d2be11a1b",
      "resource": {
        "resourceType": "Observation",
        "id": "be6e0405-5b8c-4073-8805-3c9d2be11a1b",
        "meta": {
          "profile": [
            "http://hl7.eu/fhir/laboratory/StructureDefinition/Observation-resultslab-eu-lab"
          ]
        },
        "performer": [
          {
            "display": "The Central European Lab"
          }
        ],
        "category": [
          {
            "coding": [
              {
                "code": "laboratory",
                "system": "http://terminology.hl7.org/CodeSystem/observation-category"
              }
            ]
          }
        ],
        "code": {
          "coding": [
            {
              "code": "704-7",
              "system": "http://loinc.org",
              "display": "Basophils [#/volume] in Blood by Automated count"
            }
          ],
          "text": "Basophils [#/volume] in Blood by Automated count"
        },
        "valueQuantity": {
          "system": "http://unitsofmeasure.org",
          "value": 0.3,
          "unit": "10*3/uL",
          "code": "10*3/uL"
        },
        "referenceRange": [
          {
            "low": {
              "value": 0,
              "code": "10*3/uL",
              "system": "http://unitsofmeasure.org"
            }
          },
          {
            "high": {
              "value": 0.3,
              "code": "10*3/uL",
              "system": "http://unitsofmeasure.org"
            }
          }
        ],
        "status": "final",
        "subject": {
          "reference": "urn:uuid:debb81b9-8de6-4b84-9a3f-e729c9f51c45"
        },
        "effectiveDateTime": "2024-11-18",
        "specimen": {
          "reference": "urn:uuid:4d6800a3-19ff-4638-b3b7-352bdf385c42"
        }
      }
    },
    {
      "fullUrl": "urn:uuid:19e1b867-2885-49fc-9a97-60047b169cd2",
      "resource": {
        "resourceType": "Observation",
        "id": "19e1b867-2885-49fc-9a97-60047b169cd2",
        "meta": {
          "profile": [
            "http://hl7.eu/fhir/laboratory/StructureDefinition/Observation-resultslab-eu-lab"
          ]
        },
        "performer": [
          {
            "display": "The Central European Lab"
          }
        ],
        "category": [
          {
            "coding": [
              {
                "code": "laboratory",
                "system": "http://terminology.hl7.org/CodeSystem/observation-category"
              }
            ]
          }
        ],
        "code": {
          "coding": [
            {
              "code": "2345-7",
              "system": "http://loinc.org",
              "display": "Glucose [Mass/volume] in Serum or Plasma"
            }
          ],
          "text": "Glucose [Mass/volume] in Serum or Plasma"
        },
        "valueQuantity": {
          "system": "http://unitsofmeasure.org",
          "value": 89.6,
          "unit": "mg/dL",
          "code": "mg/dL"
        },
        "referenceRange": [
          {
            "low": {
              "value": 70,
              "code": "mg/dL",
              "system": "http://unitsofmeasure.org"
            }
          },
          {
            "high": {
              "value": 99,
              "code": "mg/dL",
              "system": "http://unitsofmeasure.org"
            }
          }
        ],
        "status": "final",
        "subject": {
          "reference": "urn:uuid:debb81b9-8de6-4b84-9a3f-e729c9f51c45"
        },
        "effectiveDateTime": "2024-11-18",
        "specimen": {
          "reference": "urn:uuid:4eeabcfa-cf03-4e9f-be01-64dd9fa96d5b"
        }
      }
    },
    {
      "fullUrl": "urn:uuid:48877c99-e777-4a75-a374-a7c874e09e58",
      "resource": {
        "resourceType": "Observation",
        "id": "48877c99-e777-4a75-a374-a7c874e09e58",
        "meta": {
          "profile": [
            "http://hl7.eu/fhir/laboratory/StructureDefinition/Observation-resultslab-eu-lab"
          ]
        },
        "performer": [
          {
            "display": "The Central European Lab"
          }
        ],
        "category": [
          {
            "coding": [
              {
                "code": "laboratory",
                "system": "http://terminology.hl7.org/CodeSystem/observation-category"
              }
            ]
          }
        ],
        "code": {
          "coding": [
            {
              "code": "3094-0",
              "system": "http://loinc.org",
              "display": "Urea nitrogen [Mass/volume] in Serum or Plasma"
            }
          ],
          "text": "Urea nitrogen [Mass/volume] in Serum or Plasma"
        },
        "valueQuantity": {
          "system": "http://unitsofmeasure.org",
          "value": 7.2,
          "unit": "mg/dL",
          "code": "mg/dL"
        },
        "referenceRange": [
          {
            "low": {
              "value": 7,
              "code": "mg/dL",
              "system": "http://unitsofmeasure.org"
            }
          },
          {
            "high": {
              "value": 20,
              "code": "mg/dL",
              "system": "http://unitsofmeasure.org"
            }
          }
        ],
        "status": "final",
        "subject": {
          "reference": "urn:uuid:debb81b9-8de6-4b84-9a3f-e729c9f51c45"
        },
        "effectiveDateTime": "2024-11-18",
        "specimen": {
          "reference": "urn:uuid:4eeabcfa-cf03-4e9f-be01-64dd9fa96d5b"
        }
      }
    },
    {
      "fullUrl": "urn:uuid:6ec16495-b560-4f85-adfe-04bfc2e369eb",
      "resource": {
        "resourceType": "Observation",
        "id": "6ec16495-b560-4f85-adfe-04bfc2e369eb",
        "meta": {
          "profile": [
            "http://hl7.eu/fhir/laboratory/StructureDefinition/Observation-resultslab-eu-lab"
          ]
        },
        "performer": [
          {
            "display": "The Central European Lab"
          }
        ],
        "category": [
          {
            "coding": [
              {
                "code": "laboratory",
                "system": "http://terminology.hl7.org/CodeSystem/observation-category"
              }
            ]
          }
        ],
        "code": {
          "coding": [
            {
              "code": "2160-0",
              "system": "http://loinc.org",
              "display": "Creatinine [Mass/volume] in Serum or Plasma"
            }
          ],
          "text": "Creatinine [Mass/volume] in Serum or Plasma"
        },
        "valueQuantity": {
          "system": "http://unitsofmeasure.org",
          "value": 2.8,
          "unit": "mg/dL",
          "code": "mg/dL"
        },
        "referenceRange": [
          {
            "low": {
              "value": 0.6,
              "code": "mg/dL",
              "system": "http://unitsofmeasure.org"
            }
          },
          {
            "high": {
              "value": 1.1,
              "code": "mg/dL",
              "system": "http://unitsofmeasure.org"
            }
          }
        ],
        "interpretation": [
          {
            "coding": [
              {
                "code": "H",
                "system": "http://terminology.hl7.org/CodeSystem/v3-ObservationInterpretation",
                "display": "High"
              }
            ]
          }
        ],
        "status": "final",
        "subject": {
          "reference": "urn:uuid:debb81b9-8de6-4b84-9a3f-e729c9f51c45"
        },
        "effectiveDateTime": "2024-11-18",
        "specimen": {
          "reference": "urn:uuid:4eeabcfa-cf03-4e9f-be01-64dd9fa96d5b"
        }
      }
    },
    {
      "fullUrl": "urn:uuid:fd6f6a38-01c6-4126-b6ea-53cacd44c9f2",
      "resource": {
        "resourceType": "Observation",
        "id": "fd6f6a38-01c6-4126-b6ea-53cacd44c9f2",
        "meta": {
          "profile": [
            "http://hl7.eu/fhir/laboratory/StructureDefinition/Observation-resultslab-eu-lab"
          ]
        },
        "performer": [
          {
            "display": "The Central European Lab"
          }
        ],
        "category": [
          {
            "coding": [
              {
                "code": "laboratory",
                "system": "http://terminology.hl7.org/CodeSystem/observation-category"
              }
            ]
          }
        ],
        "code": {
          "coding": [
            {
              "code": "17861-6",
              "system": "http://loinc.org",
              "display": "Calcium [Mass/volume] in Serum or Plasma"
            }
          ],
          "text": "Calcium [Mass/volume] in Serum or Plasma"
        },
        "valueQuantity": {
          "system": "http://unitsofmeasure.org",
          "value": 10,
          "unit": "mg/dL",
          "code": "mg/dL"
        },
        "referenceRange": [
          {
            "low": {
              "value": 8.5,
              "code": "mg/dL",
              "system": "http://unitsofmeasure.org"
            }
          },
          {
            "high": {
              "value": 10.4,
              "code": "mg/dL",
              "system": "http://unitsofmeasure.org"
            }
          }
        ],
        "status": "final",
        "subject": {
          "reference": "urn:uuid:debb81b9-8de6-4b84-9a3f-e729c9f51c45"
        },
        "effectiveDateTime": "2024-11-18",
        "specimen": {
          "reference": "urn:uuid:4eeabcfa-cf03-4e9f-be01-64dd9fa96d5b"
        }
      }
    },
    {
      "fullUrl": "urn:uuid:8f02044c-4209-4b13-b0ae-3d3d525fb975",
      "resource": {
        "resourceType": "Observation",
        "id": "8f02044c-4209-4b13-b0ae-3d3d525fb975",
        "meta": {
          "profile": [
            "http://hl7.eu/fhir/laboratory/StructureDefinition/Observation-resultslab-eu-lab"
          ]
        },
        "performer": [
          {
            "display": "The Central European Lab"
          }
        ],
        "category": [
          {
            "coding": [
              {
                "code": "laboratory",
                "system": "http://terminology.hl7.org/CodeSystem/observation-category"
              }
            ]
          }
        ],
        "code": {
          "coding": [
            {
              "code": "2951-2",
              "system": "http://loinc.org",
              "display": "Sodium [Moles/volume] in Serum or Plasma"
            }
          ],
          "text": "Sodium [Moles/volume] in Serum or Plasma"
        },
        "valueQuantity": {
          "system": "http://unitsofmeasure.org",
          "value": 136.9,
          "unit": "mmol/L",
          "code": "mmol/L"
        },
        "referenceRange": [
          {
            "low": {
              "value": 135,
              "code": "mmol/L",
              "system": "http://unitsofmeasure.org"
            }
          },
          {
            "high": {
              "value": 145,
              "code": "mmol/L",
              "system": "http://unitsofmeasure.org"
            }
          }
        ],
        "status": "final",
        "subject": {
          "reference": "urn:uuid:debb81b9-8de6-4b84-9a3f-e729c9f51c45"
        },
        "effectiveDateTime": "2024-11-18",
        "specimen": {
          "reference": "urn:uuid:4eeabcfa-cf03-4e9f-be01-64dd9fa96d5b"
        }
      }
    },
    {
      "fullUrl": "urn:uuid:42d406fc-9825-4b35-a3b9-5ee480ecd81d",
      "resource": {
        "resourceType": "Observation",
        "id": "42d406fc-9825-4b35-a3b9-5ee480ecd81d",
        "meta": {
          "profile": [
            "http://hl7.eu/fhir/laboratory/StructureDefinition/Observation-resultslab-eu-lab"
          ]
        },
        "performer": [
          {
            "display": "The Central European Lab"
          }
        ],
        "category": [
          {
            "coding": [
              {
                "code": "laboratory",
                "system": "http://terminology.hl7.org/CodeSystem/observation-category"
              }
            ]
          }
        ],
        "code": {
          "coding": [
            {
              "code": "2823-3",
              "system": "http://loinc.org",
              "display": "Potassium [Moles/volume] in Serum or Plasma"
            }
          ],
          "text": "Potassium [Moles/volume] in Serum or Plasma"
        },
        "valueQuantity": {
          "system": "http://unitsofmeasure.org",
          "value": 4.6,
          "unit": "mmol/L",
          "code": "mmol/L"
        },
        "referenceRange": [
          {
            "low": {
              "value": 3.5,
              "code": "mmol/L",
              "system": "http://unitsofmeasure.org"
            }
          },
          {
            "high": {
              "value": 5.1,
              "code": "mmol/L",
              "system": "http://unitsofmeasure.org"
            }
          }
        ],
        "status": "final",
        "subject": {
          "reference": "urn:uuid:debb81b9-8de6-4b84-9a3f-e729c9f51c45"
        },
        "effectiveDateTime": "2024-11-18",
        "specimen": {
          "reference": "urn:uuid:4eeabcfa-cf03-4e9f-be01-64dd9fa96d5b"
        }
      }
    },
    {
      "fullUrl": "urn:uuid:9fccbed3-6681-4d27-a7bb-f1bc71272dfb",
      "resource": {
        "resourceType": "Observation",
        "id": "9fccbed3-6681-4d27-a7bb-f1bc71272dfb",
        "meta": {
          "profile": [
            "http://hl7.eu/fhir/laboratory/StructureDefinition/Observation-resultslab-eu-lab"
          ]
        },
        "performer": [
          {
            "display": "The Central European Lab"
          }
        ],
        "category": [
          {
            "coding": [
              {
                "code": "laboratory",
                "system": "http://terminology.hl7.org/CodeSystem/observation-category"
              }
            ]
          }
        ],
        "code": {
          "coding": [
            {
              "code": "2075-0",
              "system": "http://loinc.org",
              "display": "Chloride [Moles/volume] in Serum or Plasma"
            }
          ],
          "text": "Chloride [Moles/volume] in Serum or Plasma"
        },
        "valueQuantity": {
          "system": "http://unitsofmeasure.org",
          "value": 108,
          "unit": "mmol/L",
          "code": "mmol/L"
        },
        "referenceRange": [
          {
            "low": {
              "value": 98,
              "code": "mmol/L",
              "system": "http://unitsofmeasure.org"
            }
          },
          {
            "high": {
              "value": 110,
              "code": "mmol/L",
              "system": "http://unitsofmeasure.org"
            }
          }
        ],
        "status": "final",
        "subject": {
          "reference": "urn:uuid:debb81b9-8de6-4b84-9a3f-e729c9f51c45"
        },
        "effectiveDateTime": "2024-11-18",
        "specimen": {
          "reference": "urn:uuid:4eeabcfa-cf03-4e9f-be01-64dd9fa96d5b"
        }
      }
    },
    {
      "fullUrl": "urn:uuid:9cefa0fe-8fa7-4ea8-ba1e-8746ac45cab5",
      "resource": {
        "resourceType": "Observation",
        "id": "9cefa0fe-8fa7-4ea8-ba1e-8746ac45cab5",
        "meta": {
          "profile": [
            "http://hl7.eu/fhir/laboratory/StructureDefinition/Observation-resultslab-eu-lab"
          ]
        },
        "performer": [
          {
            "display": "The Central European Lab"
          }
        ],
        "category": [
          {
            "coding": [
              {
                "code": "laboratory",
                "system": "http://terminology.hl7.org/CodeSystem/observation-category"
              }
            ]
          }
        ],
        "code": {
          "coding": [
            {
              "code": "2028-9",
              "system": "http://loinc.org",
              "display": "Carbon dioxide, total [Moles/volume] in Serum or Plasma"
            }
          ],
          "text": "Carbon dioxide, total [Moles/volume] in Serum or Plasma"
        },
        "valueQuantity": {
          "system": "http://unitsofmeasure.org",
          "value": 20.5,
          "unit": "mmol/L",
          "code": "mmol/L"
        },
        "referenceRange": [
          {
            "low": {
              "value": 22,
              "code": "mmol/L",
              "system": "http://unitsofmeasure.org"
            }
          },
          {
            "high": {
              "value": 29,
              "code": "mmol/L",
              "system": "http://unitsofmeasure.org"
            }
          }
        ],
        "interpretation": [
          {
            "coding": [
              {
                "code": "L",
                "system": "http://terminology.hl7.org/CodeSystem/v3-ObservationInterpretation",
                "display": "Low"
              }
            ]
          }
        ],
        "status": "final",
        "subject": {
          "reference": "urn:uuid:debb81b9-8de6-4b84-9a3f-e729c9f51c45"
        },
        "effectiveDateTime": "2024-11-18",
        "specimen": {
          "reference": "urn:uuid:4eeabcfa-cf03-4e9f-be01-64dd9fa96d5b"
        }
      }
    },
    {
      "fullUrl": "urn:uuid:55edd702-3dc4-4b6a-8c44-12b5f896d790",
      "resource": {
        "resourceType": "Observation",
        "id": "55edd702-3dc4-4b6a-8c44-12b5f896d790",
        "meta": {
          "profile": [
            "http://hl7.eu/fhir/laboratory/StructureDefinition/Observation-resultslab-eu-lab"
          ]
        },
        "performer": [
          {
            "display": "The Central European Lab"
          }
        ],
        "category": [
          {
            "coding": [
              {
                "code": "laboratory",
                "system": "http://terminology.hl7.org/CodeSystem/observation-category"
              }
            ]
          }
        ],
        "code": {
          "coding": [
            {
              "code": "2885-2",
              "system": "http://loinc.org",
              "display": "Protein [Mass/volume] in Serum or Plasma"
            }
          ],
          "text": "Protein [Mass/volume] in Serum or Plasma"
        },
        "valueQuantity": {
          "system": "http://unitsofmeasure.org",
          "value": 7.2,
          "unit": "g/dL",
          "code": "g/dL"
        },
        "referenceRange": [
          {
            "low": {
              "value": 6,
              "code": "g/dL",
              "system": "http://unitsofmeasure.org"
            }
          },
          {
            "high": {
              "value": 8.3,
              "code": "g/dL",
              "system": "http://unitsofmeasure.org"
            }
          }
        ],
        "status": "final",
        "subject": {
          "reference": "urn:uuid:debb81b9-8de6-4b84-9a3f-e729c9f51c45"
        },
        "effectiveDateTime": "2024-11-18",
        "specimen": {
          "reference": "urn:uuid:4eeabcfa-cf03-4e9f-be01-64dd9fa96d5b"
        }
      }
    },
    {
      "fullUrl": "urn:uuid:dbce2efa-4b48-4636-bcb0-a4ae6dec58dd",
      "resource": {
        "resourceType": "Observation",
        "id": "dbce2efa-4b48-4636-bcb0-a4ae6dec58dd",
        "meta": {
          "profile": [
            "http://hl7.eu/fhir/laboratory/StructureDefinition/Observation-resultslab-eu-lab"
          ]
        },
        "performer": [
          {
            "display": "The Central European Lab"
          }
        ],
        "category": [
          {
            "coding": [
              {
                "code": "laboratory",
                "system": "http://terminology.hl7.org/CodeSystem/observation-category"
              }
            ]
          }
        ],
        "code": {
          "coding": [
            {
              "code": "1751-7",
              "system": "http://loinc.org",
              "display": "Albumin [Mass/volume] in Serum or Plasma"
            }
          ],
          "text": "Albumin [Mass/volume] in Serum or Plasma"
        },
        "valueQuantity": {
          "system": "http://unitsofmeasure.org",
          "value": 4.8,
          "unit": "g/dL",
          "code": "g/dL"
        },
        "referenceRange": [
          {
            "low": {
              "value": 3.5,
              "code": "g/dL",
              "system": "http://unitsofmeasure.org"
            }
          },
          {
            "high": {
              "value": 5.5,
              "code": "g/dL",
              "system": "http://unitsofmeasure.org"
            }
          }
        ],
        "status": "final",
        "subject": {
          "reference": "urn:uuid:debb81b9-8de6-4b84-9a3f-e729c9f51c45"
        },
        "effectiveDateTime": "2024-11-18",
        "specimen": {
          "reference": "urn:uuid:4eeabcfa-cf03-4e9f-be01-64dd9fa96d5b"
        }
      }
    },
    {
      "fullUrl": "urn:uuid:c83756e9-5dd5-4c81-acda-0ff3c905763a",
      "resource": {
        "resourceType": "Observation",
        "id": "c83756e9-5dd5-4c81-acda-0ff3c905763a",
        "meta": {
          "profile": [
            "http://hl7.eu/fhir/laboratory/StructureDefinition/Observation-resultslab-eu-lab"
          ]
        },
        "performer": [
          {
            "display": "The Central European Lab"
          }
        ],
        "category": [
          {
            "coding": [
              {
                "code": "laboratory",
                "system": "http://terminology.hl7.org/CodeSystem/observation-category"
              }
            ]
          }
        ],
        "code": {
          "coding": [
            {
              "code": "1975-2",
              "system": "http://loinc.org",
              "display": "Bilirubin.total [Mass/volume] in Serum or Plasma"
            }
          ],
          "text": "Bilirubin.total [Mass/volume] in Serum or Plasma"
        },
        "valueQuantity": {
          "system": "http://unitsofmeasure.org",
          "value": 13.3,
          "unit": "mg/dL",
          "code": "mg/dL"
        },
        "referenceRange": [
          {
            "low": {
              "value": 0.3,
              "code": "mg/dL",
              "system": "http://unitsofmeasure.org"
            }
          },
          {
            "high": {
              "value": 1.2,
              "code": "mg/dL",
              "system": "http://unitsofmeasure.org"
            }
          }
        ],
        "interpretation": [
          {
            "coding": [
              {
                "code": "H",
                "system": "http://terminology.hl7.org/CodeSystem/v3-ObservationInterpretation",
                "display": "High"
              }
            ]
          }
        ],
        "status": "final",
        "subject": {
          "reference": "urn:uuid:debb81b9-8de6-4b84-9a3f-e729c9f51c45"
        },
        "effectiveDateTime": "2024-11-18",
        "specimen": {
          "reference": "urn:uuid:4eeabcfa-cf03-4e9f-be01-64dd9fa96d5b"
        }
      }
    },
    {
      "fullUrl": "urn:uuid:fa869636-ee38-4b0e-9e6a-2fa483ae16e2",
      "resource": {
        "resourceType": "Observation",
        "id": "fa869636-ee38-4b0e-9e6a-2fa483ae16e2",
        "meta": {
          "profile": [
            "http://hl7.eu/fhir/laboratory/StructureDefinition/Observation-resultslab-eu-lab"
          ]
        },
        "performer": [
          {
            "display": "The Central European Lab"
          }
        ],
        "category": [
          {
            "coding": [
              {
                "code": "laboratory",
                "system": "http://terminology.hl7.org/CodeSystem/observation-category"
              }
            ]
          }
        ],
        "code": {
          "coding": [
            {
              "code": "6768-6",
              "system": "http://loinc.org",
              "display": "Alkaline phosphatase [Enzymatic activity/volume] in Serum or Plasma"
            }
          ],
          "text": "Alkaline phosphatase [Enzymatic activity/volume] in Serum or Plasma"
        },
        "valueQuantity": {
          "system": "http://unitsofmeasure.org",
          "value": 84.4,
          "unit": "U/L",
          "code": "U/L"
        },
        "referenceRange": [
          {
            "low": {
              "value": 44,
              "code": "U/L",
              "system": "http://unitsofmeasure.org"
            }
          },
          {
            "high": {
              "value": 136,
              "code": "U/L",
              "system": "http://unitsofmeasure.org"
            }
          }
        ],
        "status": "final",
        "subject": {
          "reference": "urn:uuid:debb81b9-8de6-4b84-9a3f-e729c9f51c45"
        },
        "effectiveDateTime": "2024-11-18",
        "specimen": {
          "reference": "urn:uuid:4eeabcfa-cf03-4e9f-be01-64dd9fa96d5b"
        }
      }
    },
    {
      "fullUrl": "urn:uuid:f27f19aa-28c1-4af8-87f5-adb5a4f0f960",
      "resource": {
        "resourceType": "Observation",
        "id": "f27f19aa-28c1-4af8-87f5-adb5a4f0f960",
        "meta": {
          "profile": [
            "http://hl7.eu/fhir/laboratory/StructureDefinition/Observation-resultslab-eu-lab"
          ]
        },
        "performer": [
          {
            "display": "The Central European Lab"
          }
        ],
        "category": [
          {
            "coding": [
              {
                "code": "laboratory",
                "system": "http://terminology.hl7.org/CodeSystem/observation-category"
              }
            ]
          }
        ],
        "code": {
          "coding": [
            {
              "code": "1742-6",
              "system": "http://loinc.org",
              "display": "Alanine aminotransferase [Enzymatic activity/volume] in Serum or Plasma"
            }
          ],
          "text": "Alanine aminotransferase [Enzymatic activity/volume] in Serum or Plasma"
        },
        "valueQuantity": {
          "system": "http://unitsofmeasure.org",
          "value": 17.8,
          "unit": "U/L",
          "code": "U/L"
        },
        "referenceRange": [
          {
            "low": {
              "value": 7,
              "code": "U/L",
              "system": "http://unitsofmeasure.org"
            }
          },
          {
            "high": {
              "value": 55,
              "code": "U/L",
              "system": "http://unitsofmeasure.org"
            }
          }
        ],
        "status": "final",
        "subject": {
          "reference": "urn:uuid:debb81b9-8de6-4b84-9a3f-e729c9f51c45"
        },
        "effectiveDateTime": "2024-11-18",
        "specimen": {
          "reference": "urn:uuid:4eeabcfa-cf03-4e9f-be01-64dd9fa96d5b"
        }
      }
    },
    {
      "fullUrl": "urn:uuid:decccbe5-277f-497c-a2d0-e2372a0e3996",
      "resource": {
        "resourceType": "Observation",
        "id": "decccbe5-277f-497c-a2d0-e2372a0e3996",
        "meta": {
          "profile": [
            "http://hl7.eu/fhir/laboratory/StructureDefinition/Observation-resultslab-eu-lab"
          ]
        },
        "performer": [
          {
            "display": "The Central European Lab"
          }
        ],
        "category": [
          {
            "coding": [
              {
                "code": "laboratory",
                "system": "http://terminology.hl7.org/CodeSystem/observation-category"
              }
            ]
          }
        ],
        "code": {
          "coding": [
            {
              "code": "1920-8",
              "system": "http://loinc.org",
              "display": "Aspartate aminotransferase [Enzymatic activity/volume] in Serum or Plasma"
            }
          ],
          "text": "Aspartate aminotransferase [Enzymatic activity/volume] in Serum or Plasma"
        },
        "valueQuantity": {
          "system": "http://unitsofmeasure.org",
          "value": 8.3,
          "unit": "U/L",
          "code": "U/L"
        },
        "referenceRange": [
          {
            "low": {
              "value": 10,
              "code": "U/L",
              "system": "http://unitsofmeasure.org"
            }
          },
          {
            "high": {
              "value": 40,
              "code": "U/L",
              "system": "http://unitsofmeasure.org"
            }
          }
        ],
        "interpretation": [
          {
            "coding": [
              {
                "code": "L",
                "system": "http://terminology.hl7.org/CodeSystem/v3-ObservationInterpretation",
                "display": "Low"
              }
            ]
          }
        ],
        "status": "final",
        "subject": {
          "reference": "urn:uuid:debb81b9-8de6-4b84-9a3f-e729c9f51c45"
        },
        "effectiveDateTime": "2024-11-18",
        "specimen": {
          "reference": "urn:uuid:4eeabcfa-cf03-4e9f-be01-64dd9fa96d5b"
        }
      }
    },
    {
      "fullUrl": "urn:uuid:f177bcd8-0998-403a-9e47-d909f8164e06",
      "resource": {
        "resourceType": "Observation",
        "id": "f177bcd8-0998-403a-9e47-d909f8164e06",
        "meta": {
          "profile": [
            "http://hl7.eu/fhir/laboratory/StructureDefinition/Observation-resultslab-eu-lab"
          ]
        },
        "performer": [
          {
            "display": "The Central European Lab"
          }
        ],
        "category": [
          {
            "coding": [
              {
                "code": "laboratory",
                "system": "http://terminology.hl7.org/CodeSystem/observation-category"
              }
            ]
          }
        ],
        "code": {
          "coding": [
            {
              "code": "48065-7",
              "system": "http://loinc.org",
              "display": "Fibrin D-dimer FEU [Mass/volume] in Platelet poor plasma"
            }
          ],
          "text": "Fibrin D-dimer FEU [Mass/volume] in Platelet poor plasma"
        },
        "valueQuantity": {
          "system": "http://unitsofmeasure.org",
          "value": 0.5,
          "unit": "ug/mL",
          "code": "ug/mL"
        },
        "referenceRange": [
          {
            "low": {
              "value": 0,
              "code": "ug/mL",
              "system": "http://unitsofmeasure.org"
            }
          },
          {
            "high": {
              "value": 0.5,
              "code": "ug/mL",
              "system": "http://unitsofmeasure.org"
            }
          }
        ],
        "status": "final",
        "subject": {
          "reference": "urn:uuid:debb81b9-8de6-4b84-9a3f-e729c9f51c45"
        },
        "effectiveDateTime": "2024-11-18",
        "specimen": {
          "reference": "urn:uuid:e6f0dccd-3b4b-4e63-aac5-e2ae9de89622"
        }
      }
    },
    {
      "fullUrl": "urn:uuid:5c40df17-9e5b-4c02-981e-eaff7b83f133",
      "resource": {
        "resourceType": "Observation",
        "id": "5c40df17-9e5b-4c02-981e-eaff7b83f133",
        "meta": {
          "profile": [
            "http://hl7.eu/fhir/laboratory/StructureDefinition/Observation-resultslab-eu-lab"
          ]
        },
        "performer": [
          {
            "display": "The Central European Lab"
          }
        ],
        "category": [
          {
            "coding": [
              {
                "code": "laboratory",
                "system": "http://terminology.hl7.org/CodeSystem/observation-category"
              }
            ]
          }
        ],
        "code": {
          "coding": [
            {
              "code": "2276-4",
              "system": "http://loinc.org",
              "display": "Ferritin [Mass/volume] in Serum or Plasma"
            }
          ],
          "text": "Ferritin [Mass/volume] in Serum or Plasma"
        },
        "valueQuantity": {
          "system": "http://unitsofmeasure.org",
          "value": 637.6,
          "unit": "ug/L",
          "code": "ug/L"
        },
        "referenceRange": [
          {
            "low": {
              "value": 10,
              "code": "ug/L",
              "system": "http://unitsofmeasure.org"
            }
          },
          {
            "high": {
              "value": 400,
              "code": "ug/L",
              "system": "http://unitsofmeasure.org"
            }
          }
        ],
        "interpretation": [
          {
            "coding": [
              {
                "code": "H",
                "system": "http://terminology.hl7.org/CodeSystem/v3-ObservationInterpretation",
                "display": "High"
              }
            ]
          }
        ],
        "status": "final",
        "subject": {
          "reference": "urn:uuid:debb81b9-8de6-4b84-9a3f-e729c9f51c45"
        },
        "effectiveDateTime": "2024-11-18",
        "specimen": {
          "reference": "urn:uuid:4eeabcfa-cf03-4e9f-be01-64dd9fa96d5b"
        }
      }
    },
    {
      "fullUrl": "urn:uuid:fc4335d6-63c4-4762-8597-0aaccc330806",
      "resource": {
        "resourceType": "Observation",
        "id": "fc4335d6-63c4-4762-8597-0aaccc330806",
        "meta": {
          "profile": [
            "http://hl7.eu/fhir/laboratory/StructureDefinition/Observation-resultslab-eu-lab"
          ]
        },
        "performer": [
          {
            "display": "The Central European Lab"
          }
        ],
        "category": [
          {
            "coding": [
              {
                "code": "laboratory",
                "system": "http://terminology.hl7.org/CodeSystem/observation-category"
              }
            ]
          }
        ],
        "code": {
          "coding": [
            {
              "code": "89579-7",
              "system": "http://loinc.org",
              "display": "Troponin I.cardiac [Mass/volume] in Serum or Plasma by High sensitivity method"
            }
          ],
          "text": "Troponin I.cardiac [Mass/volume] in Serum or Plasma by High sensitivity method"
        },
        "valueQuantity": {
          "system": "http://unitsofmeasure.org",
          "value": 4.1,
          "unit": "pg/mL",
          "code": "pg/mL"
        },
        "referenceRange": [
          {
            "low": {
              "value": 0,
              "code": "pg/mL",
              "system": "http://unitsofmeasure.org"
            }
          },
          {
            "high": {
              "value": 19.9,
              "code": "pg/mL",
              "system": "http://unitsofmeasure.org"
            }
          }
        ],
        "status": "final",
        "subject": {
          "reference": "urn:uuid:debb81b9-8de6-4b84-9a3f-e729c9f51c45"
        },
        "effectiveDateTime": "2024-11-18",
        "specimen": {
          "reference": "urn:uuid:4eeabcfa-cf03-4e9f-be01-64dd9fa96d5b"
        }
      }
    },
    {
      "fullUrl": "urn:uuid:512057c7-1c3c-46b9-abcc-8d08d0a5b834",
      "resource": {
        "resourceType": "Observation",
        "id": "512057c7-1c3c-46b9-abcc-8d08d0a5b834",
        "meta": {
          "profile": [
            "http://hl7.eu/fhir/laboratory/StructureDefinition/Observation-resultslab-eu-lab"
          ]
        },
        "performer": [
          {
            "display": "The Central European Lab"
          }
        ],
        "category": [
          {
            "coding": [
              {
                "code": "laboratory",
                "system": "http://terminology.hl7.org/CodeSystem/observation-category"
              }
            ]
          }
        ],
        "code": {
          "coding": [
            {
              "code": "14804-9",
              "system": "http://loinc.org",
              "display": "Lactate dehydrogenase [Enzymatic activity/volume] in Serum or Plasma by Lactate to pyruvate reaction"
            }
          ],
          "text": "Lactate dehydrogenase [Enzymatic activity/volume] in Serum or Plasma by Lactate to pyruvate reaction"
        },
        "valueQuantity": {
          "system": "http://unitsofmeasure.org",
          "value": 293.1,
          "unit": "U/L",
          "code": "U/L"
        },
        "referenceRange": [
          {
            "low": {
              "value": 124,
              "code": "U/L",
              "system": "http://unitsofmeasure.org"
            }
          },
          {
            "high": {
              "value": 333,
              "code": "U/L",
              "system": "http://unitsofmeasure.org"
            }
          }
        ],
        "status": "final",
        "subject": {
          "reference": "urn:uuid:debb81b9-8de6-4b84-9a3f-e729c9f51c45"
        },
        "effectiveDateTime": "2024-11-18",
        "specimen": {
          "reference": "urn:uuid:4eeabcfa-cf03-4e9f-be01-64dd9fa96d5b"
        }
      }
    },
    {
      "fullUrl": "urn:uuid:1750ceed-4a7f-4847-923c-33d482816e1e",
      "resource": {
        "resourceType": "Observation",
        "id": "1750ceed-4a7f-4847-923c-33d482816e1e",
        "meta": {
          "profile": [
            "http://hl7.eu/fhir/laboratory/StructureDefinition/Observation-resultslab-eu-lab"
          ]
        },
        "performer": [
          {
            "display": "The Central European Lab"
          }
        ],
        "category": [
          {
            "coding": [
              {
                "code": "laboratory",
                "system": "http://terminology.hl7.org/CodeSystem/observation-category"
              }
            ]
          }
        ],
        "code": {
          "coding": [
            {
              "code": "2157-6",
              "system": "http://loinc.org",
              "display": "Creatine kinase [Enzymatic activity/volume] in Serum or Plasma"
            }
          ],
          "text": "Creatine kinase [Enzymatic activity/volume] in Serum or Plasma"
        },
        "valueQuantity": {
          "system": "http://unitsofmeasure.org",
          "value": 41.9,
          "unit": "U/L",
          "code": "U/L"
        },
        "referenceRange": [
          {
            "low": {
              "value": 30,
              "code": "U/L",
              "system": "http://unitsofmeasure.org"
            }
          },
          {
            "high": {
              "value": 130,
              "code": "U/L",
              "system": "http://unitsofmeasure.org"
            }
          }
        ],
        "status": "final",
        "subject": {
          "reference": "urn:uuid:debb81b9-8de6-4b84-9a3f-e729c9f51c45"
        },
        "effectiveDateTime": "2024-11-18",
        "specimen": {
          "reference": "urn:uuid:4eeabcfa-cf03-4e9f-be01-64dd9fa96d5b"
        }
      }
    },
    {
      "fullUrl": "urn:uuid:d898baab-4d10-4e90-be26-03b01e3bd03d",
      "resource": {
        "resourceType": "Observation",
        "id": "d898baab-4d10-4e90-be26-03b01e3bd03d",
        "meta": {
          "profile": [
            "http://hl7.eu/fhir/laboratory/StructureDefinition/Observation-resultslab-eu-lab"
          ]
        },
        "performer": [
          {
            "display": "The Central European Lab"
          }
        ],
        "category": [
          {
            "coding": [
              {
                "code": "laboratory",
                "system": "http://terminology.hl7.org/CodeSystem/observation-category"
              }
            ]
          }
        ],
        "code": {
          "coding": [
            {
              "code": "1988-5",
              "system": "http://loinc.org",
              "display": "C reactive protein [Mass/volume] in Serum or Plasma"
            }
          ],
          "text": "C reactive protein [Mass/volume] in Serum or Plasma"
        },
        "valueQuantity": {
          "system": "http://unitsofmeasure.org",
          "value": 11.9,
          "unit": "mg/L",
          "code": "mg/L"
        },
        "referenceRange": [
          {
            "low": {
              "value": 0,
              "code": "mg/L",
              "system": "http://unitsofmeasure.org"
            }
          },
          {
            "high": {
              "value": 10,
              "code": "mg/L",
              "system": "http://unitsofmeasure.org"
            }
          }
        ],
        "interpretation": [
          {
            "coding": [
              {
                "code": "H",
                "system": "http://terminology.hl7.org/CodeSystem/v3-ObservationInterpretation",
                "display": "High"
              }
            ]
          }
        ],
        "status": "final",
        "subject": {
          "reference": "urn:uuid:debb81b9-8de6-4b84-9a3f-e729c9f51c45"
        },
        "effectiveDateTime": "2024-11-18",
        "specimen": {
          "reference": "urn:uuid:4eeabcfa-cf03-4e9f-be01-64dd9fa96d5b"
        }
      }
    },
    {
      "fullUrl": "urn:uuid:a37c68e3-f587-40f4-b117-b68dd722934c",
      "resource": {
        "resourceType": "Observation",
        "id": "a37c68e3-f587-40f4-b117-b68dd722934c",
        "meta": {
          "profile": [
            "http://hl7.eu/fhir/laboratory/StructureDefinition/Observation-resultslab-eu-lab"
          ]
        },
        "performer": [
          {
            "display": "The Central European Lab"
          }
        ],
        "category": [
          {
            "coding": [
              {
                "code": "laboratory",
                "system": "http://terminology.hl7.org/CodeSystem/observation-category"
              }
            ]
          }
        ],
        "code": {
          "coding": [
            {
              "code": "5902-2",
              "system": "http://loinc.org",
              "display": "Prothrombin time (PT)"
            }
          ],
          "text": "Prothrombin time (PT)"
        },
        "valueQuantity": {
          "system": "http://unitsofmeasure.org",
          "value": 10.3,
          "unit": "s",
          "code": "s"
        },
        "referenceRange": [
          {
            "low": {
              "value": 11,
              "code": "s",
              "system": "http://unitsofmeasure.org"
            }
          },
          {
            "high": {
              "value": 13.5,
              "code": "s",
              "system": "http://unitsofmeasure.org"
            }
          }
        ],
        "interpretation": [
          {
            "coding": [
              {
                "code": "L",
                "system": "http://terminology.hl7.org/CodeSystem/v3-ObservationInterpretation",
                "display": "Low"
              }
            ]
          }
        ],
        "status": "final",
        "subject": {
          "reference": "urn:uuid:debb81b9-8de6-4b84-9a3f-e729c9f51c45"
        },
        "effectiveDateTime": "2024-11-18",
        "specimen": {
          "reference": "urn:uuid:e6f0dccd-3b4b-4e63-aac5-e2ae9de89622"
        }
      }
    },
    {
      "fullUrl": "urn:uuid:9685084c-754e-437b-ad4c-26c7618ef3e7",
      "resource": {
        "resourceType": "Observation",
        "id": "9685084c-754e-437b-ad4c-26c7618ef3e7",
        "meta": {
          "profile": [
            "http://hl7.eu/fhir/laboratory/StructureDefinition/Observation-resultslab-eu-lab"
          ]
        },
        "performer": [
          {
            "display": "The Central European Lab"
          }
        ],
        "category": [
          {
            "coding": [
              {
                "code": "laboratory",
                "system": "http://terminology.hl7.org/CodeSystem/observation-category"
              }
            ]
          }
        ],
        "code": {
          "coding": [
            {
              "code": "6301-6",
              "system": "http://loinc.org",
              "display": "INR in Platelet poor plasma by Coagulation assay"
            }
          ],
          "text": "INR in Platelet poor plasma by Coagulation assay"
        },
        "valueQuantity": {
          "system": "http://unitsofmeasure.org",
          "value": 1.2,
          "unit": "{INR}",
          "code": "{INR}"
        },
        "referenceRange": [
          {
            "low": {
              "value": 0.9,
              "code": "{INR}",
              "system": "http://unitsofmeasure.org"
            }
          },
          {
            "high": {
              "value": 3,
              "code": "{INR}",
              "system": "http://unitsofmeasure.org"
            }
          }
        ],
        "status": "final",
        "subject": {
          "reference": "urn:uuid:debb81b9-8de6-4b84-9a3f-e729c9f51c45"
        },
        "effectiveDateTime": "2024-11-18",
        "specimen": {
          "reference": "urn:uuid:e6f0dccd-3b4b-4e63-aac5-e2ae9de89622"
        }
      }
    },
    {
      "fullUrl": "urn:uuid:83769257-b050-46cf-b5b8-5dc1a9d9279d",
      "resource": {
        "resourceType": "Observation",
        "id": "83769257-b050-46cf-b5b8-5dc1a9d9279d",
        "meta": {
          "profile": [
            "http://hl7.eu/fhir/laboratory/StructureDefinition/Observation-resultslab-eu-lab"
          ]
        },
        "performer": [
          {
            "display": "The Central European Lab"
          }
        ],
        "category": [
          {
            "coding": [
              {
                "code": "laboratory",
                "system": "http://terminology.hl7.org/CodeSystem/observation-category"
              }
            ]
          }
        ],
        "code": {
          "coding": [
            {
              "code": "33959-8",
              "system": "http://loinc.org",
              "display": "Procalcitonin [Mass/volume] in Serum or Plasma"
            }
          ],
          "text": "Procalcitonin [Mass/volume] in Serum or Plasma"
        },
        "valueQuantity": {
          "system": "http://unitsofmeasure.org",
          "value": 0.1,
          "unit": "ng/mL",
          "code": "ng/mL"
        },
        "referenceRange": [
          {
            "low": {
              "value": 0,
              "code": "ng/mL",
              "system": "http://unitsofmeasure.org"
            }
          },
          {
            "high": {
              "value": 0.5,
              "code": "ng/mL",
              "system": "http://unitsofmeasure.org"
            }
          }
        ],
        "status": "final",
        "subject": {
          "reference": "urn:uuid:debb81b9-8de6-4b84-9a3f-e729c9f51c45"
        },
        "effectiveDateTime": "2024-11-18",
        "specimen": {
          "reference": "urn:uuid:4eeabcfa-cf03-4e9f-be01-64dd9fa96d5b"
        }
      }
    }
  ],
  "type": "document",
  "timestamp": "2024-11-19T18:43:06Z"
}
