<Bundle xmlns="http://hl7.org/fhir">
   <id value="Instance-Bundle-e9c159f7-4cb3-491a-a583-4d59afad5de2"/>
   <meta>
      <profile value="http://hl7.eu/fhir/laboratory/StructureDefinition/Bundle-eu-lab"/>
   </meta>
   <identifier>
      <system value="urn:oid:2.16.840.1.113883.2.51.999"/>
      <value value="e604a29a-be7e-4efe-9b66-023705ae17e2"/>
      <assigner>
         <display value="HL7 Europe"/>
      </assigner>
   </identifier>
   <type value="document"/>
   <timestamp value="2024-11-19T18:40:54Z"/>
   <entry>
      <fullUrl value="urn:uuid:ccb46604-4873-45c2-94b3-3d580b145cc9"/>
      <resource>
         <Composition>
            <id value="ccb46604-4873-45c2-94b3-3d580b145cc9"/>
            <meta>
               <profile value="http://hl7.eu/fhir/laboratory/StructureDefinition/Composition-eu-lab"/>
            </meta>
            <identifier>
               <system value="urn:oid:2.16.840.1.113883.2.51.999"/>
               <value value="36e1e0a1-1358-4c41-b75c-c298d7c5028f"/>
               <assigner>
                  <display value="HL7 Europe"/>
               </assigner>
            </identifier>
            <status value="final"/>
            <type>
               <text value="Laboratory Report"/>
            </type>
            <category>
               <coding>
                  <system value="http://loinc.org"/>
                  <code value="26436-6"/>
                  <display value="Laboratory studies (set)"/>
               </coding>
            </category>
            <subject>
               <reference value="urn:uuid:5176a3ef-e71f-4683-833a-a3d8184d1958"/>
            </subject>
            <date value="2024-11-19T18:40:54Z"/>
            <author>
               <reference value="urn:uuid:56f5f17e-ee0e-40e8-8b7e-6f56aa70b3bc"/>
            </author>
            <title value="Laboratory Report"/>
            <confidentiality value="N"/>
            <section>
               <title value="Laboratory Report"/>
               <code>
                  <coding>
                     <system value="http://loinc.org"/>
                     <code value="26436-6"/>
                     <display value="Laboratory studies (set)"/>
                  </coding>
                  <text value="Laboratory studies"/>
               </code>
               <section>
                  <title value="Chemistry"/>
                  <code>
                     <coding>
                        <system value="http://loinc.org"/>
                        <code value="18719-5"/>
                        <display value="Chemistry studies (set)"/>
                     </coding>
                     <text value="Chemistry"/>
                  </code>
                  <text>
                     <status value="generated"/>
                     <div xmlns="http://www.w3.org/1999/xhtml">
                        <h3 id="section-1">Chemistry</h3>
                        <table class="hl7__eu__lab__report">
                           <thead>
                              <tr>
                                 <th>Test</th>
                                 <th>18 Nov 2024</th>
                                 <th>Reference Range</th>
                                 <th>Unit</th>
                              </tr>
                           </thead>
                           <tbody>
                              <tr>
                                 <td>Oxygen saturation in Arterial blood</td>
                                 <td>
                                    <strong>87.4 L</strong>
                                 </td>
                                 <td>95 - 100</td>
                                 <td>%</td>
                              </tr>
                           </tbody>
                        </table>
                     </div>
                  </text>
                  <entry>
                     <reference value="urn:uuid:ba8554a2-56c8-46e9-9275-596a59c5a801"/>
                  </entry>
               </section>
               <section>
                  <title value="Microbiology"/>
                  <code>
                     <coding>
                        <system value="http://loinc.org"/>
                        <code value="18725-2"/>
                        <display value="Microbiology studies"/>
                     </coding>
                     <text value="Microbiology"/>
                  </code>
                  <text>
                     <status value="generated"/>
                     <div xmlns="http://www.w3.org/1999/xhtml">
                        <h3 id="section-2">Microbiology</h3>
                        <table class="hl7__eu__lab__report">
                           <thead>
                              <tr>
                                 <th>Test</th>
                                 <th>18 Nov 2024</th>
                                 <th>Reference Range</th>
                                 <th>Unit</th>
                              </tr>
                           </thead>
                           <tbody>
                              <tr>
                                 <td>Influenza virus A RNA [Presence] in Respiratory system specimen by NAA with probe detection</td>
                                 <td>Negative</td>
                                 <td/>
                                 <td/>
                              </tr>
                              <tr>
                                 <td>Influenza virus B RNA [Presence] in Respiratory system specimen by NAA with probe detection</td>
                                 <td>Negative</td>
                                 <td/>
                                 <td/>
                              </tr>
                              <tr>
                                 <td>Respiratory syncytial virus RNA [Presence] in Respiratory system specimen by NAA with probe detection</td>
                                 <td>Negative</td>
                                 <td/>
                                 <td/>
                              </tr>
                              <tr>
                                 <td>Parainfluenza virus 1 RNA [Presence] in Respiratory system specimen by NAA with probe detection</td>
                                 <td>Negative</td>
                                 <td/>
                                 <td/>
                              </tr>
                              <tr>
                                 <td>Parainfluenza virus 2 RNA [Presence] in Respiratory system specimen by NAA with probe detection</td>
                                 <td>Negative</td>
                                 <td/>
                                 <td/>
                              </tr>
                              <tr>
                                 <td>Parainfluenza virus 3 RNA [Presence] in Respiratory system specimen by NAA with probe detection</td>
                                 <td>Negative</td>
                                 <td/>
                                 <td/>
                              </tr>
                              <tr>
                                 <td>Rhinovirus RNA [Presence] in Respiratory system specimen by NAA with probe detection</td>
                                 <td>Negative</td>
                                 <td/>
                                 <td/>
                              </tr>
                              <tr>
                                 <td>Human metapneumovirus RNA [Presence] in Respiratory system specimen by NAA with probe detection</td>
                                 <td>Negative</td>
                                 <td/>
                                 <td/>
                              </tr>
                              <tr>
                                 <td>Adenovirus A+B+C+D+E DNA [Presence] in Respiratory system specimen by NAA with probe detection</td>
                                 <td>Negative</td>
                                 <td/>
                                 <td/>
                              </tr>
                           </tbody>
                        </table>
                     </div>
                  </text>
                  <entry>
                     <reference value="urn:uuid:d1a7bbf7-040e-468d-a2eb-bc3ff20b5a39"/>
                  </entry>
                  <entry>
                     <reference value="urn:uuid:48ad529c-04bc-4d69-988c-65c88eecceb2"/>
                  </entry>
                  <entry>
                     <reference value="urn:uuid:477aa47b-f971-4399-9900-c3857dd63c69"/>
                  </entry>
                  <entry>
                     <reference value="urn:uuid:49f21514-2dd7-4635-bed0-1369d855ca75"/>
                  </entry>
                  <entry>
                     <reference value="urn:uuid:d1b54704-f970-48f8-917e-55778a30f760"/>
                  </entry>
                  <entry>
                     <reference value="urn:uuid:96c1afb2-8e8f-4d54-a504-76f200461da5"/>
                  </entry>
                  <entry>
                     <reference value="urn:uuid:183c7209-4a27-45a3-aafd-020ebae27931"/>
                  </entry>
                  <entry>
                     <reference value="urn:uuid:3736c593-18b0-4b7b-b397-4415df95aa87"/>
                  </entry>
                  <entry>
                     <reference value="urn:uuid:b2185878-0194-44b2-ba0b-1f30d7f20565"/>
                  </entry>
               </section>
               <section>
                  <title value="Microbiology Panel"/>
                  <code>
                     <coding>
                        <system value="http://loinc.org"/>
                        <code value="18725-2"/>
                        <display value="Microbiology studies"/>
                     </coding>
                     <text value="Microbiology Panel"/>
                  </code>
                  <text>
                     <status value="generated"/>
                     <div xmlns="http://www.w3.org/1999/xhtml">
                        <h3 id="section-3">Microbiology Panel</h3>
                        <table class="hl7__eu__lab__report">
                           <thead>
                              <tr>
                                 <th>Test</th>
                                 <th>18 Nov 2024</th>
                                 <th>Reference Range</th>
                                 <th>Unit</th>
                              </tr>
                           </thead>
                           <tbody>
                              <tr>
                                 <td>SARS-CoV-2 (COVID-19) RNA panel - Respiratory system specimen by NAA with probe detection</td>
                                 <td>Detected</td>
                                 <td/>
                                 <td/>
                              </tr>
                           </tbody>
                        </table>
                     </div>
                  </text>
                  <entry>
                     <reference value="urn:uuid:7ddf8a5d-1698-456b-822a-3b890b4a55fb"/>
                  </entry>
               </section>
            </section>
         </Composition>
      </resource>
   </entry>
   <entry>
      <fullUrl value="urn:uuid:8c9471c4-8c69-492a-bc04-382ef53b05ac"/>
      <resource>
         <DiagnosticReport>
            <id value="8c9471c4-8c69-492a-bc04-382ef53b05ac"/>
            <meta>
               <profile value="http://hl7.eu/fhir/laboratory/StructureDefinition/DiagnosticReport-eu-lab"/>
            </meta>
            <extension url="http://hl7.org/fhir/5.0/StructureDefinition/extension-DiagnosticReport.composition">
               <valueReference>
                  <reference value="urn:uuid:ccb46604-4873-45c2-94b3-3d580b145cc9"/>
               </valueReference>
            </extension>
            <identifier>
               <system value="urn:oid:2.16.840.1.113883.2.51.999"/>
               <value value="1673f86f-fd9a-4968-8cfa-24df172b5180"/>
               <assigner>
                  <display value="HL7 Europe"/>
               </assigner>
            </identifier>
            <status value="registered"/>
            <category>
               <coding>
                  <system value="http://loinc.org"/>
                  <code value="18719-5"/>
                  <display value="Chemistry studies (set)"/>
               </coding>
            </category>
            <code>
               <coding>
                  <system value="http://loinc.org"/>
                  <code value="11502-2"/>
                  <display value="Laboratory report"/>
               </coding>
            </code>
            <subject>
               <reference value="urn:uuid:5176a3ef-e71f-4683-833a-a3d8184d1958"/>
            </subject>
            <specimen>
               <reference value="urn:uuid:8d992be1-5cc4-4941-ac9e-ad2e8264b7e5"/>
            </specimen>
            <specimen>
               <reference value="urn:uuid:7d2413f6-4856-44b9-a4e3-540560cd5970"/>
            </specimen>
            <result>
               <reference value="urn:uuid:ba8554a2-56c8-46e9-9275-596a59c5a801"/>
            </result>
            <result>
               <reference value="urn:uuid:d1a7bbf7-040e-468d-a2eb-bc3ff20b5a39"/>
            </result>
            <result>
               <reference value="urn:uuid:48ad529c-04bc-4d69-988c-65c88eecceb2"/>
            </result>
            <result>
               <reference value="urn:uuid:477aa47b-f971-4399-9900-c3857dd63c69"/>
            </result>
            <result>
               <reference value="urn:uuid:49f21514-2dd7-4635-bed0-1369d855ca75"/>
            </result>
            <result>
               <reference value="urn:uuid:d1b54704-f970-48f8-917e-55778a30f760"/>
            </result>
            <result>
               <reference value="urn:uuid:96c1afb2-8e8f-4d54-a504-76f200461da5"/>
            </result>
            <result>
               <reference value="urn:uuid:183c7209-4a27-45a3-aafd-020ebae27931"/>
            </result>
            <result>
               <reference value="urn:uuid:3736c593-18b0-4b7b-b397-4415df95aa87"/>
            </result>
            <result>
               <reference value="urn:uuid:b2185878-0194-44b2-ba0b-1f30d7f20565"/>
            </result>
            <result>
               <reference value="urn:uuid:7ddf8a5d-1698-456b-822a-3b890b4a55fb"/>
            </result>
         </DiagnosticReport>
      </resource>
   </entry>
   <entry>
      <fullUrl value="urn:uuid:5176a3ef-e71f-4683-833a-a3d8184d1958"/>
      <resource>
         <Patient>
            <id value="5176a3ef-e71f-4683-833a-a3d8184d1958"/>
            <meta>
               <profile value="http://hl7.eu/fhir/laboratory/StructureDefinition/Patient-eu-lab"/>
            </meta>
            <identifier>
               <type>
                  <coding>
                     <system value="http://terminology.hl7.org/CodeSystem/v2-0203"/>
                     <code value="NI"/>
                  </coding>
               </type>
               <system value="http://ec.europa.eu/identifier/eci"/>
               <value value="2347-406534-1"/>
            </identifier>
            <identifier>
               <type>
                  <coding>
                     <system value="http://terminology.hl7.org/CodeSystem/v2-0203"/>
                     <code value="MR"/>
                  </coding>
               </type>
               <system value="http://local.setting.eu/identifier"/>
               <value value="05463347-f478-411f-9238-4e876a2793e0"/>
            </identifier>
            <name>
               <text value="Ruaraidh Allard"/>
               <family value="Allard"/>
               <given value="Ruaraidh"/>
            </name>
            <telecom>
               <system value="phone"/>
               <value value="+351 21 221 869 1166"/>
            </telecom>
            <gender value="male"/>
            <birthDate value="2003-11-02"/>
            <address>
               <use value="home"/>
               <type value="physical"/>
               <line value="R Patrão Caramelho 76"/>
               <city value="Malta"/>
               <postalCode value="4485-463"/>
               <country value="Portugal"/>
            </address>
         </Patient>
      </resource>
   </entry>
   <entry>
      <fullUrl value="urn:uuid:8d4b2b4c-fb0d-47d5-8319-5a7bef0cd76e"/>
      <resource>
         <ServiceRequest>
            <id value="8d4b2b4c-fb0d-47d5-8319-5a7bef0cd76e"/>
            <meta>
               <profile value="http://hl7.eu/fhir/laboratory/StructureDefinition/ServiceRequest-eu-lab"/>
            </meta>
            <identifier>
               <system value="http://example.org"/>
               <value value="9ebd0a93-5aec-47c2-bd0e-44b402db3cc1"/>
            </identifier>
            <status value="active"/>
            <intent value="order"/>
            <code>
               <coding>
                  <system value="http://snomed.info/sct"/>
                  <code value="108252007"/>
                  <display value="Laboratory procedure"/>
               </coding>
            </code>
            <subject>
               <reference value="urn:uuid:5176a3ef-e71f-4683-833a-a3d8184d1958"/>
            </subject>
            <requester>
               <reference value="urn:uuid:6009e819-e8f2-454a-b807-3768ba469f85"/>
            </requester>
            <specimen>
               <reference value="urn:uuid:8d992be1-5cc4-4941-ac9e-ad2e8264b7e5"/>
            </specimen>
            <specimen>
               <reference value="urn:uuid:7d2413f6-4856-44b9-a4e3-540560cd5970"/>
            </specimen>
         </ServiceRequest>
      </resource>
   </entry>
   <entry>
      <fullUrl value="urn:uuid:6009e819-e8f2-454a-b807-3768ba469f85"/>
      <resource>
         <PractitionerRole>
            <id value="6009e819-e8f2-454a-b807-3768ba469f85"/>
            <meta>
               <profile value="http://hl7.eu/fhir/laboratory/StructureDefinition/PractitionerRole-eu-lab"/>
            </meta>
            <organization>
               <reference value="urn:uuid:4b2ee6c7-d7ab-4b12-9162-d6ec3f71c7f8"/>
            </organization>
         </PractitionerRole>
      </resource>
   </entry>
   <entry>
      <fullUrl value="urn:uuid:4b2ee6c7-d7ab-4b12-9162-d6ec3f71c7f8"/>
      <resource>
         <Organization>
            <id value="4b2ee6c7-d7ab-4b12-9162-d6ec3f71c7f8"/>
            <meta>
               <profile value="http://hl7.org/fhir/uv/ips/StructureDefinition/Organization-uv-ips"/>
            </meta>
            <identifier>
               <system value="urn:oid:2.16.840.1.113883.2.51.999"/>
               <value value="8e757975-2a94-4c09-9d1f-7164c427d27f"/>
               <assigner>
                  <display value="HL7 Europe"/>
               </assigner>
            </identifier>
            <name value="Centro de Saúde de Baião"/>
            <address>
               <city value="Baião"/>
               <postalCode value="4640-147"/>
               <country value="pt"/>
            </address>
         </Organization>
      </resource>
   </entry>
   <entry>
      <fullUrl value="urn:uuid:56f5f17e-ee0e-40e8-8b7e-6f56aa70b3bc"/>
      <resource>
         <PractitionerRole>
            <id value="56f5f17e-ee0e-40e8-8b7e-6f56aa70b3bc"/>
            <meta>
               <profile value="http://hl7.eu/fhir/laboratory/StructureDefinition/PractitionerRole-eu-lab"/>
            </meta>
            <practitioner>
               <reference value="urn:uuid:a6ff40a2-6123-45b7-938c-528600fa555a"/>
            </practitioner>
         </PractitionerRole>
      </resource>
   </entry>
   <entry>
      <fullUrl value="urn:uuid:a6ff40a2-6123-45b7-938c-528600fa555a"/>
      <resource>
         <Practitioner>
            <id value="a6ff40a2-6123-45b7-938c-528600fa555a"/>
            <meta>
               <profile value="http://hl7.eu/fhir/laboratory/StructureDefinition/Practitioner-eu-lab"/>
            </meta>
            <identifier>
               <system value="urn:oid:2.16.840.1.113883.2.51.999"/>
               <value value="4926c3f8-ea1e-431b-9056-6b0820a139fd"/>
               <assigner>
                  <display value="HL7 Europe"/>
               </assigner>
            </identifier>
            <name>
               <family value="Ample"/>
               <given value="Ex"/>
               <prefix value="dr"/>
            </name>
            <address>
               <line value="Boulevard du Jardin Botanique 32"/>
               <city value="Brussels"/>
               <postalCode value="1000"/>
            </address>
         </Practitioner>
      </resource>
   </entry>
   <entry>
      <fullUrl value="urn:uuid:8d992be1-5cc4-4941-ac9e-ad2e8264b7e5"/>
      <resource>
         <Specimen>
            <id value="8d992be1-5cc4-4941-ac9e-ad2e8264b7e5"/>
            <meta>
               <profile value="http://hl7.eu/fhir/laboratory/StructureDefinition/Specimen-eu-lab"/>
            </meta>
            <status value="available"/>
            <type>
               <coding>
                  <system value="http://snomed.info/sct"/>
                  <code value="122552005"/>
                  <display value="Arterial blood specimen (specimen)"/>
               </coding>
            </type>
            <collection>
               <collectedDateTime value="2024-11-18"/>
            </collection>
         </Specimen>
      </resource>
   </entry>
   <entry>
      <fullUrl value="urn:uuid:7d2413f6-4856-44b9-a4e3-540560cd5970"/>
      <resource>
         <Specimen>
            <id value="7d2413f6-4856-44b9-a4e3-540560cd5970"/>
            <meta>
               <profile value="http://hl7.eu/fhir/laboratory/StructureDefinition/Specimen-eu-lab"/>
            </meta>
            <status value="available"/>
            <type>
               <coding>
                  <system value="http://snomed.info/sct"/>
                  <code value="258603007"/>
                  <display value="Respiratory specimen (specimen)"/>
               </coding>
            </type>
            <collection>
               <collectedDateTime value="2024-11-18"/>
            </collection>
         </Specimen>
      </resource>
   </entry>
   <entry>
      <fullUrl value="urn:uuid:ba8554a2-56c8-46e9-9275-596a59c5a801"/>
      <resource>
         <Observation>
            <id value="ba8554a2-56c8-46e9-9275-596a59c5a801"/>
            <meta>
               <profile value="http://hl7.eu/fhir/laboratory/StructureDefinition/Observation-resultslab-eu-lab"/>
            </meta>
            <status value="final"/>
            <category>
               <coding>
                  <system value="http://terminology.hl7.org/CodeSystem/observation-category"/>
                  <code value="laboratory"/>
               </coding>
            </category>
            <code>
               <coding>
                  <system value="http://loinc.org"/>
                  <code value="2708-6"/>
                  <display value="Oxygen saturation in Arterial blood"/>
               </coding>
               <text value="Oxygen saturation in Arterial blood"/>
            </code>
            <subject>
               <reference value="urn:uuid:5176a3ef-e71f-4683-833a-a3d8184d1958"/>
            </subject>
            <effectiveDateTime value="2024-11-18"/>
            <performer>
               <display value="The Central European Lab"/>
            </performer>
            <valueQuantity>
               <value value="87.4"/>
               <unit value="%"/>
               <system value="http://unitsofmeasure.org"/>
               <code value="%"/>
            </valueQuantity>
            <interpretation>
               <coding>
                  <system value="http://terminology.hl7.org/CodeSystem/v3-ObservationInterpretation"/>
                  <code value="L"/>
                  <display value="Low"/>
               </coding>
            </interpretation>
            <specimen>
               <reference value="urn:uuid:8d992be1-5cc4-4941-ac9e-ad2e8264b7e5"/>
            </specimen>
            <referenceRange>
               <low>
                  <value value="95"/>
                  <system value="http://unitsofmeasure.org"/>
                  <code value="%"/>
               </low>
            </referenceRange>
            <referenceRange>
               <high>
                  <value value="100"/>
                  <system value="http://unitsofmeasure.org"/>
                  <code value="%"/>
               </high>
            </referenceRange>
         </Observation>
      </resource>
   </entry>
   <entry>
      <fullUrl value="urn:uuid:d1a7bbf7-040e-468d-a2eb-bc3ff20b5a39"/>
      <resource>
         <Observation>
            <id value="d1a7bbf7-040e-468d-a2eb-bc3ff20b5a39"/>
            <meta>
               <profile value="http://hl7.eu/fhir/laboratory/StructureDefinition/Observation-resultslab-eu-lab"/>
            </meta>
            <status value="final"/>
            <category>
               <coding>
                  <system value="http://terminology.hl7.org/CodeSystem/observation-category"/>
                  <code value="laboratory"/>
               </coding>
            </category>
            <code>
               <coding>
                  <system value="http://loinc.org"/>
                  <code value="92142-9"/>
                  <display value="Influenza virus A RNA [Presence] in Respiratory system specimen by NAA with probe detection"/>
               </coding>
               <text value="Influenza virus A RNA [Presence] in Respiratory system specimen by NAA with probe detection"/>
            </code>
            <subject>
               <reference value="urn:uuid:5176a3ef-e71f-4683-833a-a3d8184d1958"/>
            </subject>
            <effectiveDateTime value="2024-11-18"/>
            <performer>
               <display value="The Central European Lab"/>
            </performer>
            <valueCodeableConcept>
               <coding>
                  <system value="http://snomed.info/sct"/>
                  <code value="260385009"/>
                  <display value="Negative"/>
               </coding>
            </valueCodeableConcept>
            <specimen>
               <reference value="urn:uuid:7d2413f6-4856-44b9-a4e3-540560cd5970"/>
            </specimen>
         </Observation>
      </resource>
   </entry>
   <entry>
      <fullUrl value="urn:uuid:48ad529c-04bc-4d69-988c-65c88eecceb2"/>
      <resource>
         <Observation>
            <id value="48ad529c-04bc-4d69-988c-65c88eecceb2"/>
            <meta>
               <profile value="http://hl7.eu/fhir/laboratory/StructureDefinition/Observation-resultslab-eu-lab"/>
            </meta>
            <status value="final"/>
            <category>
               <coding>
                  <system value="http://terminology.hl7.org/CodeSystem/observation-category"/>
                  <code value="laboratory"/>
               </coding>
            </category>
            <code>
               <coding>
                  <system value="http://loinc.org"/>
                  <code value="92141-1"/>
                  <display value="Influenza virus B RNA [Presence] in Respiratory system specimen by NAA with probe detection"/>
               </coding>
               <text value="Influenza virus B RNA [Presence] in Respiratory system specimen by NAA with probe detection"/>
            </code>
            <subject>
               <reference value="urn:uuid:5176a3ef-e71f-4683-833a-a3d8184d1958"/>
            </subject>
            <effectiveDateTime value="2024-11-18"/>
            <performer>
               <display value="The Central European Lab"/>
            </performer>
            <valueCodeableConcept>
               <coding>
                  <system value="http://snomed.info/sct"/>
                  <code value="260385009"/>
                  <display value="Negative"/>
               </coding>
            </valueCodeableConcept>
            <specimen>
               <reference value="urn:uuid:7d2413f6-4856-44b9-a4e3-540560cd5970"/>
            </specimen>
         </Observation>
      </resource>
   </entry>
   <entry>
      <fullUrl value="urn:uuid:477aa47b-f971-4399-9900-c3857dd63c69"/>
      <resource>
         <Observation>
            <id value="477aa47b-f971-4399-9900-c3857dd63c69"/>
            <meta>
               <profile value="http://hl7.eu/fhir/laboratory/StructureDefinition/Observation-resultslab-eu-lab"/>
            </meta>
            <status value="final"/>
            <category>
               <coding>
                  <system value="http://terminology.hl7.org/CodeSystem/observation-category"/>
                  <code value="laboratory"/>
               </coding>
            </category>
            <code>
               <coding>
                  <system value="http://loinc.org"/>
                  <code value="92131-2"/>
                  <display value="Respiratory syncytial virus RNA [Presence] in Respiratory system specimen by NAA with probe detection"/>
               </coding>
               <text value="Respiratory syncytial virus RNA [Presence] in Respiratory system specimen by NAA with probe detection"/>
            </code>
            <subject>
               <reference value="urn:uuid:5176a3ef-e71f-4683-833a-a3d8184d1958"/>
            </subject>
            <effectiveDateTime value="2024-11-18"/>
            <performer>
               <display value="The Central European Lab"/>
            </performer>
            <valueCodeableConcept>
               <coding>
                  <system value="http://snomed.info/sct"/>
                  <code value="260385009"/>
                  <display value="Negative"/>
               </coding>
            </valueCodeableConcept>
            <specimen>
               <reference value="urn:uuid:7d2413f6-4856-44b9-a4e3-540560cd5970"/>
            </specimen>
         </Observation>
      </resource>
   </entry>
   <entry>
      <fullUrl value="urn:uuid:49f21514-2dd7-4635-bed0-1369d855ca75"/>
      <resource>
         <Observation>
            <id value="49f21514-2dd7-4635-bed0-1369d855ca75"/>
            <meta>
               <profile value="http://hl7.eu/fhir/laboratory/StructureDefinition/Observation-resultslab-eu-lab"/>
            </meta>
            <status value="final"/>
            <category>
               <coding>
                  <system value="http://terminology.hl7.org/CodeSystem/observation-category"/>
                  <code value="laboratory"/>
               </coding>
            </category>
            <code>
               <coding>
                  <system value="http://loinc.org"/>
                  <code value="92140-3"/>
                  <display value="Parainfluenza virus 1 RNA [Presence] in Respiratory system specimen by NAA with probe detection"/>
               </coding>
               <text value="Parainfluenza virus 1 RNA [Presence] in Respiratory system specimen by NAA with probe detection"/>
            </code>
            <subject>
               <reference value="urn:uuid:5176a3ef-e71f-4683-833a-a3d8184d1958"/>
            </subject>
            <effectiveDateTime value="2024-11-18"/>
            <performer>
               <display value="The Central European Lab"/>
            </performer>
            <valueCodeableConcept>
               <coding>
                  <system value="http://snomed.info/sct"/>
                  <code value="260385009"/>
                  <display value="Negative"/>
               </coding>
            </valueCodeableConcept>
            <specimen>
               <reference value="urn:uuid:7d2413f6-4856-44b9-a4e3-540560cd5970"/>
            </specimen>
         </Observation>
      </resource>
   </entry>
   <entry>
      <fullUrl value="urn:uuid:d1b54704-f970-48f8-917e-55778a30f760"/>
      <resource>
         <Observation>
            <id value="d1b54704-f970-48f8-917e-55778a30f760"/>
            <meta>
               <profile value="http://hl7.eu/fhir/laboratory/StructureDefinition/Observation-resultslab-eu-lab"/>
            </meta>
            <status value="final"/>
            <category>
               <coding>
                  <system value="http://terminology.hl7.org/CodeSystem/observation-category"/>
                  <code value="laboratory"/>
               </coding>
            </category>
            <code>
               <coding>
                  <system value="http://loinc.org"/>
                  <code value="92139-5"/>
                  <display value="Parainfluenza virus 2 RNA [Presence] in Respiratory system specimen by NAA with probe detection"/>
               </coding>
               <text value="Parainfluenza virus 2 RNA [Presence] in Respiratory system specimen by NAA with probe detection"/>
            </code>
            <subject>
               <reference value="urn:uuid:5176a3ef-e71f-4683-833a-a3d8184d1958"/>
            </subject>
            <effectiveDateTime value="2024-11-18"/>
            <performer>
               <display value="The Central European Lab"/>
            </performer>
            <valueCodeableConcept>
               <coding>
                  <system value="http://snomed.info/sct"/>
                  <code value="260385009"/>
                  <display value="Negative"/>
               </coding>
            </valueCodeableConcept>
            <specimen>
               <reference value="urn:uuid:7d2413f6-4856-44b9-a4e3-540560cd5970"/>
            </specimen>
         </Observation>
      </resource>
   </entry>
   <entry>
      <fullUrl value="urn:uuid:96c1afb2-8e8f-4d54-a504-76f200461da5"/>
      <resource>
         <Observation>
            <id value="96c1afb2-8e8f-4d54-a504-76f200461da5"/>
            <meta>
               <profile value="http://hl7.eu/fhir/laboratory/StructureDefinition/Observation-resultslab-eu-lab"/>
            </meta>
            <status value="final"/>
            <category>
               <coding>
                  <system value="http://terminology.hl7.org/CodeSystem/observation-category"/>
                  <code value="laboratory"/>
               </coding>
            </category>
            <code>
               <coding>
                  <system value="http://loinc.org"/>
                  <code value="92138-7"/>
                  <display value="Parainfluenza virus 3 RNA [Presence] in Respiratory system specimen by NAA with probe detection"/>
               </coding>
               <text value="Parainfluenza virus 3 RNA [Presence] in Respiratory system specimen by NAA with probe detection"/>
            </code>
            <subject>
               <reference value="urn:uuid:5176a3ef-e71f-4683-833a-a3d8184d1958"/>
            </subject>
            <effectiveDateTime value="2024-11-18"/>
            <performer>
               <display value="The Central European Lab"/>
            </performer>
            <valueCodeableConcept>
               <coding>
                  <system value="http://snomed.info/sct"/>
                  <code value="260385009"/>
                  <display value="Negative"/>
               </coding>
            </valueCodeableConcept>
            <specimen>
               <reference value="urn:uuid:7d2413f6-4856-44b9-a4e3-540560cd5970"/>
            </specimen>
         </Observation>
      </resource>
   </entry>
   <entry>
      <fullUrl value="urn:uuid:183c7209-4a27-45a3-aafd-020ebae27931"/>
      <resource>
         <Observation>
            <id value="183c7209-4a27-45a3-aafd-020ebae27931"/>
            <meta>
               <profile value="http://hl7.eu/fhir/laboratory/StructureDefinition/Observation-resultslab-eu-lab"/>
            </meta>
            <status value="final"/>
            <category>
               <coding>
                  <system value="http://terminology.hl7.org/CodeSystem/observation-category"/>
                  <code value="laboratory"/>
               </coding>
            </category>
            <code>
               <coding>
                  <system value="http://loinc.org"/>
                  <code value="92130-4"/>
                  <display value="Rhinovirus RNA [Presence] in Respiratory system specimen by NAA with probe detection"/>
               </coding>
               <text value="Rhinovirus RNA [Presence] in Respiratory system specimen by NAA with probe detection"/>
            </code>
            <subject>
               <reference value="urn:uuid:5176a3ef-e71f-4683-833a-a3d8184d1958"/>
            </subject>
            <effectiveDateTime value="2024-11-18"/>
            <performer>
               <display value="The Central European Lab"/>
            </performer>
            <valueCodeableConcept>
               <coding>
                  <system value="http://snomed.info/sct"/>
                  <code value="260385009"/>
                  <display value="Negative"/>
               </coding>
            </valueCodeableConcept>
            <specimen>
               <reference value="urn:uuid:7d2413f6-4856-44b9-a4e3-540560cd5970"/>
            </specimen>
         </Observation>
      </resource>
   </entry>
   <entry>
      <fullUrl value="urn:uuid:3736c593-18b0-4b7b-b397-4415df95aa87"/>
      <resource>
         <Observation>
            <id value="3736c593-18b0-4b7b-b397-4415df95aa87"/>
            <meta>
               <profile value="http://hl7.eu/fhir/laboratory/StructureDefinition/Observation-resultslab-eu-lab"/>
            </meta>
            <status value="final"/>
            <category>
               <coding>
                  <system value="http://terminology.hl7.org/CodeSystem/observation-category"/>
                  <code value="laboratory"/>
               </coding>
            </category>
            <code>
               <coding>
                  <system value="http://loinc.org"/>
                  <code value="92134-6"/>
                  <display value="Human metapneumovirus RNA [Presence] in Respiratory system specimen by NAA with probe detection"/>
               </coding>
               <text value="Human metapneumovirus RNA [Presence] in Respiratory system specimen by NAA with probe detection"/>
            </code>
            <subject>
               <reference value="urn:uuid:5176a3ef-e71f-4683-833a-a3d8184d1958"/>
            </subject>
            <effectiveDateTime value="2024-11-18"/>
            <performer>
               <display value="The Central European Lab"/>
            </performer>
            <valueCodeableConcept>
               <coding>
                  <system value="http://snomed.info/sct"/>
                  <code value="260385009"/>
                  <display value="Negative"/>
               </coding>
            </valueCodeableConcept>
            <specimen>
               <reference value="urn:uuid:7d2413f6-4856-44b9-a4e3-540560cd5970"/>
            </specimen>
         </Observation>
      </resource>
   </entry>
   <entry>
      <fullUrl value="urn:uuid:b2185878-0194-44b2-ba0b-1f30d7f20565"/>
      <resource>
         <Observation>
            <id value="b2185878-0194-44b2-ba0b-1f30d7f20565"/>
            <meta>
               <profile value="http://hl7.eu/fhir/laboratory/StructureDefinition/Observation-resultslab-eu-lab"/>
            </meta>
            <status value="final"/>
            <category>
               <coding>
                  <system value="http://terminology.hl7.org/CodeSystem/observation-category"/>
                  <code value="laboratory"/>
               </coding>
            </category>
            <code>
               <coding>
                  <system value="http://loinc.org"/>
                  <code value="94040-3"/>
                  <display value="Adenovirus A+B+C+D+E DNA [Presence] in Respiratory system specimen by NAA with probe detection"/>
               </coding>
               <text value="Adenovirus A+B+C+D+E DNA [Presence] in Respiratory system specimen by NAA with probe detection"/>
            </code>
            <subject>
               <reference value="urn:uuid:5176a3ef-e71f-4683-833a-a3d8184d1958"/>
            </subject>
            <effectiveDateTime value="2024-11-18"/>
            <performer>
               <display value="The Central European Lab"/>
            </performer>
            <valueCodeableConcept>
               <coding>
                  <system value="http://snomed.info/sct"/>
                  <code value="260385009"/>
                  <display value="Negative"/>
               </coding>
            </valueCodeableConcept>
            <specimen>
               <reference value="urn:uuid:7d2413f6-4856-44b9-a4e3-540560cd5970"/>
            </specimen>
         </Observation>
      </resource>
   </entry>
   <entry>
      <fullUrl value="urn:uuid:7ddf8a5d-1698-456b-822a-3b890b4a55fb"/>
      <resource>
         <Observation>
            <id value="7ddf8a5d-1698-456b-822a-3b890b4a55fb"/>
            <meta>
               <profile value="http://hl7.eu/fhir/laboratory/StructureDefinition/Observation-resultslab-eu-lab"/>
            </meta>
            <status value="final"/>
            <category>
               <coding>
                  <system value="http://terminology.hl7.org/CodeSystem/observation-category"/>
                  <code value="laboratory"/>
               </coding>
            </category>
            <code>
               <coding>
                  <system value="http://loinc.org"/>
                  <code value="94531-1"/>
                  <display value="SARS-CoV-2 (COVID-19) RNA panel - Respiratory system specimen by NAA with probe detection"/>
               </coding>
               <text value="SARS-CoV-2 (COVID-19) RNA panel - Respiratory system specimen by NAA with probe detection"/>
            </code>
            <subject>
               <reference value="urn:uuid:5176a3ef-e71f-4683-833a-a3d8184d1958"/>
            </subject>
            <effectiveDateTime value="2024-11-18"/>
            <performer>
               <display value="The Central European Lab"/>
            </performer>
            <valueCodeableConcept>
               <coding>
                  <system value="http://snomed.info/sct"/>
                  <code value="260373001"/>
                  <display value="Detected"/>
               </coding>
            </valueCodeableConcept>
            <specimen>
               <reference value="urn:uuid:7d2413f6-4856-44b9-a4e3-540560cd5970"/>
            </specimen>
         </Observation>
      </resource>
   </entry>
</Bundle>
