{
  "resourceType": "Bundle",
  "id": "Instance-Bundle-61862f10-0014-489e-a020-8b43a7ea4294",
  "meta": {
    "profile": [
      "http://hl7.eu/fhir/laboratory/StructureDefinition/Bundle-eu-lab"
    ]
  },
  "identifier": {
    "assigner": {
      "display": "HL7 Europe"
    },
    "system": "urn:oid:2.16.840.1.113883.2.51.999",
    "value": "cec96bba-bad2-47ca-ac00-c2c9a081eacf"
  },
  "entry": [
    {
      "fullUrl": "urn:uuid:22444241-38ee-45ce-909a-989e17453e81",
      "resource": {
        "resourceType": "Composition",
        "id": "22444241-38ee-45ce-909a-989e17453e81",
        "meta": {
          "profile": [
            "http://hl7.eu/fhir/laboratory/StructureDefinition/Composition-eu-lab"
          ]
        },
        "identifier": {
          "assigner": {
            "display": "HL7 Europe"
          },
          "system": "urn:oid:2.16.840.1.113883.2.51.999",
          "value": "239216d9-8fc4-4611-b309-58f255566342"
        },
        "author": [
          {
            "reference": "urn:uuid:0aaef62d-9255-41ea-a567-02d026e0820f"
          }
        ],
        "category": [
          {
            "coding": [
              {
                "code": "26436-6",
                "system": "http://loinc.org",
                "display": "Laboratory studies (set)"
              }
            ]
          }
        ],
        "type": {
          "text": "Laboratory Report"
        },
        "section": [
          {
            "code": {
              "coding": [
                {
                  "code": "26436-6",
                  "system": "http://loinc.org",
                  "display": "Laboratory studies (set)"
                }
              ],
              "text": "Laboratory studies"
            },
            "section": [
              {
                "code": {
                  "coding": [
                    {
                      "code": "18719-5",
                      "system": "http://loinc.org",
                      "display": "Chemistry studies (set)"
                    }
                  ],
                  "text": "Chemistry"
                },
                "entry": [
                  {
                    "reference": "urn:uuid:188f649c-e812-4cf3-bb0d-9c4cdb46b8b4"
                  },
                  {
                    "reference": "urn:uuid:1645fba9-541f-4947-9577-0c564ad78c92"
                  },
                  {
                    "reference": "urn:uuid:44033258-669d-4883-b34e-1bf19219f797"
                  },
                  {
                    "reference": "urn:uuid:22bd6149-3d9d-46e6-9997-d5efc8be9cc9"
                  }
                ],
                "text": {
                  "status": "generated",
                  "div": "<div xmlns=\"http://www.w3.org/1999/xhtml\"><h3 id=\"section-1\">Chemistry</h3><table class=\"hl7__eu__lab__report\"><thead><tr><th>Test</th><th>18 Nov 2024</th><th>Reference Range</th><th>Unit</th></tr></thead><tbody><tr><td>Cholesterol [Mass/volume] in Serum or Plasma</td><td>177.5</td><td>125 - 200</td><td>mg/dL</td></tr><tr><td>Triglyceride [Mass/volume] in Serum or Plasma</td><td>106.1</td><td>0 - 150</td><td>mg/dL</td></tr><tr><td>Cholesterol in LDL [Mass/volume] in Serum or Plasma by Direct assay</td><td>78.5</td><td>0 - 130</td><td>mg/dL</td></tr><tr><td>Cholesterol in HDL [Mass/volume] in Serum or Plasma</td><td>77.8</td><td>40 - 100</td><td>mg/dL</td></tr></tbody></table></div>"
                },
                "title": "Chemistry"
              }
            ],
            "title": "Laboratory Report"
          }
        ],
        "status": "final",
        "subject": {
          "reference": "urn:uuid:aa3c2b7a-79f3-4963-9945-90a233209a28"
        },
        "date": "2024-11-19T18:40:09Z",
        "title": "Laboratory Report",
        "confidentiality": "N"
      }
    },
    {
      "fullUrl": "urn:uuid:d6d47e4c-66a7-41bb-81b7-3e14752792ed",
      "resource": {
        "resourceType": "DiagnosticReport",
        "id": "d6d47e4c-66a7-41bb-81b7-3e14752792ed",
        "meta": {
          "profile": [
            "http://hl7.eu/fhir/laboratory/StructureDefinition/DiagnosticReport-eu-lab"
          ]
        },
        "identifier": [
          {
            "assigner": {
              "display": "HL7 Europe"
            },
            "system": "urn:oid:2.16.840.1.113883.2.51.999",
            "value": "221ddc22-5844-4494-8424-abb882bcf01c"
          }
        ],
        "extension": [
          {
            "url": "http://hl7.org/fhir/5.0/StructureDefinition/extension-DiagnosticReport.composition",
            "valueReference": {
              "reference": "urn:uuid:22444241-38ee-45ce-909a-989e17453e81"
            }
          }
        ],
        "category": [
          {
            "coding": [
              {
                "code": "18719-5",
                "system": "http://loinc.org",
                "display": "Chemistry studies (set)"
              }
            ]
          }
        ],
        "specimen": [
          {
            "reference": "urn:uuid:3929e9a2-7693-4226-8c43-f76b35eb3e7d"
          }
        ],
        "result": [
          {
            "reference": "urn:uuid:188f649c-e812-4cf3-bb0d-9c4cdb46b8b4"
          },
          {
            "reference": "urn:uuid:1645fba9-541f-4947-9577-0c564ad78c92"
          },
          {
            "reference": "urn:uuid:44033258-669d-4883-b34e-1bf19219f797"
          },
          {
            "reference": "urn:uuid:22bd6149-3d9d-46e6-9997-d5efc8be9cc9"
          }
        ],
        "status": "registered",
        "code": {
          "coding": [
            {
              "code": "11502-2",
              "system": "http://loinc.org",
              "display": "Laboratory report"
            }
          ]
        },
        "subject": {
          "reference": "urn:uuid:aa3c2b7a-79f3-4963-9945-90a233209a28"
        }
      }
    },
    {
      "fullUrl": "urn:uuid:aa3c2b7a-79f3-4963-9945-90a233209a28",
      "resource": {
        "resourceType": "Patient",
        "id": "aa3c2b7a-79f3-4963-9945-90a233209a28",
        "meta": {
          "profile": [
            "http://hl7.eu/fhir/laboratory/StructureDefinition/Patient-eu-lab"
          ]
        },
        "identifier": [
          {
            "type": {
              "coding": [
                {
                  "code": "NI",
                  "system": "http://terminology.hl7.org/CodeSystem/v2-0203"
                }
              ]
            },
            "system": "http://ec.europa.eu/identifier/eci",
            "value": "3966-623769-6"
          },
          {
            "type": {
              "coding": [
                {
                  "code": "MR",
                  "system": "http://terminology.hl7.org/CodeSystem/v2-0203"
                }
              ]
            },
            "system": "http://local.setting.eu/identifier",
            "value": "95ebe88d-3d2d-4b00-88e5-0f8f36028238"
          }
        ],
        "name": [
          {
            "given": [
              "Ludwig"
            ],
            "family": "Nyman",
            "text": "Ludwig Nyman"
          }
        ],
        "address": [
          {
            "line": [
              "Verdandi Gr채nd 99"
            ],
            "use": "home",
            "type": "physical",
            "city": "Borgafj채ll",
            "postalCode": "910 77",
            "country": "Sweden"
          }
        ],
        "telecom": [
          {
            "system": "phone",
            "value": "+46 0942-7107438"
          }
        ],
        "gender": "male",
        "birthDate": "1950-03-02"
      }
    },
    {
      "fullUrl": "urn:uuid:83494006-7276-431c-8ade-bb80e27bdbf9",
      "resource": {
        "resourceType": "ServiceRequest",
        "id": "83494006-7276-431c-8ade-bb80e27bdbf9",
        "meta": {
          "profile": [
            "http://hl7.eu/fhir/laboratory/StructureDefinition/ServiceRequest-eu-lab"
          ]
        },
        "identifier": [
          {
            "system": "http://example.org",
            "value": "1ec892a6-f812-45ae-a05b-4f385e93cb4f"
          }
        ],
        "specimen": [
          {
            "reference": "urn:uuid:3929e9a2-7693-4226-8c43-f76b35eb3e7d"
          }
        ],
        "status": "active",
        "intent": "order",
        "code": {
          "coding": [
            {
              "code": "108252007",
              "system": "http://snomed.info/sct",
              "display": "Laboratory procedure"
            }
          ]
        },
        "subject": {
          "reference": "urn:uuid:aa3c2b7a-79f3-4963-9945-90a233209a28"
        },
        "requester": {
          "reference": "urn:uuid:ede58ae9-c2b1-4f1c-b3b7-b6d44e4db415"
        }
      }
    },
    {
      "fullUrl": "urn:uuid:ede58ae9-c2b1-4f1c-b3b7-b6d44e4db415",
      "resource": {
        "resourceType": "PractitionerRole",
        "id": "ede58ae9-c2b1-4f1c-b3b7-b6d44e4db415",
        "meta": {
          "profile": [
            "http://hl7.eu/fhir/laboratory/StructureDefinition/PractitionerRole-eu-lab"
          ]
        },
        "organization": {
          "reference": "urn:uuid:b629a176-b66a-4089-aba1-296ad7698d54"
        }
      }
    },
    {
      "fullUrl": "urn:uuid:b629a176-b66a-4089-aba1-296ad7698d54",
      "resource": {
        "resourceType": "Organization",
        "id": "b629a176-b66a-4089-aba1-296ad7698d54",
        "meta": {
          "profile": [
            "http://hl7.org/fhir/uv/ips/StructureDefinition/Organization-uv-ips"
          ]
        },
        "identifier": [
          {
            "assigner": {
              "display": "HL7 Europe"
            },
            "system": "urn:oid:2.16.840.1.113883.2.51.999",
            "value": "55c5e75a-5ff1-464f-8b62-6e9d243326bb"
          }
        ],
        "address": [
          {
            "city": "Alings책s",
            "postalCode": "441 30",
            "country": "se"
          }
        ],
        "name": "Alings책s lasarett"
      }
    },
    {
      "fullUrl": "urn:uuid:0aaef62d-9255-41ea-a567-02d026e0820f",
      "resource": {
        "resourceType": "PractitionerRole",
        "id": "0aaef62d-9255-41ea-a567-02d026e0820f",
        "meta": {
          "profile": [
            "http://hl7.eu/fhir/laboratory/StructureDefinition/PractitionerRole-eu-lab"
          ]
        },
        "practitioner": {
          "reference": "urn:uuid:92074ba1-1f99-420f-9e28-ac3a61a546f7"
        }
      }
    },
    {
      "fullUrl": "urn:uuid:92074ba1-1f99-420f-9e28-ac3a61a546f7",
      "resource": {
        "resourceType": "Practitioner",
        "id": "92074ba1-1f99-420f-9e28-ac3a61a546f7",
        "meta": {
          "profile": [
            "http://hl7.eu/fhir/laboratory/StructureDefinition/Practitioner-eu-lab"
          ]
        },
        "identifier": [
          {
            "assigner": {
              "display": "HL7 Europe"
            },
            "system": "urn:oid:2.16.840.1.113883.2.51.999",
            "value": "370033ef-bd24-44e6-be90-8b75bf72f4de"
          }
        ],
        "name": [
          {
            "prefix": [
              "dr"
            ],
            "given": [
              "Ex"
            ],
            "family": "Ample"
          }
        ],
        "address": [
          {
            "line": [
              "Boulevard du Jardin Botanique 32"
            ],
            "city": "Brussels",
            "postalCode": "1000"
          }
        ]
      }
    },
    {
      "fullUrl": "urn:uuid:3929e9a2-7693-4226-8c43-f76b35eb3e7d",
      "resource": {
        "resourceType": "Specimen",
        "id": "3929e9a2-7693-4226-8c43-f76b35eb3e7d",
        "meta": {
          "profile": [
            "http://hl7.eu/fhir/laboratory/StructureDefinition/Specimen-eu-lab"
          ]
        },
        "collection": {
          "collectedDateTime": "2024-11-18"
        },
        "status": "available",
        "type": {
          "coding": [
            {
              "code": "122592007",
              "system": "http://snomed.info/sct",
              "display": "Acellular blood (serum or plasma) specimen (specimen)"
            }
          ]
        }
      }
    },
    {
      "fullUrl": "urn:uuid:188f649c-e812-4cf3-bb0d-9c4cdb46b8b4",
      "resource": {
        "resourceType": "Observation",
        "id": "188f649c-e812-4cf3-bb0d-9c4cdb46b8b4",
        "meta": {
          "profile": [
            "http://hl7.eu/fhir/laboratory/StructureDefinition/Observation-resultslab-eu-lab"
          ]
        },
        "performer": [
          {
            "display": "The Central European Lab"
          }
        ],
        "category": [
          {
            "coding": [
              {
                "code": "laboratory",
                "system": "http://terminology.hl7.org/CodeSystem/observation-category"
              }
            ]
          }
        ],
        "code": {
          "coding": [
            {
              "code": "2093-3",
              "system": "http://loinc.org",
              "display": "Cholesterol [Mass/volume] in Serum or Plasma"
            }
          ],
          "text": "Cholesterol [Mass/volume] in Serum or Plasma"
        },
        "valueQuantity": {
          "system": "http://unitsofmeasure.org",
          "value": 177.5,
          "unit": "mg/dL",
          "code": "mg/dL"
        },
        "referenceRange": [
          {
            "low": {
              "value": 125,
              "code": "mg/dL",
              "system": "http://unitsofmeasure.org"
            }
          },
          {
            "high": {
              "value": 200,
              "code": "mg/dL",
              "system": "http://unitsofmeasure.org"
            }
          }
        ],
        "status": "final",
        "subject": {
          "reference": "urn:uuid:aa3c2b7a-79f3-4963-9945-90a233209a28"
        },
        "effectiveDateTime": "2024-11-18",
        "specimen": {
          "reference": "urn:uuid:3929e9a2-7693-4226-8c43-f76b35eb3e7d"
        }
      }
    },
    {
      "fullUrl": "urn:uuid:1645fba9-541f-4947-9577-0c564ad78c92",
      "resource": {
        "resourceType": "Observation",
        "id": "1645fba9-541f-4947-9577-0c564ad78c92",
        "meta": {
          "profile": [
            "http://hl7.eu/fhir/laboratory/StructureDefinition/Observation-resultslab-eu-lab"
          ]
        },
        "performer": [
          {
            "display": "The Central European Lab"
          }
        ],
        "category": [
          {
            "coding": [
              {
                "code": "laboratory",
                "system": "http://terminology.hl7.org/CodeSystem/observation-category"
              }
            ]
          }
        ],
        "code": {
          "coding": [
            {
              "code": "2571-8",
              "system": "http://loinc.org",
              "display": "Triglyceride [Mass/volume] in Serum or Plasma"
            }
          ],
          "text": "Triglyceride [Mass/volume] in Serum or Plasma"
        },
        "valueQuantity": {
          "system": "http://unitsofmeasure.org",
          "value": 106.1,
          "unit": "mg/dL",
          "code": "mg/dL"
        },
        "referenceRange": [
          {
            "low": {
              "value": 0,
              "code": "mg/dL",
              "system": "http://unitsofmeasure.org"
            }
          },
          {
            "high": {
              "value": 150,
              "code": "mg/dL",
              "system": "http://unitsofmeasure.org"
            }
          }
        ],
        "status": "final",
        "subject": {
          "reference": "urn:uuid:aa3c2b7a-79f3-4963-9945-90a233209a28"
        },
        "effectiveDateTime": "2024-11-18",
        "specimen": {
          "reference": "urn:uuid:3929e9a2-7693-4226-8c43-f76b35eb3e7d"
        }
      }
    },
    {
      "fullUrl": "urn:uuid:44033258-669d-4883-b34e-1bf19219f797",
      "resource": {
        "resourceType": "Observation",
        "id": "44033258-669d-4883-b34e-1bf19219f797",
        "meta": {
          "profile": [
            "http://hl7.eu/fhir/laboratory/StructureDefinition/Observation-resultslab-eu-lab"
          ]
        },
        "performer": [
          {
            "display": "The Central European Lab"
          }
        ],
        "category": [
          {
            "coding": [
              {
                "code": "laboratory",
                "system": "http://terminology.hl7.org/CodeSystem/observation-category"
              }
            ]
          }
        ],
        "code": {
          "coding": [
            {
              "code": "18262-6",
              "system": "http://loinc.org",
              "display": "Cholesterol in LDL [Mass/volume] in Serum or Plasma by Direct assay"
            }
          ],
          "text": "Cholesterol in LDL [Mass/volume] in Serum or Plasma by Direct assay"
        },
        "valueQuantity": {
          "system": "http://unitsofmeasure.org",
          "value": 78.5,
          "unit": "mg/dL",
          "code": "mg/dL"
        },
        "referenceRange": [
          {
            "low": {
              "value": 0,
              "code": "mg/dL",
              "system": "http://unitsofmeasure.org"
            }
          },
          {
            "high": {
              "value": 130,
              "code": "mg/dL",
              "system": "http://unitsofmeasure.org"
            }
          }
        ],
        "status": "final",
        "subject": {
          "reference": "urn:uuid:aa3c2b7a-79f3-4963-9945-90a233209a28"
        },
        "effectiveDateTime": "2024-11-18",
        "specimen": {
          "reference": "urn:uuid:3929e9a2-7693-4226-8c43-f76b35eb3e7d"
        }
      }
    },
    {
      "fullUrl": "urn:uuid:22bd6149-3d9d-46e6-9997-d5efc8be9cc9",
      "resource": {
        "resourceType": "Observation",
        "id": "22bd6149-3d9d-46e6-9997-d5efc8be9cc9",
        "meta": {
          "profile": [
            "http://hl7.eu/fhir/laboratory/StructureDefinition/Observation-resultslab-eu-lab"
          ]
        },
        "performer": [
          {
            "display": "The Central European Lab"
          }
        ],
        "category": [
          {
            "coding": [
              {
                "code": "laboratory",
                "system": "http://terminology.hl7.org/CodeSystem/observation-category"
              }
            ]
          }
        ],
        "code": {
          "coding": [
            {
              "code": "2085-9",
              "system": "http://loinc.org",
              "display": "Cholesterol in HDL [Mass/volume] in Serum or Plasma"
            }
          ],
          "text": "Cholesterol in HDL [Mass/volume] in Serum or Plasma"
        },
        "valueQuantity": {
          "system": "http://unitsofmeasure.org",
          "value": 77.8,
          "unit": "mg/dL",
          "code": "mg/dL"
        },
        "referenceRange": [
          {
            "low": {
              "value": 40,
              "code": "mg/dL",
              "system": "http://unitsofmeasure.org"
            }
          },
          {
            "high": {
              "value": 100,
              "code": "mg/dL",
              "system": "http://unitsofmeasure.org"
            }
          }
        ],
        "status": "final",
        "subject": {
          "reference": "urn:uuid:aa3c2b7a-79f3-4963-9945-90a233209a28"
        },
        "effectiveDateTime": "2024-11-18",
        "specimen": {
          "reference": "urn:uuid:3929e9a2-7693-4226-8c43-f76b35eb3e7d"
        }
      }
    }
  ],
  "type": "document",
  "timestamp": "2024-11-19T18:40:09Z"
}
