<Bundle xmlns="http://hl7.org/fhir">
   <id value="Instance-Bundle-b0c6a8a7-220f-49f1-816b-75a01c710092"/>
   <meta>
      <profile value="http://hl7.eu/fhir/laboratory/StructureDefinition/Bundle-eu-lab"/>
   </meta>
   <identifier>
      <system value="urn:oid:2.16.840.1.113883.2.51.999"/>
      <value value="a31c9c05-4389-4150-8b4b-0d6b162b1194"/>
      <assigner>
         <display value="HL7 Europe"/>
      </assigner>
   </identifier>
   <type value="document"/>
   <timestamp value="2024-11-19T18:40:44Z"/>
   <entry>
      <fullUrl value="urn:uuid:27da1853-08b9-4151-a3ee-df4f6a383fe9"/>
      <resource>
         <Composition>
            <id value="27da1853-08b9-4151-a3ee-df4f6a383fe9"/>
            <meta>
               <profile value="http://hl7.eu/fhir/laboratory/StructureDefinition/Composition-eu-lab"/>
            </meta>
            <identifier>
               <system value="urn:oid:2.16.840.1.113883.2.51.999"/>
               <value value="0bb1963b-da5b-4ecd-8555-5fbc41a474c6"/>
               <assigner>
                  <display value="HL7 Europe"/>
               </assigner>
            </identifier>
            <status value="final"/>
            <type>
               <text value="Laboratory Report"/>
            </type>
            <category>
               <coding>
                  <system value="http://loinc.org"/>
                  <code value="26436-6"/>
                  <display value="Laboratory studies (set)"/>
               </coding>
            </category>
            <subject>
               <reference value="urn:uuid:95473641-3115-4d9f-a945-68f6c6738da2"/>
            </subject>
            <date value="2024-11-19T18:40:44Z"/>
            <author>
               <reference value="urn:uuid:b1dd5754-3044-4167-a65f-556c4033cb9c"/>
            </author>
            <title value="Laboratory Report"/>
            <confidentiality value="N"/>
            <section>
               <title value="Laboratory Report"/>
               <code>
                  <coding>
                     <system value="http://loinc.org"/>
                     <code value="26436-6"/>
                     <display value="Laboratory studies (set)"/>
                  </coding>
                  <text value="Laboratory studies"/>
               </code>
               <section>
                  <title value="Chemistry"/>
                  <code>
                     <coding>
                        <system value="http://loinc.org"/>
                        <code value="18719-5"/>
                        <display value="Chemistry studies (set)"/>
                     </coding>
                     <text value="Chemistry"/>
                  </code>
                  <text>
                     <status value="generated"/>
                     <div xmlns="http://www.w3.org/1999/xhtml">
                        <h3 id="section-1">Chemistry</h3>
                        <table class="hl7__eu__lab__report">
                           <thead>
                              <tr>
                                 <th>Test</th>
                                 <th>18 Nov 2024</th>
                                 <th>Reference Range</th>
                                 <th>Unit</th>
                              </tr>
                           </thead>
                           <tbody>
                              <tr>
                                 <td>Oxygen saturation in Arterial blood</td>
                                 <td>
                                    <strong>78.9 L</strong>
                                 </td>
                                 <td>95 - 100</td>
                                 <td>%</td>
                              </tr>
                           </tbody>
                        </table>
                     </div>
                  </text>
                  <entry>
                     <reference value="urn:uuid:2e5dbf30-b930-4974-b3ae-2b8ad1a96f2f"/>
                  </entry>
               </section>
               <section>
                  <title value="Microbiology"/>
                  <code>
                     <coding>
                        <system value="http://loinc.org"/>
                        <code value="18725-2"/>
                        <display value="Microbiology studies"/>
                     </coding>
                     <text value="Microbiology"/>
                  </code>
                  <text>
                     <status value="generated"/>
                     <div xmlns="http://www.w3.org/1999/xhtml">
                        <h3 id="section-2">Microbiology</h3>
                        <table class="hl7__eu__lab__report">
                           <thead>
                              <tr>
                                 <th>Test</th>
                                 <th>18 Nov 2024</th>
                                 <th>Reference Range</th>
                                 <th>Unit</th>
                              </tr>
                           </thead>
                           <tbody>
                              <tr>
                                 <td>Influenza virus A RNA [Presence] in Respiratory system specimen by NAA with probe detection</td>
                                 <td>Negative</td>
                                 <td/>
                                 <td/>
                              </tr>
                              <tr>
                                 <td>Influenza virus B RNA [Presence] in Respiratory system specimen by NAA with probe detection</td>
                                 <td>Negative</td>
                                 <td/>
                                 <td/>
                              </tr>
                              <tr>
                                 <td>Respiratory syncytial virus RNA [Presence] in Respiratory system specimen by NAA with probe detection</td>
                                 <td>Negative</td>
                                 <td/>
                                 <td/>
                              </tr>
                              <tr>
                                 <td>Parainfluenza virus 1 RNA [Presence] in Respiratory system specimen by NAA with probe detection</td>
                                 <td>Negative</td>
                                 <td/>
                                 <td/>
                              </tr>
                              <tr>
                                 <td>Parainfluenza virus 2 RNA [Presence] in Respiratory system specimen by NAA with probe detection</td>
                                 <td>Negative</td>
                                 <td/>
                                 <td/>
                              </tr>
                              <tr>
                                 <td>Parainfluenza virus 3 RNA [Presence] in Respiratory system specimen by NAA with probe detection</td>
                                 <td>Negative</td>
                                 <td/>
                                 <td/>
                              </tr>
                              <tr>
                                 <td>Rhinovirus RNA [Presence] in Respiratory system specimen by NAA with probe detection</td>
                                 <td>Negative</td>
                                 <td/>
                                 <td/>
                              </tr>
                              <tr>
                                 <td>Human metapneumovirus RNA [Presence] in Respiratory system specimen by NAA with probe detection</td>
                                 <td>Negative</td>
                                 <td/>
                                 <td/>
                              </tr>
                              <tr>
                                 <td>Adenovirus A+B+C+D+E DNA [Presence] in Respiratory system specimen by NAA with probe detection</td>
                                 <td>Negative</td>
                                 <td/>
                                 <td/>
                              </tr>
                           </tbody>
                        </table>
                     </div>
                  </text>
                  <entry>
                     <reference value="urn:uuid:8d8e84b3-8a2a-4ba3-9e09-4d42a4779e9c"/>
                  </entry>
                  <entry>
                     <reference value="urn:uuid:e7946f39-c2c9-49c3-b07e-5776624557d1"/>
                  </entry>
                  <entry>
                     <reference value="urn:uuid:0d226c37-0e0e-4c13-a81d-703a899ea731"/>
                  </entry>
                  <entry>
                     <reference value="urn:uuid:f220940a-cf77-4b19-8ba3-f150be974a2b"/>
                  </entry>
                  <entry>
                     <reference value="urn:uuid:37c53dae-f782-4549-ac3b-a7740d43ca1d"/>
                  </entry>
                  <entry>
                     <reference value="urn:uuid:9354d862-9a14-4572-875a-9e86c0eace5e"/>
                  </entry>
                  <entry>
                     <reference value="urn:uuid:b62dfadd-5549-4208-97bd-828fe3435fca"/>
                  </entry>
                  <entry>
                     <reference value="urn:uuid:52a0a43d-4da6-4184-8068-9ffa9b600a06"/>
                  </entry>
                  <entry>
                     <reference value="urn:uuid:a974f65c-56c7-4827-9cbb-4a8d1e460d9b"/>
                  </entry>
               </section>
               <section>
                  <title value="Microbiology Panel"/>
                  <code>
                     <coding>
                        <system value="http://loinc.org"/>
                        <code value="18725-2"/>
                        <display value="Microbiology studies"/>
                     </coding>
                     <text value="Microbiology Panel"/>
                  </code>
                  <text>
                     <status value="generated"/>
                     <div xmlns="http://www.w3.org/1999/xhtml">
                        <h3 id="section-3">Microbiology Panel</h3>
                        <table class="hl7__eu__lab__report">
                           <thead>
                              <tr>
                                 <th>Test</th>
                                 <th>18 Nov 2024</th>
                                 <th>Reference Range</th>
                                 <th>Unit</th>
                              </tr>
                           </thead>
                           <tbody>
                              <tr>
                                 <td>SARS-CoV-2 (COVID-19) RNA panel - Respiratory system specimen by NAA with probe detection</td>
                                 <td>Detected</td>
                                 <td/>
                                 <td/>
                              </tr>
                           </tbody>
                        </table>
                     </div>
                  </text>
                  <entry>
                     <reference value="urn:uuid:51c7e3ce-f8a9-4c5e-bd45-e84beff4da05"/>
                  </entry>
               </section>
            </section>
         </Composition>
      </resource>
   </entry>
   <entry>
      <fullUrl value="urn:uuid:467ece33-b5fd-49e7-99d1-c4e52623fda6"/>
      <resource>
         <DiagnosticReport>
            <id value="467ece33-b5fd-49e7-99d1-c4e52623fda6"/>
            <meta>
               <profile value="http://hl7.eu/fhir/laboratory/StructureDefinition/DiagnosticReport-eu-lab"/>
            </meta>
            <extension url="http://hl7.org/fhir/5.0/StructureDefinition/extension-DiagnosticReport.composition">
               <valueReference>
                  <reference value="urn:uuid:27da1853-08b9-4151-a3ee-df4f6a383fe9"/>
               </valueReference>
            </extension>
            <identifier>
               <system value="urn:oid:2.16.840.1.113883.2.51.999"/>
               <value value="e4f061ca-8994-4967-b09d-71e668cd87d8"/>
               <assigner>
                  <display value="HL7 Europe"/>
               </assigner>
            </identifier>
            <status value="registered"/>
            <category>
               <coding>
                  <system value="http://loinc.org"/>
                  <code value="18719-5"/>
                  <display value="Chemistry studies (set)"/>
               </coding>
            </category>
            <code>
               <coding>
                  <system value="http://loinc.org"/>
                  <code value="11502-2"/>
                  <display value="Laboratory report"/>
               </coding>
            </code>
            <subject>
               <reference value="urn:uuid:95473641-3115-4d9f-a945-68f6c6738da2"/>
            </subject>
            <specimen>
               <reference value="urn:uuid:eafbdc4c-0ebe-418d-99d7-e1f5b1e1f467"/>
            </specimen>
            <specimen>
               <reference value="urn:uuid:41d3d97a-9660-48a0-92bb-1750948f679e"/>
            </specimen>
            <result>
               <reference value="urn:uuid:2e5dbf30-b930-4974-b3ae-2b8ad1a96f2f"/>
            </result>
            <result>
               <reference value="urn:uuid:8d8e84b3-8a2a-4ba3-9e09-4d42a4779e9c"/>
            </result>
            <result>
               <reference value="urn:uuid:e7946f39-c2c9-49c3-b07e-5776624557d1"/>
            </result>
            <result>
               <reference value="urn:uuid:0d226c37-0e0e-4c13-a81d-703a899ea731"/>
            </result>
            <result>
               <reference value="urn:uuid:f220940a-cf77-4b19-8ba3-f150be974a2b"/>
            </result>
            <result>
               <reference value="urn:uuid:37c53dae-f782-4549-ac3b-a7740d43ca1d"/>
            </result>
            <result>
               <reference value="urn:uuid:9354d862-9a14-4572-875a-9e86c0eace5e"/>
            </result>
            <result>
               <reference value="urn:uuid:b62dfadd-5549-4208-97bd-828fe3435fca"/>
            </result>
            <result>
               <reference value="urn:uuid:52a0a43d-4da6-4184-8068-9ffa9b600a06"/>
            </result>
            <result>
               <reference value="urn:uuid:a974f65c-56c7-4827-9cbb-4a8d1e460d9b"/>
            </result>
            <result>
               <reference value="urn:uuid:51c7e3ce-f8a9-4c5e-bd45-e84beff4da05"/>
            </result>
         </DiagnosticReport>
      </resource>
   </entry>
   <entry>
      <fullUrl value="urn:uuid:95473641-3115-4d9f-a945-68f6c6738da2"/>
      <resource>
         <Patient>
            <id value="95473641-3115-4d9f-a945-68f6c6738da2"/>
            <meta>
               <profile value="http://hl7.eu/fhir/laboratory/StructureDefinition/Patient-eu-lab"/>
            </meta>
            <identifier>
               <type>
                  <coding>
                     <system value="http://terminology.hl7.org/CodeSystem/v2-0203"/>
                     <code value="NI"/>
                  </coding>
               </type>
               <system value="http://ec.europa.eu/identifier/eci"/>
               <value value="3887-154998-6"/>
            </identifier>
            <identifier>
               <type>
                  <coding>
                     <system value="http://terminology.hl7.org/CodeSystem/v2-0203"/>
                     <code value="MR"/>
                  </coding>
               </type>
               <system value="http://local.setting.eu/identifier"/>
               <value value="990b3888-55b1-4af3-bbca-10ce54fdc1b3"/>
            </identifier>
            <name>
               <text value="Bratumił Sawicki"/>
               <family value="Sawicki"/>
               <given value="Bratumił"/>
            </name>
            <telecom>
               <system value="phone"/>
               <value value="+48 66 169 79 78"/>
            </telecom>
            <gender value="male"/>
            <birthDate value="2002-05-11"/>
            <address>
               <use value="home"/>
               <type value="physical"/>
               <line value="ul. Kozia 63"/>
               <city value="Warszawa/Wesoła"/>
               <postalCode value="05-075"/>
               <country value="Poland"/>
            </address>
         </Patient>
      </resource>
   </entry>
   <entry>
      <fullUrl value="urn:uuid:bd13828d-80f8-4551-9204-1bbe5ff79ec8"/>
      <resource>
         <ServiceRequest>
            <id value="bd13828d-80f8-4551-9204-1bbe5ff79ec8"/>
            <meta>
               <profile value="http://hl7.eu/fhir/laboratory/StructureDefinition/ServiceRequest-eu-lab"/>
            </meta>
            <identifier>
               <system value="http://example.org"/>
               <value value="04cef228-a686-4b7c-8816-cccc52d286a9"/>
            </identifier>
            <status value="active"/>
            <intent value="order"/>
            <code>
               <coding>
                  <system value="http://snomed.info/sct"/>
                  <code value="108252007"/>
                  <display value="Laboratory procedure"/>
               </coding>
            </code>
            <subject>
               <reference value="urn:uuid:95473641-3115-4d9f-a945-68f6c6738da2"/>
            </subject>
            <requester>
               <reference value="urn:uuid:a1ebfcb1-4945-4d50-b8a2-778dbc55a664"/>
            </requester>
            <specimen>
               <reference value="urn:uuid:eafbdc4c-0ebe-418d-99d7-e1f5b1e1f467"/>
            </specimen>
            <specimen>
               <reference value="urn:uuid:41d3d97a-9660-48a0-92bb-1750948f679e"/>
            </specimen>
         </ServiceRequest>
      </resource>
   </entry>
   <entry>
      <fullUrl value="urn:uuid:a1ebfcb1-4945-4d50-b8a2-778dbc55a664"/>
      <resource>
         <PractitionerRole>
            <id value="a1ebfcb1-4945-4d50-b8a2-778dbc55a664"/>
            <meta>
               <profile value="http://hl7.eu/fhir/laboratory/StructureDefinition/PractitionerRole-eu-lab"/>
            </meta>
            <organization>
               <reference value="urn:uuid:776eb766-17e3-4b85-9a07-d1e077c7fae5"/>
            </organization>
         </PractitionerRole>
      </resource>
   </entry>
   <entry>
      <fullUrl value="urn:uuid:776eb766-17e3-4b85-9a07-d1e077c7fae5"/>
      <resource>
         <Organization>
            <id value="776eb766-17e3-4b85-9a07-d1e077c7fae5"/>
            <meta>
               <profile value="http://hl7.org/fhir/uv/ips/StructureDefinition/Organization-uv-ips"/>
            </meta>
            <identifier>
               <system value="urn:oid:2.16.840.1.113883.2.51.999"/>
               <value value="ffaf8f0b-a635-46fc-9fdb-899ab0277c00"/>
               <assigner>
                  <display value="HL7 Europe"/>
               </assigner>
            </identifier>
            <name value="Instytut Psychiatrii i Neurologii"/>
            <address>
               <city value="Warszawa"/>
               <postalCode value="02-758"/>
               <country value="pl"/>
            </address>
         </Organization>
      </resource>
   </entry>
   <entry>
      <fullUrl value="urn:uuid:b1dd5754-3044-4167-a65f-556c4033cb9c"/>
      <resource>
         <PractitionerRole>
            <id value="b1dd5754-3044-4167-a65f-556c4033cb9c"/>
            <meta>
               <profile value="http://hl7.eu/fhir/laboratory/StructureDefinition/PractitionerRole-eu-lab"/>
            </meta>
            <practitioner>
               <reference value="urn:uuid:58964d16-b1ee-47ba-bd57-242eea8296be"/>
            </practitioner>
         </PractitionerRole>
      </resource>
   </entry>
   <entry>
      <fullUrl value="urn:uuid:58964d16-b1ee-47ba-bd57-242eea8296be"/>
      <resource>
         <Practitioner>
            <id value="58964d16-b1ee-47ba-bd57-242eea8296be"/>
            <meta>
               <profile value="http://hl7.eu/fhir/laboratory/StructureDefinition/Practitioner-eu-lab"/>
            </meta>
            <identifier>
               <system value="urn:oid:2.16.840.1.113883.2.51.999"/>
               <value value="95ee2efa-e502-4d94-95aa-0f3258de186c"/>
               <assigner>
                  <display value="HL7 Europe"/>
               </assigner>
            </identifier>
            <name>
               <family value="Ample"/>
               <given value="Ex"/>
               <prefix value="dr"/>
            </name>
            <address>
               <line value="Boulevard du Jardin Botanique 32"/>
               <city value="Brussels"/>
               <postalCode value="1000"/>
            </address>
         </Practitioner>
      </resource>
   </entry>
   <entry>
      <fullUrl value="urn:uuid:eafbdc4c-0ebe-418d-99d7-e1f5b1e1f467"/>
      <resource>
         <Specimen>
            <id value="eafbdc4c-0ebe-418d-99d7-e1f5b1e1f467"/>
            <meta>
               <profile value="http://hl7.eu/fhir/laboratory/StructureDefinition/Specimen-eu-lab"/>
            </meta>
            <status value="available"/>
            <type>
               <coding>
                  <system value="http://snomed.info/sct"/>
                  <code value="122552005"/>
                  <display value="Arterial blood specimen (specimen)"/>
               </coding>
            </type>
            <collection>
               <collectedDateTime value="2024-11-18"/>
            </collection>
         </Specimen>
      </resource>
   </entry>
   <entry>
      <fullUrl value="urn:uuid:41d3d97a-9660-48a0-92bb-1750948f679e"/>
      <resource>
         <Specimen>
            <id value="41d3d97a-9660-48a0-92bb-1750948f679e"/>
            <meta>
               <profile value="http://hl7.eu/fhir/laboratory/StructureDefinition/Specimen-eu-lab"/>
            </meta>
            <status value="available"/>
            <type>
               <coding>
                  <system value="http://snomed.info/sct"/>
                  <code value="258603007"/>
                  <display value="Respiratory specimen (specimen)"/>
               </coding>
            </type>
            <collection>
               <collectedDateTime value="2024-11-18"/>
            </collection>
         </Specimen>
      </resource>
   </entry>
   <entry>
      <fullUrl value="urn:uuid:2e5dbf30-b930-4974-b3ae-2b8ad1a96f2f"/>
      <resource>
         <Observation>
            <id value="2e5dbf30-b930-4974-b3ae-2b8ad1a96f2f"/>
            <meta>
               <profile value="http://hl7.eu/fhir/laboratory/StructureDefinition/Observation-resultslab-eu-lab"/>
            </meta>
            <status value="final"/>
            <category>
               <coding>
                  <system value="http://terminology.hl7.org/CodeSystem/observation-category"/>
                  <code value="laboratory"/>
               </coding>
            </category>
            <code>
               <coding>
                  <system value="http://loinc.org"/>
                  <code value="2708-6"/>
                  <display value="Oxygen saturation in Arterial blood"/>
               </coding>
               <text value="Oxygen saturation in Arterial blood"/>
            </code>
            <subject>
               <reference value="urn:uuid:95473641-3115-4d9f-a945-68f6c6738da2"/>
            </subject>
            <effectiveDateTime value="2024-11-18"/>
            <performer>
               <display value="The Central European Lab"/>
            </performer>
            <valueQuantity>
               <value value="78.9"/>
               <unit value="%"/>
               <system value="http://unitsofmeasure.org"/>
               <code value="%"/>
            </valueQuantity>
            <interpretation>
               <coding>
                  <system value="http://terminology.hl7.org/CodeSystem/v3-ObservationInterpretation"/>
                  <code value="L"/>
                  <display value="Low"/>
               </coding>
            </interpretation>
            <specimen>
               <reference value="urn:uuid:eafbdc4c-0ebe-418d-99d7-e1f5b1e1f467"/>
            </specimen>
            <referenceRange>
               <low>
                  <value value="95"/>
                  <system value="http://unitsofmeasure.org"/>
                  <code value="%"/>
               </low>
            </referenceRange>
            <referenceRange>
               <high>
                  <value value="100"/>
                  <system value="http://unitsofmeasure.org"/>
                  <code value="%"/>
               </high>
            </referenceRange>
         </Observation>
      </resource>
   </entry>
   <entry>
      <fullUrl value="urn:uuid:8d8e84b3-8a2a-4ba3-9e09-4d42a4779e9c"/>
      <resource>
         <Observation>
            <id value="8d8e84b3-8a2a-4ba3-9e09-4d42a4779e9c"/>
            <meta>
               <profile value="http://hl7.eu/fhir/laboratory/StructureDefinition/Observation-resultslab-eu-lab"/>
            </meta>
            <status value="final"/>
            <category>
               <coding>
                  <system value="http://terminology.hl7.org/CodeSystem/observation-category"/>
                  <code value="laboratory"/>
               </coding>
            </category>
            <code>
               <coding>
                  <system value="http://loinc.org"/>
                  <code value="92142-9"/>
                  <display value="Influenza virus A RNA [Presence] in Respiratory system specimen by NAA with probe detection"/>
               </coding>
               <text value="Influenza virus A RNA [Presence] in Respiratory system specimen by NAA with probe detection"/>
            </code>
            <subject>
               <reference value="urn:uuid:95473641-3115-4d9f-a945-68f6c6738da2"/>
            </subject>
            <effectiveDateTime value="2024-11-18"/>
            <performer>
               <display value="The Central European Lab"/>
            </performer>
            <valueCodeableConcept>
               <coding>
                  <system value="http://snomed.info/sct"/>
                  <code value="260385009"/>
                  <display value="Negative"/>
               </coding>
            </valueCodeableConcept>
            <specimen>
               <reference value="urn:uuid:41d3d97a-9660-48a0-92bb-1750948f679e"/>
            </specimen>
         </Observation>
      </resource>
   </entry>
   <entry>
      <fullUrl value="urn:uuid:e7946f39-c2c9-49c3-b07e-5776624557d1"/>
      <resource>
         <Observation>
            <id value="e7946f39-c2c9-49c3-b07e-5776624557d1"/>
            <meta>
               <profile value="http://hl7.eu/fhir/laboratory/StructureDefinition/Observation-resultslab-eu-lab"/>
            </meta>
            <status value="final"/>
            <category>
               <coding>
                  <system value="http://terminology.hl7.org/CodeSystem/observation-category"/>
                  <code value="laboratory"/>
               </coding>
            </category>
            <code>
               <coding>
                  <system value="http://loinc.org"/>
                  <code value="92141-1"/>
                  <display value="Influenza virus B RNA [Presence] in Respiratory system specimen by NAA with probe detection"/>
               </coding>
               <text value="Influenza virus B RNA [Presence] in Respiratory system specimen by NAA with probe detection"/>
            </code>
            <subject>
               <reference value="urn:uuid:95473641-3115-4d9f-a945-68f6c6738da2"/>
            </subject>
            <effectiveDateTime value="2024-11-18"/>
            <performer>
               <display value="The Central European Lab"/>
            </performer>
            <valueCodeableConcept>
               <coding>
                  <system value="http://snomed.info/sct"/>
                  <code value="260385009"/>
                  <display value="Negative"/>
               </coding>
            </valueCodeableConcept>
            <specimen>
               <reference value="urn:uuid:41d3d97a-9660-48a0-92bb-1750948f679e"/>
            </specimen>
         </Observation>
      </resource>
   </entry>
   <entry>
      <fullUrl value="urn:uuid:0d226c37-0e0e-4c13-a81d-703a899ea731"/>
      <resource>
         <Observation>
            <id value="0d226c37-0e0e-4c13-a81d-703a899ea731"/>
            <meta>
               <profile value="http://hl7.eu/fhir/laboratory/StructureDefinition/Observation-resultslab-eu-lab"/>
            </meta>
            <status value="final"/>
            <category>
               <coding>
                  <system value="http://terminology.hl7.org/CodeSystem/observation-category"/>
                  <code value="laboratory"/>
               </coding>
            </category>
            <code>
               <coding>
                  <system value="http://loinc.org"/>
                  <code value="92131-2"/>
                  <display value="Respiratory syncytial virus RNA [Presence] in Respiratory system specimen by NAA with probe detection"/>
               </coding>
               <text value="Respiratory syncytial virus RNA [Presence] in Respiratory system specimen by NAA with probe detection"/>
            </code>
            <subject>
               <reference value="urn:uuid:95473641-3115-4d9f-a945-68f6c6738da2"/>
            </subject>
            <effectiveDateTime value="2024-11-18"/>
            <performer>
               <display value="The Central European Lab"/>
            </performer>
            <valueCodeableConcept>
               <coding>
                  <system value="http://snomed.info/sct"/>
                  <code value="260385009"/>
                  <display value="Negative"/>
               </coding>
            </valueCodeableConcept>
            <specimen>
               <reference value="urn:uuid:41d3d97a-9660-48a0-92bb-1750948f679e"/>
            </specimen>
         </Observation>
      </resource>
   </entry>
   <entry>
      <fullUrl value="urn:uuid:f220940a-cf77-4b19-8ba3-f150be974a2b"/>
      <resource>
         <Observation>
            <id value="f220940a-cf77-4b19-8ba3-f150be974a2b"/>
            <meta>
               <profile value="http://hl7.eu/fhir/laboratory/StructureDefinition/Observation-resultslab-eu-lab"/>
            </meta>
            <status value="final"/>
            <category>
               <coding>
                  <system value="http://terminology.hl7.org/CodeSystem/observation-category"/>
                  <code value="laboratory"/>
               </coding>
            </category>
            <code>
               <coding>
                  <system value="http://loinc.org"/>
                  <code value="92140-3"/>
                  <display value="Parainfluenza virus 1 RNA [Presence] in Respiratory system specimen by NAA with probe detection"/>
               </coding>
               <text value="Parainfluenza virus 1 RNA [Presence] in Respiratory system specimen by NAA with probe detection"/>
            </code>
            <subject>
               <reference value="urn:uuid:95473641-3115-4d9f-a945-68f6c6738da2"/>
            </subject>
            <effectiveDateTime value="2024-11-18"/>
            <performer>
               <display value="The Central European Lab"/>
            </performer>
            <valueCodeableConcept>
               <coding>
                  <system value="http://snomed.info/sct"/>
                  <code value="260385009"/>
                  <display value="Negative"/>
               </coding>
            </valueCodeableConcept>
            <specimen>
               <reference value="urn:uuid:41d3d97a-9660-48a0-92bb-1750948f679e"/>
            </specimen>
         </Observation>
      </resource>
   </entry>
   <entry>
      <fullUrl value="urn:uuid:37c53dae-f782-4549-ac3b-a7740d43ca1d"/>
      <resource>
         <Observation>
            <id value="37c53dae-f782-4549-ac3b-a7740d43ca1d"/>
            <meta>
               <profile value="http://hl7.eu/fhir/laboratory/StructureDefinition/Observation-resultslab-eu-lab"/>
            </meta>
            <status value="final"/>
            <category>
               <coding>
                  <system value="http://terminology.hl7.org/CodeSystem/observation-category"/>
                  <code value="laboratory"/>
               </coding>
            </category>
            <code>
               <coding>
                  <system value="http://loinc.org"/>
                  <code value="92139-5"/>
                  <display value="Parainfluenza virus 2 RNA [Presence] in Respiratory system specimen by NAA with probe detection"/>
               </coding>
               <text value="Parainfluenza virus 2 RNA [Presence] in Respiratory system specimen by NAA with probe detection"/>
            </code>
            <subject>
               <reference value="urn:uuid:95473641-3115-4d9f-a945-68f6c6738da2"/>
            </subject>
            <effectiveDateTime value="2024-11-18"/>
            <performer>
               <display value="The Central European Lab"/>
            </performer>
            <valueCodeableConcept>
               <coding>
                  <system value="http://snomed.info/sct"/>
                  <code value="260385009"/>
                  <display value="Negative"/>
               </coding>
            </valueCodeableConcept>
            <specimen>
               <reference value="urn:uuid:41d3d97a-9660-48a0-92bb-1750948f679e"/>
            </specimen>
         </Observation>
      </resource>
   </entry>
   <entry>
      <fullUrl value="urn:uuid:9354d862-9a14-4572-875a-9e86c0eace5e"/>
      <resource>
         <Observation>
            <id value="9354d862-9a14-4572-875a-9e86c0eace5e"/>
            <meta>
               <profile value="http://hl7.eu/fhir/laboratory/StructureDefinition/Observation-resultslab-eu-lab"/>
            </meta>
            <status value="final"/>
            <category>
               <coding>
                  <system value="http://terminology.hl7.org/CodeSystem/observation-category"/>
                  <code value="laboratory"/>
               </coding>
            </category>
            <code>
               <coding>
                  <system value="http://loinc.org"/>
                  <code value="92138-7"/>
                  <display value="Parainfluenza virus 3 RNA [Presence] in Respiratory system specimen by NAA with probe detection"/>
               </coding>
               <text value="Parainfluenza virus 3 RNA [Presence] in Respiratory system specimen by NAA with probe detection"/>
            </code>
            <subject>
               <reference value="urn:uuid:95473641-3115-4d9f-a945-68f6c6738da2"/>
            </subject>
            <effectiveDateTime value="2024-11-18"/>
            <performer>
               <display value="The Central European Lab"/>
            </performer>
            <valueCodeableConcept>
               <coding>
                  <system value="http://snomed.info/sct"/>
                  <code value="260385009"/>
                  <display value="Negative"/>
               </coding>
            </valueCodeableConcept>
            <specimen>
               <reference value="urn:uuid:41d3d97a-9660-48a0-92bb-1750948f679e"/>
            </specimen>
         </Observation>
      </resource>
   </entry>
   <entry>
      <fullUrl value="urn:uuid:b62dfadd-5549-4208-97bd-828fe3435fca"/>
      <resource>
         <Observation>
            <id value="b62dfadd-5549-4208-97bd-828fe3435fca"/>
            <meta>
               <profile value="http://hl7.eu/fhir/laboratory/StructureDefinition/Observation-resultslab-eu-lab"/>
            </meta>
            <status value="final"/>
            <category>
               <coding>
                  <system value="http://terminology.hl7.org/CodeSystem/observation-category"/>
                  <code value="laboratory"/>
               </coding>
            </category>
            <code>
               <coding>
                  <system value="http://loinc.org"/>
                  <code value="92130-4"/>
                  <display value="Rhinovirus RNA [Presence] in Respiratory system specimen by NAA with probe detection"/>
               </coding>
               <text value="Rhinovirus RNA [Presence] in Respiratory system specimen by NAA with probe detection"/>
            </code>
            <subject>
               <reference value="urn:uuid:95473641-3115-4d9f-a945-68f6c6738da2"/>
            </subject>
            <effectiveDateTime value="2024-11-18"/>
            <performer>
               <display value="The Central European Lab"/>
            </performer>
            <valueCodeableConcept>
               <coding>
                  <system value="http://snomed.info/sct"/>
                  <code value="260385009"/>
                  <display value="Negative"/>
               </coding>
            </valueCodeableConcept>
            <specimen>
               <reference value="urn:uuid:41d3d97a-9660-48a0-92bb-1750948f679e"/>
            </specimen>
         </Observation>
      </resource>
   </entry>
   <entry>
      <fullUrl value="urn:uuid:52a0a43d-4da6-4184-8068-9ffa9b600a06"/>
      <resource>
         <Observation>
            <id value="52a0a43d-4da6-4184-8068-9ffa9b600a06"/>
            <meta>
               <profile value="http://hl7.eu/fhir/laboratory/StructureDefinition/Observation-resultslab-eu-lab"/>
            </meta>
            <status value="final"/>
            <category>
               <coding>
                  <system value="http://terminology.hl7.org/CodeSystem/observation-category"/>
                  <code value="laboratory"/>
               </coding>
            </category>
            <code>
               <coding>
                  <system value="http://loinc.org"/>
                  <code value="92134-6"/>
                  <display value="Human metapneumovirus RNA [Presence] in Respiratory system specimen by NAA with probe detection"/>
               </coding>
               <text value="Human metapneumovirus RNA [Presence] in Respiratory system specimen by NAA with probe detection"/>
            </code>
            <subject>
               <reference value="urn:uuid:95473641-3115-4d9f-a945-68f6c6738da2"/>
            </subject>
            <effectiveDateTime value="2024-11-18"/>
            <performer>
               <display value="The Central European Lab"/>
            </performer>
            <valueCodeableConcept>
               <coding>
                  <system value="http://snomed.info/sct"/>
                  <code value="260385009"/>
                  <display value="Negative"/>
               </coding>
            </valueCodeableConcept>
            <specimen>
               <reference value="urn:uuid:41d3d97a-9660-48a0-92bb-1750948f679e"/>
            </specimen>
         </Observation>
      </resource>
   </entry>
   <entry>
      <fullUrl value="urn:uuid:a974f65c-56c7-4827-9cbb-4a8d1e460d9b"/>
      <resource>
         <Observation>
            <id value="a974f65c-56c7-4827-9cbb-4a8d1e460d9b"/>
            <meta>
               <profile value="http://hl7.eu/fhir/laboratory/StructureDefinition/Observation-resultslab-eu-lab"/>
            </meta>
            <status value="final"/>
            <category>
               <coding>
                  <system value="http://terminology.hl7.org/CodeSystem/observation-category"/>
                  <code value="laboratory"/>
               </coding>
            </category>
            <code>
               <coding>
                  <system value="http://loinc.org"/>
                  <code value="94040-3"/>
                  <display value="Adenovirus A+B+C+D+E DNA [Presence] in Respiratory system specimen by NAA with probe detection"/>
               </coding>
               <text value="Adenovirus A+B+C+D+E DNA [Presence] in Respiratory system specimen by NAA with probe detection"/>
            </code>
            <subject>
               <reference value="urn:uuid:95473641-3115-4d9f-a945-68f6c6738da2"/>
            </subject>
            <effectiveDateTime value="2024-11-18"/>
            <performer>
               <display value="The Central European Lab"/>
            </performer>
            <valueCodeableConcept>
               <coding>
                  <system value="http://snomed.info/sct"/>
                  <code value="260385009"/>
                  <display value="Negative"/>
               </coding>
            </valueCodeableConcept>
            <specimen>
               <reference value="urn:uuid:41d3d97a-9660-48a0-92bb-1750948f679e"/>
            </specimen>
         </Observation>
      </resource>
   </entry>
   <entry>
      <fullUrl value="urn:uuid:51c7e3ce-f8a9-4c5e-bd45-e84beff4da05"/>
      <resource>
         <Observation>
            <id value="51c7e3ce-f8a9-4c5e-bd45-e84beff4da05"/>
            <meta>
               <profile value="http://hl7.eu/fhir/laboratory/StructureDefinition/Observation-resultslab-eu-lab"/>
            </meta>
            <status value="final"/>
            <category>
               <coding>
                  <system value="http://terminology.hl7.org/CodeSystem/observation-category"/>
                  <code value="laboratory"/>
               </coding>
            </category>
            <code>
               <coding>
                  <system value="http://loinc.org"/>
                  <code value="94531-1"/>
                  <display value="SARS-CoV-2 (COVID-19) RNA panel - Respiratory system specimen by NAA with probe detection"/>
               </coding>
               <text value="SARS-CoV-2 (COVID-19) RNA panel - Respiratory system specimen by NAA with probe detection"/>
            </code>
            <subject>
               <reference value="urn:uuid:95473641-3115-4d9f-a945-68f6c6738da2"/>
            </subject>
            <effectiveDateTime value="2024-11-18"/>
            <performer>
               <display value="The Central European Lab"/>
            </performer>
            <valueCodeableConcept>
               <coding>
                  <system value="http://snomed.info/sct"/>
                  <code value="260373001"/>
                  <display value="Detected"/>
               </coding>
            </valueCodeableConcept>
            <specimen>
               <reference value="urn:uuid:41d3d97a-9660-48a0-92bb-1750948f679e"/>
            </specimen>
         </Observation>
      </resource>
   </entry>
</Bundle>
