{
  "resourceType": "Bundle",
  "id": "Instance-Bundle-b0c6a8a7-220f-49f1-816b-75a01c710092",
  "meta": {
    "profile": [
      "http://hl7.eu/fhir/laboratory/StructureDefinition/Bundle-eu-lab"
    ]
  },
  "identifier": {
    "assigner": {
      "display": "HL7 Europe"
    },
    "system": "urn:oid:2.16.840.1.113883.2.51.999",
    "value": "a31c9c05-4389-4150-8b4b-0d6b162b1194"
  },
  "entry": [
    {
      "fullUrl": "urn:uuid:27da1853-08b9-4151-a3ee-df4f6a383fe9",
      "resource": {
        "resourceType": "Composition",
        "id": "27da1853-08b9-4151-a3ee-df4f6a383fe9",
        "meta": {
          "profile": [
            "http://hl7.eu/fhir/laboratory/StructureDefinition/Composition-eu-lab"
          ]
        },
        "identifier": {
          "assigner": {
            "display": "HL7 Europe"
          },
          "system": "urn:oid:2.16.840.1.113883.2.51.999",
          "value": "0bb1963b-da5b-4ecd-8555-5fbc41a474c6"
        },
        "author": [
          {
            "reference": "urn:uuid:b1dd5754-3044-4167-a65f-556c4033cb9c"
          }
        ],
        "category": [
          {
            "coding": [
              {
                "code": "26436-6",
                "system": "http://loinc.org",
                "display": "Laboratory studies (set)"
              }
            ]
          }
        ],
        "type": {
          "text": "Laboratory Report"
        },
        "section": [
          {
            "code": {
              "coding": [
                {
                  "code": "26436-6",
                  "system": "http://loinc.org",
                  "display": "Laboratory studies (set)"
                }
              ],
              "text": "Laboratory studies"
            },
            "section": [
              {
                "code": {
                  "coding": [
                    {
                      "code": "18719-5",
                      "system": "http://loinc.org",
                      "display": "Chemistry studies (set)"
                    }
                  ],
                  "text": "Chemistry"
                },
                "entry": [
                  {
                    "reference": "urn:uuid:2e5dbf30-b930-4974-b3ae-2b8ad1a96f2f"
                  }
                ],
                "text": {
                  "status": "generated",
                  "div": "<div xmlns=\"http://www.w3.org/1999/xhtml\"><h3 id=\"section-1\">Chemistry</h3><table class=\"hl7__eu__lab__report\"><thead><tr><th>Test</th><th>18 Nov 2024</th><th>Reference Range</th><th>Unit</th></tr></thead><tbody><tr><td>Oxygen saturation in Arterial blood</td><td><strong>78.9 L</strong></td><td>95 - 100</td><td>%</td></tr></tbody></table></div>"
                },
                "title": "Chemistry"
              },
              {
                "code": {
                  "coding": [
                    {
                      "code": "18725-2",
                      "system": "http://loinc.org",
                      "display": "Microbiology studies"
                    }
                  ],
                  "text": "Microbiology"
                },
                "entry": [
                  {
                    "reference": "urn:uuid:8d8e84b3-8a2a-4ba3-9e09-4d42a4779e9c"
                  },
                  {
                    "reference": "urn:uuid:e7946f39-c2c9-49c3-b07e-5776624557d1"
                  },
                  {
                    "reference": "urn:uuid:0d226c37-0e0e-4c13-a81d-703a899ea731"
                  },
                  {
                    "reference": "urn:uuid:f220940a-cf77-4b19-8ba3-f150be974a2b"
                  },
                  {
                    "reference": "urn:uuid:37c53dae-f782-4549-ac3b-a7740d43ca1d"
                  },
                  {
                    "reference": "urn:uuid:9354d862-9a14-4572-875a-9e86c0eace5e"
                  },
                  {
                    "reference": "urn:uuid:b62dfadd-5549-4208-97bd-828fe3435fca"
                  },
                  {
                    "reference": "urn:uuid:52a0a43d-4da6-4184-8068-9ffa9b600a06"
                  },
                  {
                    "reference": "urn:uuid:a974f65c-56c7-4827-9cbb-4a8d1e460d9b"
                  }
                ],
                "text": {
                  "status": "generated",
                  "div": "<div xmlns=\"http://www.w3.org/1999/xhtml\"><h3 id=\"section-2\">Microbiology</h3><table class=\"hl7__eu__lab__report\"><thead><tr><th>Test</th><th>18 Nov 2024</th><th>Reference Range</th><th>Unit</th></tr></thead><tbody><tr><td>Influenza virus A RNA [Presence] in Respiratory system specimen by NAA with probe detection</td><td>Negative</td><td></td><td></td></tr><tr><td>Influenza virus B RNA [Presence] in Respiratory system specimen by NAA with probe detection</td><td>Negative</td><td></td><td></td></tr><tr><td>Respiratory syncytial virus RNA [Presence] in Respiratory system specimen by NAA with probe detection</td><td>Negative</td><td></td><td></td></tr><tr><td>Parainfluenza virus 1 RNA [Presence] in Respiratory system specimen by NAA with probe detection</td><td>Negative</td><td></td><td></td></tr><tr><td>Parainfluenza virus 2 RNA [Presence] in Respiratory system specimen by NAA with probe detection</td><td>Negative</td><td></td><td></td></tr><tr><td>Parainfluenza virus 3 RNA [Presence] in Respiratory system specimen by NAA with probe detection</td><td>Negative</td><td></td><td></td></tr><tr><td>Rhinovirus RNA [Presence] in Respiratory system specimen by NAA with probe detection</td><td>Negative</td><td></td><td></td></tr><tr><td>Human metapneumovirus RNA [Presence] in Respiratory system specimen by NAA with probe detection</td><td>Negative</td><td></td><td></td></tr><tr><td>Adenovirus A+B+C+D+E DNA [Presence] in Respiratory system specimen by NAA with probe detection</td><td>Negative</td><td></td><td></td></tr></tbody></table></div>"
                },
                "title": "Microbiology"
              },
              {
                "code": {
                  "coding": [
                    {
                      "code": "18725-2",
                      "system": "http://loinc.org",
                      "display": "Microbiology studies"
                    }
                  ],
                  "text": "Microbiology Panel"
                },
                "entry": [
                  {
                    "reference": "urn:uuid:51c7e3ce-f8a9-4c5e-bd45-e84beff4da05"
                  }
                ],
                "text": {
                  "status": "generated",
                  "div": "<div xmlns=\"http://www.w3.org/1999/xhtml\"><h3 id=\"section-3\">Microbiology Panel</h3><table class=\"hl7__eu__lab__report\"><thead><tr><th>Test</th><th>18 Nov 2024</th><th>Reference Range</th><th>Unit</th></tr></thead><tbody><tr><td>SARS-CoV-2 (COVID-19) RNA panel - Respiratory system specimen by NAA with probe detection</td><td>Detected</td><td></td><td></td></tr></tbody></table></div>"
                },
                "title": "Microbiology Panel"
              }
            ],
            "title": "Laboratory Report"
          }
        ],
        "status": "final",
        "subject": {
          "reference": "urn:uuid:95473641-3115-4d9f-a945-68f6c6738da2"
        },
        "date": "2024-11-19T18:40:44Z",
        "title": "Laboratory Report",
        "confidentiality": "N"
      }
    },
    {
      "fullUrl": "urn:uuid:467ece33-b5fd-49e7-99d1-c4e52623fda6",
      "resource": {
        "resourceType": "DiagnosticReport",
        "id": "467ece33-b5fd-49e7-99d1-c4e52623fda6",
        "meta": {
          "profile": [
            "http://hl7.eu/fhir/laboratory/StructureDefinition/DiagnosticReport-eu-lab"
          ]
        },
        "identifier": [
          {
            "assigner": {
              "display": "HL7 Europe"
            },
            "system": "urn:oid:2.16.840.1.113883.2.51.999",
            "value": "e4f061ca-8994-4967-b09d-71e668cd87d8"
          }
        ],
        "extension": [
          {
            "url": "http://hl7.org/fhir/5.0/StructureDefinition/extension-DiagnosticReport.composition",
            "valueReference": {
              "reference": "urn:uuid:27da1853-08b9-4151-a3ee-df4f6a383fe9"
            }
          }
        ],
        "category": [
          {
            "coding": [
              {
                "code": "18719-5",
                "system": "http://loinc.org",
                "display": "Chemistry studies (set)"
              }
            ]
          }
        ],
        "specimen": [
          {
            "reference": "urn:uuid:eafbdc4c-0ebe-418d-99d7-e1f5b1e1f467"
          },
          {
            "reference": "urn:uuid:41d3d97a-9660-48a0-92bb-1750948f679e"
          }
        ],
        "result": [
          {
            "reference": "urn:uuid:2e5dbf30-b930-4974-b3ae-2b8ad1a96f2f"
          },
          {
            "reference": "urn:uuid:8d8e84b3-8a2a-4ba3-9e09-4d42a4779e9c"
          },
          {
            "reference": "urn:uuid:e7946f39-c2c9-49c3-b07e-5776624557d1"
          },
          {
            "reference": "urn:uuid:0d226c37-0e0e-4c13-a81d-703a899ea731"
          },
          {
            "reference": "urn:uuid:f220940a-cf77-4b19-8ba3-f150be974a2b"
          },
          {
            "reference": "urn:uuid:37c53dae-f782-4549-ac3b-a7740d43ca1d"
          },
          {
            "reference": "urn:uuid:9354d862-9a14-4572-875a-9e86c0eace5e"
          },
          {
            "reference": "urn:uuid:b62dfadd-5549-4208-97bd-828fe3435fca"
          },
          {
            "reference": "urn:uuid:52a0a43d-4da6-4184-8068-9ffa9b600a06"
          },
          {
            "reference": "urn:uuid:a974f65c-56c7-4827-9cbb-4a8d1e460d9b"
          },
          {
            "reference": "urn:uuid:51c7e3ce-f8a9-4c5e-bd45-e84beff4da05"
          }
        ],
        "status": "registered",
        "code": {
          "coding": [
            {
              "code": "11502-2",
              "system": "http://loinc.org",
              "display": "Laboratory report"
            }
          ]
        },
        "subject": {
          "reference": "urn:uuid:95473641-3115-4d9f-a945-68f6c6738da2"
        }
      }
    },
    {
      "fullUrl": "urn:uuid:95473641-3115-4d9f-a945-68f6c6738da2",
      "resource": {
        "resourceType": "Patient",
        "id": "95473641-3115-4d9f-a945-68f6c6738da2",
        "meta": {
          "profile": [
            "http://hl7.eu/fhir/laboratory/StructureDefinition/Patient-eu-lab"
          ]
        },
        "identifier": [
          {
            "type": {
              "coding": [
                {
                  "code": "NI",
                  "system": "http://terminology.hl7.org/CodeSystem/v2-0203"
                }
              ]
            },
            "system": "http://ec.europa.eu/identifier/eci",
            "value": "3887-154998-6"
          },
          {
            "type": {
              "coding": [
                {
                  "code": "MR",
                  "system": "http://terminology.hl7.org/CodeSystem/v2-0203"
                }
              ]
            },
            "system": "http://local.setting.eu/identifier",
            "value": "990b3888-55b1-4af3-bbca-10ce54fdc1b3"
          }
        ],
        "name": [
          {
            "given": [
              "Bratumił"
            ],
            "family": "Sawicki",
            "text": "Bratumił Sawicki"
          }
        ],
        "address": [
          {
            "line": [
              "ul. Kozia 63"
            ],
            "use": "home",
            "type": "physical",
            "city": "Warszawa/Wesoła",
            "postalCode": "05-075",
            "country": "Poland"
          }
        ],
        "telecom": [
          {
            "system": "phone",
            "value": "+48 66 169 79 78"
          }
        ],
        "gender": "male",
        "birthDate": "2002-05-11"
      }
    },
    {
      "fullUrl": "urn:uuid:bd13828d-80f8-4551-9204-1bbe5ff79ec8",
      "resource": {
        "resourceType": "ServiceRequest",
        "id": "bd13828d-80f8-4551-9204-1bbe5ff79ec8",
        "meta": {
          "profile": [
            "http://hl7.eu/fhir/laboratory/StructureDefinition/ServiceRequest-eu-lab"
          ]
        },
        "identifier": [
          {
            "system": "http://example.org",
            "value": "04cef228-a686-4b7c-8816-cccc52d286a9"
          }
        ],
        "specimen": [
          {
            "reference": "urn:uuid:eafbdc4c-0ebe-418d-99d7-e1f5b1e1f467"
          },
          {
            "reference": "urn:uuid:41d3d97a-9660-48a0-92bb-1750948f679e"
          }
        ],
        "status": "active",
        "intent": "order",
        "code": {
          "coding": [
            {
              "code": "108252007",
              "system": "http://snomed.info/sct",
              "display": "Laboratory procedure"
            }
          ]
        },
        "subject": {
          "reference": "urn:uuid:95473641-3115-4d9f-a945-68f6c6738da2"
        },
        "requester": {
          "reference": "urn:uuid:a1ebfcb1-4945-4d50-b8a2-778dbc55a664"
        }
      }
    },
    {
      "fullUrl": "urn:uuid:a1ebfcb1-4945-4d50-b8a2-778dbc55a664",
      "resource": {
        "resourceType": "PractitionerRole",
        "id": "a1ebfcb1-4945-4d50-b8a2-778dbc55a664",
        "meta": {
          "profile": [
            "http://hl7.eu/fhir/laboratory/StructureDefinition/PractitionerRole-eu-lab"
          ]
        },
        "organization": {
          "reference": "urn:uuid:776eb766-17e3-4b85-9a07-d1e077c7fae5"
        }
      }
    },
    {
      "fullUrl": "urn:uuid:776eb766-17e3-4b85-9a07-d1e077c7fae5",
      "resource": {
        "resourceType": "Organization",
        "id": "776eb766-17e3-4b85-9a07-d1e077c7fae5",
        "meta": {
          "profile": [
            "http://hl7.org/fhir/uv/ips/StructureDefinition/Organization-uv-ips"
          ]
        },
        "identifier": [
          {
            "assigner": {
              "display": "HL7 Europe"
            },
            "system": "urn:oid:2.16.840.1.113883.2.51.999",
            "value": "ffaf8f0b-a635-46fc-9fdb-899ab0277c00"
          }
        ],
        "address": [
          {
            "city": "Warszawa",
            "postalCode": "02-758",
            "country": "pl"
          }
        ],
        "name": "Instytut Psychiatrii i Neurologii"
      }
    },
    {
      "fullUrl": "urn:uuid:b1dd5754-3044-4167-a65f-556c4033cb9c",
      "resource": {
        "resourceType": "PractitionerRole",
        "id": "b1dd5754-3044-4167-a65f-556c4033cb9c",
        "meta": {
          "profile": [
            "http://hl7.eu/fhir/laboratory/StructureDefinition/PractitionerRole-eu-lab"
          ]
        },
        "practitioner": {
          "reference": "urn:uuid:58964d16-b1ee-47ba-bd57-242eea8296be"
        }
      }
    },
    {
      "fullUrl": "urn:uuid:58964d16-b1ee-47ba-bd57-242eea8296be",
      "resource": {
        "resourceType": "Practitioner",
        "id": "58964d16-b1ee-47ba-bd57-242eea8296be",
        "meta": {
          "profile": [
            "http://hl7.eu/fhir/laboratory/StructureDefinition/Practitioner-eu-lab"
          ]
        },
        "identifier": [
          {
            "assigner": {
              "display": "HL7 Europe"
            },
            "system": "urn:oid:2.16.840.1.113883.2.51.999",
            "value": "95ee2efa-e502-4d94-95aa-0f3258de186c"
          }
        ],
        "name": [
          {
            "prefix": [
              "dr"
            ],
            "given": [
              "Ex"
            ],
            "family": "Ample"
          }
        ],
        "address": [
          {
            "line": [
              "Boulevard du Jardin Botanique 32"
            ],
            "city": "Brussels",
            "postalCode": "1000"
          }
        ]
      }
    },
    {
      "fullUrl": "urn:uuid:eafbdc4c-0ebe-418d-99d7-e1f5b1e1f467",
      "resource": {
        "resourceType": "Specimen",
        "id": "eafbdc4c-0ebe-418d-99d7-e1f5b1e1f467",
        "meta": {
          "profile": [
            "http://hl7.eu/fhir/laboratory/StructureDefinition/Specimen-eu-lab"
          ]
        },
        "collection": {
          "collectedDateTime": "2024-11-18"
        },
        "status": "available",
        "type": {
          "coding": [
            {
              "code": "122552005",
              "system": "http://snomed.info/sct",
              "display": "Arterial blood specimen (specimen)"
            }
          ]
        }
      }
    },
    {
      "fullUrl": "urn:uuid:41d3d97a-9660-48a0-92bb-1750948f679e",
      "resource": {
        "resourceType": "Specimen",
        "id": "41d3d97a-9660-48a0-92bb-1750948f679e",
        "meta": {
          "profile": [
            "http://hl7.eu/fhir/laboratory/StructureDefinition/Specimen-eu-lab"
          ]
        },
        "collection": {
          "collectedDateTime": "2024-11-18"
        },
        "status": "available",
        "type": {
          "coding": [
            {
              "code": "258603007",
              "system": "http://snomed.info/sct",
              "display": "Respiratory specimen (specimen)"
            }
          ]
        }
      }
    },
    {
      "fullUrl": "urn:uuid:2e5dbf30-b930-4974-b3ae-2b8ad1a96f2f",
      "resource": {
        "resourceType": "Observation",
        "id": "2e5dbf30-b930-4974-b3ae-2b8ad1a96f2f",
        "meta": {
          "profile": [
            "http://hl7.eu/fhir/laboratory/StructureDefinition/Observation-resultslab-eu-lab"
          ]
        },
        "performer": [
          {
            "display": "The Central European Lab"
          }
        ],
        "category": [
          {
            "coding": [
              {
                "code": "laboratory",
                "system": "http://terminology.hl7.org/CodeSystem/observation-category"
              }
            ]
          }
        ],
        "code": {
          "coding": [
            {
              "code": "2708-6",
              "system": "http://loinc.org",
              "display": "Oxygen saturation in Arterial blood"
            }
          ],
          "text": "Oxygen saturation in Arterial blood"
        },
        "valueQuantity": {
          "system": "http://unitsofmeasure.org",
          "value": 78.9,
          "unit": "%",
          "code": "%"
        },
        "referenceRange": [
          {
            "low": {
              "value": 95,
              "code": "%",
              "system": "http://unitsofmeasure.org"
            }
          },
          {
            "high": {
              "value": 100,
              "code": "%",
              "system": "http://unitsofmeasure.org"
            }
          }
        ],
        "interpretation": [
          {
            "coding": [
              {
                "code": "L",
                "system": "http://terminology.hl7.org/CodeSystem/v3-ObservationInterpretation",
                "display": "Low"
              }
            ]
          }
        ],
        "status": "final",
        "subject": {
          "reference": "urn:uuid:95473641-3115-4d9f-a945-68f6c6738da2"
        },
        "effectiveDateTime": "2024-11-18",
        "specimen": {
          "reference": "urn:uuid:eafbdc4c-0ebe-418d-99d7-e1f5b1e1f467"
        }
      }
    },
    {
      "fullUrl": "urn:uuid:8d8e84b3-8a2a-4ba3-9e09-4d42a4779e9c",
      "resource": {
        "resourceType": "Observation",
        "id": "8d8e84b3-8a2a-4ba3-9e09-4d42a4779e9c",
        "meta": {
          "profile": [
            "http://hl7.eu/fhir/laboratory/StructureDefinition/Observation-resultslab-eu-lab"
          ]
        },
        "performer": [
          {
            "display": "The Central European Lab"
          }
        ],
        "category": [
          {
            "coding": [
              {
                "code": "laboratory",
                "system": "http://terminology.hl7.org/CodeSystem/observation-category"
              }
            ]
          }
        ],
        "code": {
          "coding": [
            {
              "code": "92142-9",
              "system": "http://loinc.org",
              "display": "Influenza virus A RNA [Presence] in Respiratory system specimen by NAA with probe detection"
            }
          ],
          "text": "Influenza virus A RNA [Presence] in Respiratory system specimen by NAA with probe detection"
        },
        "status": "final",
        "subject": {
          "reference": "urn:uuid:95473641-3115-4d9f-a945-68f6c6738da2"
        },
        "effectiveDateTime": "2024-11-18",
        "valueCodeableConcept": {
          "coding": [
            {
              "code": "260385009",
              "system": "http://snomed.info/sct",
              "display": "Negative"
            }
          ]
        },
        "specimen": {
          "reference": "urn:uuid:41d3d97a-9660-48a0-92bb-1750948f679e"
        }
      }
    },
    {
      "fullUrl": "urn:uuid:e7946f39-c2c9-49c3-b07e-5776624557d1",
      "resource": {
        "resourceType": "Observation",
        "id": "e7946f39-c2c9-49c3-b07e-5776624557d1",
        "meta": {
          "profile": [
            "http://hl7.eu/fhir/laboratory/StructureDefinition/Observation-resultslab-eu-lab"
          ]
        },
        "performer": [
          {
            "display": "The Central European Lab"
          }
        ],
        "category": [
          {
            "coding": [
              {
                "code": "laboratory",
                "system": "http://terminology.hl7.org/CodeSystem/observation-category"
              }
            ]
          }
        ],
        "code": {
          "coding": [
            {
              "code": "92141-1",
              "system": "http://loinc.org",
              "display": "Influenza virus B RNA [Presence] in Respiratory system specimen by NAA with probe detection"
            }
          ],
          "text": "Influenza virus B RNA [Presence] in Respiratory system specimen by NAA with probe detection"
        },
        "status": "final",
        "subject": {
          "reference": "urn:uuid:95473641-3115-4d9f-a945-68f6c6738da2"
        },
        "effectiveDateTime": "2024-11-18",
        "valueCodeableConcept": {
          "coding": [
            {
              "code": "260385009",
              "system": "http://snomed.info/sct",
              "display": "Negative"
            }
          ]
        },
        "specimen": {
          "reference": "urn:uuid:41d3d97a-9660-48a0-92bb-1750948f679e"
        }
      }
    },
    {
      "fullUrl": "urn:uuid:0d226c37-0e0e-4c13-a81d-703a899ea731",
      "resource": {
        "resourceType": "Observation",
        "id": "0d226c37-0e0e-4c13-a81d-703a899ea731",
        "meta": {
          "profile": [
            "http://hl7.eu/fhir/laboratory/StructureDefinition/Observation-resultslab-eu-lab"
          ]
        },
        "performer": [
          {
            "display": "The Central European Lab"
          }
        ],
        "category": [
          {
            "coding": [
              {
                "code": "laboratory",
                "system": "http://terminology.hl7.org/CodeSystem/observation-category"
              }
            ]
          }
        ],
        "code": {
          "coding": [
            {
              "code": "92131-2",
              "system": "http://loinc.org",
              "display": "Respiratory syncytial virus RNA [Presence] in Respiratory system specimen by NAA with probe detection"
            }
          ],
          "text": "Respiratory syncytial virus RNA [Presence] in Respiratory system specimen by NAA with probe detection"
        },
        "status": "final",
        "subject": {
          "reference": "urn:uuid:95473641-3115-4d9f-a945-68f6c6738da2"
        },
        "effectiveDateTime": "2024-11-18",
        "valueCodeableConcept": {
          "coding": [
            {
              "code": "260385009",
              "system": "http://snomed.info/sct",
              "display": "Negative"
            }
          ]
        },
        "specimen": {
          "reference": "urn:uuid:41d3d97a-9660-48a0-92bb-1750948f679e"
        }
      }
    },
    {
      "fullUrl": "urn:uuid:f220940a-cf77-4b19-8ba3-f150be974a2b",
      "resource": {
        "resourceType": "Observation",
        "id": "f220940a-cf77-4b19-8ba3-f150be974a2b",
        "meta": {
          "profile": [
            "http://hl7.eu/fhir/laboratory/StructureDefinition/Observation-resultslab-eu-lab"
          ]
        },
        "performer": [
          {
            "display": "The Central European Lab"
          }
        ],
        "category": [
          {
            "coding": [
              {
                "code": "laboratory",
                "system": "http://terminology.hl7.org/CodeSystem/observation-category"
              }
            ]
          }
        ],
        "code": {
          "coding": [
            {
              "code": "92140-3",
              "system": "http://loinc.org",
              "display": "Parainfluenza virus 1 RNA [Presence] in Respiratory system specimen by NAA with probe detection"
            }
          ],
          "text": "Parainfluenza virus 1 RNA [Presence] in Respiratory system specimen by NAA with probe detection"
        },
        "status": "final",
        "subject": {
          "reference": "urn:uuid:95473641-3115-4d9f-a945-68f6c6738da2"
        },
        "effectiveDateTime": "2024-11-18",
        "valueCodeableConcept": {
          "coding": [
            {
              "code": "260385009",
              "system": "http://snomed.info/sct",
              "display": "Negative"
            }
          ]
        },
        "specimen": {
          "reference": "urn:uuid:41d3d97a-9660-48a0-92bb-1750948f679e"
        }
      }
    },
    {
      "fullUrl": "urn:uuid:37c53dae-f782-4549-ac3b-a7740d43ca1d",
      "resource": {
        "resourceType": "Observation",
        "id": "37c53dae-f782-4549-ac3b-a7740d43ca1d",
        "meta": {
          "profile": [
            "http://hl7.eu/fhir/laboratory/StructureDefinition/Observation-resultslab-eu-lab"
          ]
        },
        "performer": [
          {
            "display": "The Central European Lab"
          }
        ],
        "category": [
          {
            "coding": [
              {
                "code": "laboratory",
                "system": "http://terminology.hl7.org/CodeSystem/observation-category"
              }
            ]
          }
        ],
        "code": {
          "coding": [
            {
              "code": "92139-5",
              "system": "http://loinc.org",
              "display": "Parainfluenza virus 2 RNA [Presence] in Respiratory system specimen by NAA with probe detection"
            }
          ],
          "text": "Parainfluenza virus 2 RNA [Presence] in Respiratory system specimen by NAA with probe detection"
        },
        "status": "final",
        "subject": {
          "reference": "urn:uuid:95473641-3115-4d9f-a945-68f6c6738da2"
        },
        "effectiveDateTime": "2024-11-18",
        "valueCodeableConcept": {
          "coding": [
            {
              "code": "260385009",
              "system": "http://snomed.info/sct",
              "display": "Negative"
            }
          ]
        },
        "specimen": {
          "reference": "urn:uuid:41d3d97a-9660-48a0-92bb-1750948f679e"
        }
      }
    },
    {
      "fullUrl": "urn:uuid:9354d862-9a14-4572-875a-9e86c0eace5e",
      "resource": {
        "resourceType": "Observation",
        "id": "9354d862-9a14-4572-875a-9e86c0eace5e",
        "meta": {
          "profile": [
            "http://hl7.eu/fhir/laboratory/StructureDefinition/Observation-resultslab-eu-lab"
          ]
        },
        "performer": [
          {
            "display": "The Central European Lab"
          }
        ],
        "category": [
          {
            "coding": [
              {
                "code": "laboratory",
                "system": "http://terminology.hl7.org/CodeSystem/observation-category"
              }
            ]
          }
        ],
        "code": {
          "coding": [
            {
              "code": "92138-7",
              "system": "http://loinc.org",
              "display": "Parainfluenza virus 3 RNA [Presence] in Respiratory system specimen by NAA with probe detection"
            }
          ],
          "text": "Parainfluenza virus 3 RNA [Presence] in Respiratory system specimen by NAA with probe detection"
        },
        "status": "final",
        "subject": {
          "reference": "urn:uuid:95473641-3115-4d9f-a945-68f6c6738da2"
        },
        "effectiveDateTime": "2024-11-18",
        "valueCodeableConcept": {
          "coding": [
            {
              "code": "260385009",
              "system": "http://snomed.info/sct",
              "display": "Negative"
            }
          ]
        },
        "specimen": {
          "reference": "urn:uuid:41d3d97a-9660-48a0-92bb-1750948f679e"
        }
      }
    },
    {
      "fullUrl": "urn:uuid:b62dfadd-5549-4208-97bd-828fe3435fca",
      "resource": {
        "resourceType": "Observation",
        "id": "b62dfadd-5549-4208-97bd-828fe3435fca",
        "meta": {
          "profile": [
            "http://hl7.eu/fhir/laboratory/StructureDefinition/Observation-resultslab-eu-lab"
          ]
        },
        "performer": [
          {
            "display": "The Central European Lab"
          }
        ],
        "category": [
          {
            "coding": [
              {
                "code": "laboratory",
                "system": "http://terminology.hl7.org/CodeSystem/observation-category"
              }
            ]
          }
        ],
        "code": {
          "coding": [
            {
              "code": "92130-4",
              "system": "http://loinc.org",
              "display": "Rhinovirus RNA [Presence] in Respiratory system specimen by NAA with probe detection"
            }
          ],
          "text": "Rhinovirus RNA [Presence] in Respiratory system specimen by NAA with probe detection"
        },
        "status": "final",
        "subject": {
          "reference": "urn:uuid:95473641-3115-4d9f-a945-68f6c6738da2"
        },
        "effectiveDateTime": "2024-11-18",
        "valueCodeableConcept": {
          "coding": [
            {
              "code": "260385009",
              "system": "http://snomed.info/sct",
              "display": "Negative"
            }
          ]
        },
        "specimen": {
          "reference": "urn:uuid:41d3d97a-9660-48a0-92bb-1750948f679e"
        }
      }
    },
    {
      "fullUrl": "urn:uuid:52a0a43d-4da6-4184-8068-9ffa9b600a06",
      "resource": {
        "resourceType": "Observation",
        "id": "52a0a43d-4da6-4184-8068-9ffa9b600a06",
        "meta": {
          "profile": [
            "http://hl7.eu/fhir/laboratory/StructureDefinition/Observation-resultslab-eu-lab"
          ]
        },
        "performer": [
          {
            "display": "The Central European Lab"
          }
        ],
        "category": [
          {
            "coding": [
              {
                "code": "laboratory",
                "system": "http://terminology.hl7.org/CodeSystem/observation-category"
              }
            ]
          }
        ],
        "code": {
          "coding": [
            {
              "code": "92134-6",
              "system": "http://loinc.org",
              "display": "Human metapneumovirus RNA [Presence] in Respiratory system specimen by NAA with probe detection"
            }
          ],
          "text": "Human metapneumovirus RNA [Presence] in Respiratory system specimen by NAA with probe detection"
        },
        "status": "final",
        "subject": {
          "reference": "urn:uuid:95473641-3115-4d9f-a945-68f6c6738da2"
        },
        "effectiveDateTime": "2024-11-18",
        "valueCodeableConcept": {
          "coding": [
            {
              "code": "260385009",
              "system": "http://snomed.info/sct",
              "display": "Negative"
            }
          ]
        },
        "specimen": {
          "reference": "urn:uuid:41d3d97a-9660-48a0-92bb-1750948f679e"
        }
      }
    },
    {
      "fullUrl": "urn:uuid:a974f65c-56c7-4827-9cbb-4a8d1e460d9b",
      "resource": {
        "resourceType": "Observation",
        "id": "a974f65c-56c7-4827-9cbb-4a8d1e460d9b",
        "meta": {
          "profile": [
            "http://hl7.eu/fhir/laboratory/StructureDefinition/Observation-resultslab-eu-lab"
          ]
        },
        "performer": [
          {
            "display": "The Central European Lab"
          }
        ],
        "category": [
          {
            "coding": [
              {
                "code": "laboratory",
                "system": "http://terminology.hl7.org/CodeSystem/observation-category"
              }
            ]
          }
        ],
        "code": {
          "coding": [
            {
              "code": "94040-3",
              "system": "http://loinc.org",
              "display": "Adenovirus A+B+C+D+E DNA [Presence] in Respiratory system specimen by NAA with probe detection"
            }
          ],
          "text": "Adenovirus A+B+C+D+E DNA [Presence] in Respiratory system specimen by NAA with probe detection"
        },
        "status": "final",
        "subject": {
          "reference": "urn:uuid:95473641-3115-4d9f-a945-68f6c6738da2"
        },
        "effectiveDateTime": "2024-11-18",
        "valueCodeableConcept": {
          "coding": [
            {
              "code": "260385009",
              "system": "http://snomed.info/sct",
              "display": "Negative"
            }
          ]
        },
        "specimen": {
          "reference": "urn:uuid:41d3d97a-9660-48a0-92bb-1750948f679e"
        }
      }
    },
    {
      "fullUrl": "urn:uuid:51c7e3ce-f8a9-4c5e-bd45-e84beff4da05",
      "resource": {
        "resourceType": "Observation",
        "id": "51c7e3ce-f8a9-4c5e-bd45-e84beff4da05",
        "meta": {
          "profile": [
            "http://hl7.eu/fhir/laboratory/StructureDefinition/Observation-resultslab-eu-lab"
          ]
        },
        "performer": [
          {
            "display": "The Central European Lab"
          }
        ],
        "category": [
          {
            "coding": [
              {
                "code": "laboratory",
                "system": "http://terminology.hl7.org/CodeSystem/observation-category"
              }
            ]
          }
        ],
        "code": {
          "coding": [
            {
              "code": "94531-1",
              "system": "http://loinc.org",
              "display": "SARS-CoV-2 (COVID-19) RNA panel - Respiratory system specimen by NAA with probe detection"
            }
          ],
          "text": "SARS-CoV-2 (COVID-19) RNA panel - Respiratory system specimen by NAA with probe detection"
        },
        "status": "final",
        "subject": {
          "reference": "urn:uuid:95473641-3115-4d9f-a945-68f6c6738da2"
        },
        "effectiveDateTime": "2024-11-18",
        "valueCodeableConcept": {
          "coding": [
            {
              "code": "260373001",
              "system": "http://snomed.info/sct",
              "display": "Detected"
            }
          ]
        },
        "specimen": {
          "reference": "urn:uuid:41d3d97a-9660-48a0-92bb-1750948f679e"
        }
      }
    }
  ],
  "type": "document",
  "timestamp": "2024-11-19T18:40:44Z"
}
