{
  "resourceType": "Bundle",
  "id": "Instance-Bundle-ccc5e5f8-4e56-4ed9-aeda-1424157e92a5",
  "meta": {
    "profile": [
      "http://hl7.eu/fhir/laboratory/StructureDefinition/Bundle-eu-lab"
    ]
  },
  "identifier": {
    "assigner": {
      "display": "HL7 Europe"
    },
    "system": "urn:oid:2.16.840.1.113883.2.51.999",
    "value": "6470f945-1a55-4016-afe9-6d4a49661c83"
  },
  "entry": [
    {
      "fullUrl": "urn:uuid:e7b29ef6-1ed7-47e8-ba05-6b21a689fb7b",
      "resource": {
        "resourceType": "Composition",
        "id": "e7b29ef6-1ed7-47e8-ba05-6b21a689fb7b",
        "meta": {
          "profile": [
            "http://hl7.eu/fhir/laboratory/StructureDefinition/Composition-eu-lab"
          ]
        },
        "identifier": {
          "assigner": {
            "display": "HL7 Europe"
          },
          "system": "urn:oid:2.16.840.1.113883.2.51.999",
          "value": "5c065c91-54a9-4fba-a495-1245898c53b3"
        },
        "author": [
          {
            "reference": "urn:uuid:fc6a5e33-bb8d-42a8-89dd-6a55ca5d934d"
          }
        ],
        "category": [
          {
            "coding": [
              {
                "code": "26436-6",
                "system": "http://loinc.org",
                "display": "Laboratory studies (set)"
              }
            ]
          }
        ],
        "type": {
          "text": "Laboratory Report"
        },
        "section": [
          {
            "code": {
              "coding": [
                {
                  "code": "26436-6",
                  "system": "http://loinc.org",
                  "display": "Laboratory studies (set)"
                }
              ],
              "text": "Laboratory studies"
            },
            "section": [
              {
                "code": {
                  "coding": [
                    {
                      "code": "18719-5",
                      "system": "http://loinc.org",
                      "display": "Chemistry studies (set)"
                    }
                  ],
                  "text": "Chemistry"
                },
                "entry": [
                  {
                    "reference": "urn:uuid:b9e77ce4-3020-4ef2-ac03-901a5231d4f0"
                  },
                  {
                    "reference": "urn:uuid:38309378-118e-4118-84b0-578fc9afd883"
                  },
                  {
                    "reference": "urn:uuid:77443c90-6836-4fae-926d-b984f484bbf1"
                  },
                  {
                    "reference": "urn:uuid:222721a0-41a1-40e9-856c-aaeaedcc2336"
                  }
                ],
                "text": {
                  "status": "generated",
                  "div": "<div xmlns=\"http://www.w3.org/1999/xhtml\"><h3 id=\"section-1\">Chemistry</h3><table class=\"hl7__eu__lab__report\"><thead><tr><th>Test</th><th>18 Nov 2024</th><th>Reference Range</th><th>Unit</th></tr></thead><tbody><tr><td>Cholesterol [Mass/volume] in Serum or Plasma</td><td>185.1</td><td>125 - 200</td><td>mg/dL</td></tr><tr><td>Triglyceride [Mass/volume] in Serum or Plasma</td><td>105.4</td><td>35 - 150</td><td>mg/dL</td></tr><tr><td>Cholesterol in LDL [Mass/volume] in Serum or Plasma by Direct assay</td><td>98.0</td><td>0 - 130</td><td>mg/dL</td></tr><tr><td>Cholesterol in HDL [Mass/volume] in Serum or Plasma</td><td>66.0</td><td>50 - 100</td><td>mg/dL</td></tr></tbody></table></div>"
                },
                "title": "Chemistry"
              }
            ],
            "title": "Laboratory Report"
          }
        ],
        "status": "final",
        "subject": {
          "reference": "urn:uuid:a8636ba8-2c02-42e2-ba18-4727825939de"
        },
        "date": "2024-11-19T18:41:23Z",
        "title": "Laboratory Report",
        "confidentiality": "N"
      }
    },
    {
      "fullUrl": "urn:uuid:d7a0baf0-2656-47ed-a435-f6f4773cb4ed",
      "resource": {
        "resourceType": "DiagnosticReport",
        "id": "d7a0baf0-2656-47ed-a435-f6f4773cb4ed",
        "meta": {
          "profile": [
            "http://hl7.eu/fhir/laboratory/StructureDefinition/DiagnosticReport-eu-lab"
          ]
        },
        "identifier": [
          {
            "assigner": {
              "display": "HL7 Europe"
            },
            "system": "urn:oid:2.16.840.1.113883.2.51.999",
            "value": "3bd97c99-a60a-47bd-9920-1c586c325c25"
          }
        ],
        "extension": [
          {
            "url": "http://hl7.org/fhir/5.0/StructureDefinition/extension-DiagnosticReport.composition",
            "valueReference": {
              "reference": "urn:uuid:e7b29ef6-1ed7-47e8-ba05-6b21a689fb7b"
            }
          }
        ],
        "category": [
          {
            "coding": [
              {
                "code": "18719-5",
                "system": "http://loinc.org",
                "display": "Chemistry studies (set)"
              }
            ]
          }
        ],
        "specimen": [
          {
            "reference": "urn:uuid:bdf0ac7f-5d39-458e-ad5d-9cfed70831de"
          }
        ],
        "result": [
          {
            "reference": "urn:uuid:b9e77ce4-3020-4ef2-ac03-901a5231d4f0"
          },
          {
            "reference": "urn:uuid:38309378-118e-4118-84b0-578fc9afd883"
          },
          {
            "reference": "urn:uuid:77443c90-6836-4fae-926d-b984f484bbf1"
          },
          {
            "reference": "urn:uuid:222721a0-41a1-40e9-856c-aaeaedcc2336"
          }
        ],
        "status": "registered",
        "code": {
          "coding": [
            {
              "code": "11502-2",
              "system": "http://loinc.org",
              "display": "Laboratory report"
            }
          ]
        },
        "subject": {
          "reference": "urn:uuid:a8636ba8-2c02-42e2-ba18-4727825939de"
        }
      }
    },
    {
      "fullUrl": "urn:uuid:a8636ba8-2c02-42e2-ba18-4727825939de",
      "resource": {
        "resourceType": "Patient",
        "id": "a8636ba8-2c02-42e2-ba18-4727825939de",
        "meta": {
          "profile": [
            "http://hl7.eu/fhir/laboratory/StructureDefinition/Patient-eu-lab"
          ]
        },
        "identifier": [
          {
            "type": {
              "coding": [
                {
                  "code": "NI",
                  "system": "http://terminology.hl7.org/CodeSystem/v2-0203"
                }
              ]
            },
            "system": "http://ec.europa.eu/identifier/eci",
            "value": "4109-546582-3"
          },
          {
            "type": {
              "coding": [
                {
                  "code": "MR",
                  "system": "http://terminology.hl7.org/CodeSystem/v2-0203"
                }
              ]
            },
            "system": "http://local.setting.eu/identifier",
            "value": "157ee2f8-4de9-4fbd-bf79-ead0d2d3a74e"
          }
        ],
        "name": [
          {
            "given": [
              "Kinga"
            ],
            "family": "Wysocka",
            "text": "Kinga Wysocka"
          }
        ],
        "address": [
          {
            "line": [
              "ul. Orzechowskiego 101"
            ],
            "use": "home",
            "type": "physical",
            "city": "Częstochowa",
            "postalCode": "42-200",
            "country": "Poland"
          }
        ],
        "telecom": [
          {
            "system": "phone",
            "value": "+48 88 949 46 65"
          }
        ],
        "gender": "female",
        "birthDate": "1979-08-02"
      }
    },
    {
      "fullUrl": "urn:uuid:5206179d-3c76-4fd0-974e-78e35572a6b1",
      "resource": {
        "resourceType": "ServiceRequest",
        "id": "5206179d-3c76-4fd0-974e-78e35572a6b1",
        "meta": {
          "profile": [
            "http://hl7.eu/fhir/laboratory/StructureDefinition/ServiceRequest-eu-lab"
          ]
        },
        "identifier": [
          {
            "system": "http://example.org",
            "value": "b26ac373-f399-4c6f-b8d7-7750c44aa4ae"
          }
        ],
        "specimen": [
          {
            "reference": "urn:uuid:bdf0ac7f-5d39-458e-ad5d-9cfed70831de"
          }
        ],
        "status": "active",
        "intent": "order",
        "code": {
          "coding": [
            {
              "code": "108252007",
              "system": "http://snomed.info/sct",
              "display": "Laboratory procedure"
            }
          ]
        },
        "subject": {
          "reference": "urn:uuid:a8636ba8-2c02-42e2-ba18-4727825939de"
        },
        "requester": {
          "reference": "urn:uuid:0ce7cfa3-dae5-4e56-a3dd-b89e3674d113"
        }
      }
    },
    {
      "fullUrl": "urn:uuid:0ce7cfa3-dae5-4e56-a3dd-b89e3674d113",
      "resource": {
        "resourceType": "PractitionerRole",
        "id": "0ce7cfa3-dae5-4e56-a3dd-b89e3674d113",
        "meta": {
          "profile": [
            "http://hl7.eu/fhir/laboratory/StructureDefinition/PractitionerRole-eu-lab"
          ]
        },
        "organization": {
          "reference": "urn:uuid:15905f43-425d-4e71-ad39-948dc08bc2fd"
        }
      }
    },
    {
      "fullUrl": "urn:uuid:15905f43-425d-4e71-ad39-948dc08bc2fd",
      "resource": {
        "resourceType": "Organization",
        "id": "15905f43-425d-4e71-ad39-948dc08bc2fd",
        "meta": {
          "profile": [
            "http://hl7.org/fhir/uv/ips/StructureDefinition/Organization-uv-ips"
          ]
        },
        "identifier": [
          {
            "assigner": {
              "display": "HL7 Europe"
            },
            "system": "urn:oid:2.16.840.1.113883.2.51.999",
            "value": "c690ced9-db52-432e-b1a5-88e9765e4dc0"
          }
        ],
        "address": [
          {
            "city": "Konopiska",
            "postalCode": "42-274",
            "country": "pl"
          }
        ],
        "name": "Poradnia w Hutkach"
      }
    },
    {
      "fullUrl": "urn:uuid:fc6a5e33-bb8d-42a8-89dd-6a55ca5d934d",
      "resource": {
        "resourceType": "PractitionerRole",
        "id": "fc6a5e33-bb8d-42a8-89dd-6a55ca5d934d",
        "meta": {
          "profile": [
            "http://hl7.eu/fhir/laboratory/StructureDefinition/PractitionerRole-eu-lab"
          ]
        },
        "practitioner": {
          "reference": "urn:uuid:ff725594-e039-4f49-bcfa-fccfc85ce579"
        }
      }
    },
    {
      "fullUrl": "urn:uuid:ff725594-e039-4f49-bcfa-fccfc85ce579",
      "resource": {
        "resourceType": "Practitioner",
        "id": "ff725594-e039-4f49-bcfa-fccfc85ce579",
        "meta": {
          "profile": [
            "http://hl7.eu/fhir/laboratory/StructureDefinition/Practitioner-eu-lab"
          ]
        },
        "identifier": [
          {
            "assigner": {
              "display": "HL7 Europe"
            },
            "system": "urn:oid:2.16.840.1.113883.2.51.999",
            "value": "1f31438d-7c0b-4a40-b7eb-3e0589e49d47"
          }
        ],
        "name": [
          {
            "prefix": [
              "dr"
            ],
            "given": [
              "Ex"
            ],
            "family": "Ample"
          }
        ],
        "address": [
          {
            "line": [
              "Boulevard du Jardin Botanique 32"
            ],
            "city": "Brussels",
            "postalCode": "1000"
          }
        ]
      }
    },
    {
      "fullUrl": "urn:uuid:bdf0ac7f-5d39-458e-ad5d-9cfed70831de",
      "resource": {
        "resourceType": "Specimen",
        "id": "bdf0ac7f-5d39-458e-ad5d-9cfed70831de",
        "meta": {
          "profile": [
            "http://hl7.eu/fhir/laboratory/StructureDefinition/Specimen-eu-lab"
          ]
        },
        "collection": {
          "collectedDateTime": "2024-11-18"
        },
        "status": "available",
        "type": {
          "coding": [
            {
              "code": "122592007",
              "system": "http://snomed.info/sct",
              "display": "Acellular blood (serum or plasma) specimen (specimen)"
            }
          ]
        }
      }
    },
    {
      "fullUrl": "urn:uuid:b9e77ce4-3020-4ef2-ac03-901a5231d4f0",
      "resource": {
        "resourceType": "Observation",
        "id": "b9e77ce4-3020-4ef2-ac03-901a5231d4f0",
        "meta": {
          "profile": [
            "http://hl7.eu/fhir/laboratory/StructureDefinition/Observation-resultslab-eu-lab"
          ]
        },
        "performer": [
          {
            "display": "The Central European Lab"
          }
        ],
        "category": [
          {
            "coding": [
              {
                "code": "laboratory",
                "system": "http://terminology.hl7.org/CodeSystem/observation-category"
              }
            ]
          }
        ],
        "code": {
          "coding": [
            {
              "code": "2093-3",
              "system": "http://loinc.org",
              "display": "Cholesterol [Mass/volume] in Serum or Plasma"
            }
          ],
          "text": "Cholesterol [Mass/volume] in Serum or Plasma"
        },
        "valueQuantity": {
          "system": "http://unitsofmeasure.org",
          "value": 185.1,
          "unit": "mg/dL",
          "code": "mg/dL"
        },
        "referenceRange": [
          {
            "low": {
              "value": 125,
              "code": "mg/dL",
              "system": "http://unitsofmeasure.org"
            }
          },
          {
            "high": {
              "value": 200,
              "code": "mg/dL",
              "system": "http://unitsofmeasure.org"
            }
          }
        ],
        "status": "final",
        "subject": {
          "reference": "urn:uuid:a8636ba8-2c02-42e2-ba18-4727825939de"
        },
        "effectiveDateTime": "2024-11-18",
        "specimen": {
          "reference": "urn:uuid:bdf0ac7f-5d39-458e-ad5d-9cfed70831de"
        }
      }
    },
    {
      "fullUrl": "urn:uuid:38309378-118e-4118-84b0-578fc9afd883",
      "resource": {
        "resourceType": "Observation",
        "id": "38309378-118e-4118-84b0-578fc9afd883",
        "meta": {
          "profile": [
            "http://hl7.eu/fhir/laboratory/StructureDefinition/Observation-resultslab-eu-lab"
          ]
        },
        "performer": [
          {
            "display": "The Central European Lab"
          }
        ],
        "category": [
          {
            "coding": [
              {
                "code": "laboratory",
                "system": "http://terminology.hl7.org/CodeSystem/observation-category"
              }
            ]
          }
        ],
        "code": {
          "coding": [
            {
              "code": "2571-8",
              "system": "http://loinc.org",
              "display": "Triglyceride [Mass/volume] in Serum or Plasma"
            }
          ],
          "text": "Triglyceride [Mass/volume] in Serum or Plasma"
        },
        "valueQuantity": {
          "system": "http://unitsofmeasure.org",
          "value": 105.4,
          "unit": "mg/dL",
          "code": "mg/dL"
        },
        "referenceRange": [
          {
            "low": {
              "value": 35,
              "code": "mg/dL",
              "system": "http://unitsofmeasure.org"
            }
          },
          {
            "high": {
              "value": 150,
              "code": "mg/dL",
              "system": "http://unitsofmeasure.org"
            }
          }
        ],
        "status": "final",
        "subject": {
          "reference": "urn:uuid:a8636ba8-2c02-42e2-ba18-4727825939de"
        },
        "effectiveDateTime": "2024-11-18",
        "specimen": {
          "reference": "urn:uuid:bdf0ac7f-5d39-458e-ad5d-9cfed70831de"
        }
      }
    },
    {
      "fullUrl": "urn:uuid:77443c90-6836-4fae-926d-b984f484bbf1",
      "resource": {
        "resourceType": "Observation",
        "id": "77443c90-6836-4fae-926d-b984f484bbf1",
        "meta": {
          "profile": [
            "http://hl7.eu/fhir/laboratory/StructureDefinition/Observation-resultslab-eu-lab"
          ]
        },
        "performer": [
          {
            "display": "The Central European Lab"
          }
        ],
        "category": [
          {
            "coding": [
              {
                "code": "laboratory",
                "system": "http://terminology.hl7.org/CodeSystem/observation-category"
              }
            ]
          }
        ],
        "code": {
          "coding": [
            {
              "code": "18262-6",
              "system": "http://loinc.org",
              "display": "Cholesterol in LDL [Mass/volume] in Serum or Plasma by Direct assay"
            }
          ],
          "text": "Cholesterol in LDL [Mass/volume] in Serum or Plasma by Direct assay"
        },
        "valueQuantity": {
          "system": "http://unitsofmeasure.org",
          "value": 98,
          "unit": "mg/dL",
          "code": "mg/dL"
        },
        "referenceRange": [
          {
            "low": {
              "value": 0,
              "code": "mg/dL",
              "system": "http://unitsofmeasure.org"
            }
          },
          {
            "high": {
              "value": 130,
              "code": "mg/dL",
              "system": "http://unitsofmeasure.org"
            }
          }
        ],
        "status": "final",
        "subject": {
          "reference": "urn:uuid:a8636ba8-2c02-42e2-ba18-4727825939de"
        },
        "effectiveDateTime": "2024-11-18",
        "specimen": {
          "reference": "urn:uuid:bdf0ac7f-5d39-458e-ad5d-9cfed70831de"
        }
      }
    },
    {
      "fullUrl": "urn:uuid:222721a0-41a1-40e9-856c-aaeaedcc2336",
      "resource": {
        "resourceType": "Observation",
        "id": "222721a0-41a1-40e9-856c-aaeaedcc2336",
        "meta": {
          "profile": [
            "http://hl7.eu/fhir/laboratory/StructureDefinition/Observation-resultslab-eu-lab"
          ]
        },
        "performer": [
          {
            "display": "The Central European Lab"
          }
        ],
        "category": [
          {
            "coding": [
              {
                "code": "laboratory",
                "system": "http://terminology.hl7.org/CodeSystem/observation-category"
              }
            ]
          }
        ],
        "code": {
          "coding": [
            {
              "code": "2085-9",
              "system": "http://loinc.org",
              "display": "Cholesterol in HDL [Mass/volume] in Serum or Plasma"
            }
          ],
          "text": "Cholesterol in HDL [Mass/volume] in Serum or Plasma"
        },
        "valueQuantity": {
          "system": "http://unitsofmeasure.org",
          "value": 66,
          "unit": "mg/dL",
          "code": "mg/dL"
        },
        "referenceRange": [
          {
            "low": {
              "value": 50,
              "code": "mg/dL",
              "system": "http://unitsofmeasure.org"
            }
          },
          {
            "high": {
              "value": 100,
              "code": "mg/dL",
              "system": "http://unitsofmeasure.org"
            }
          }
        ],
        "status": "final",
        "subject": {
          "reference": "urn:uuid:a8636ba8-2c02-42e2-ba18-4727825939de"
        },
        "effectiveDateTime": "2024-11-18",
        "specimen": {
          "reference": "urn:uuid:bdf0ac7f-5d39-458e-ad5d-9cfed70831de"
        }
      }
    }
  ],
  "type": "document",
  "timestamp": "2024-11-19T18:41:23Z"
}
