{
  "resourceType": "Bundle",
  "id": "Instance-Bundle-768814cb-5362-4ad8-8617-5a1cfc9deac6",
  "meta": {
    "profile": [
      "http://hl7.eu/fhir/laboratory/StructureDefinition/Bundle-eu-lab"
    ]
  },
  "identifier": {
    "assigner": {
      "display": "HL7 Europe"
    },
    "system": "urn:oid:2.16.840.1.113883.2.51.999",
    "value": "2f72ff14-d6e6-4fe2-95ab-c09ac2731f8e"
  },
  "entry": [
    {
      "fullUrl": "urn:uuid:72b929d4-1c08-45f6-a165-551ab6ce368e",
      "resource": {
        "resourceType": "Composition",
        "id": "72b929d4-1c08-45f6-a165-551ab6ce368e",
        "meta": {
          "profile": [
            "http://hl7.eu/fhir/laboratory/StructureDefinition/Composition-eu-lab"
          ]
        },
        "identifier": {
          "assigner": {
            "display": "HL7 Europe"
          },
          "system": "urn:oid:2.16.840.1.113883.2.51.999",
          "value": "aeca800c-e065-4da1-8ce4-4eccb0cb8799"
        },
        "author": [
          {
            "reference": "urn:uuid:fd15c98b-de52-40ec-b325-7700485fdc25"
          }
        ],
        "category": [
          {
            "coding": [
              {
                "code": "26436-6",
                "system": "http://loinc.org",
                "display": "Laboratory studies (set)"
              }
            ]
          }
        ],
        "type": {
          "text": "Laboratory Report"
        },
        "section": [
          {
            "code": {
              "coding": [
                {
                  "code": "26436-6",
                  "system": "http://loinc.org",
                  "display": "Laboratory studies (set)"
                }
              ],
              "text": "Laboratory studies"
            },
            "section": [
              {
                "code": {
                  "coding": [
                    {
                      "code": "18719-5",
                      "system": "http://loinc.org",
                      "display": "Chemistry studies (set)"
                    }
                  ],
                  "text": "Chemistry"
                },
                "entry": [
                  {
                    "reference": "urn:uuid:6f29ddf2-4e50-43da-86f7-28c3fab98594"
                  }
                ],
                "text": {
                  "status": "generated",
                  "div": "<div xmlns=\"http://www.w3.org/1999/xhtml\"><h3 id=\"section-1\">Chemistry</h3><table class=\"hl7__eu__lab__report\"><thead><tr><th>Test</th><th>18 Nov 2024</th><th>Reference Range</th><th>Unit</th></tr></thead><tbody><tr><td>Oxygen saturation in Arterial blood</td><td><strong>76.5 L</strong></td><td>95 - 100</td><td>%</td></tr></tbody></table></div>"
                },
                "title": "Chemistry"
              },
              {
                "code": {
                  "coding": [
                    {
                      "code": "18725-2",
                      "system": "http://loinc.org",
                      "display": "Microbiology studies"
                    }
                  ],
                  "text": "Microbiology"
                },
                "entry": [
                  {
                    "reference": "urn:uuid:5951c585-989c-4c33-917f-53664bb72e63"
                  },
                  {
                    "reference": "urn:uuid:f185f5e3-e3ff-4a3f-9031-ac8cd95bdf86"
                  },
                  {
                    "reference": "urn:uuid:fe341db0-fa47-41e1-b179-45f42500178d"
                  },
                  {
                    "reference": "urn:uuid:17c2c255-241b-4bb6-bfde-b6b1bb85d2f2"
                  },
                  {
                    "reference": "urn:uuid:35996466-a328-4e6f-8b63-d6a3e5a12028"
                  },
                  {
                    "reference": "urn:uuid:63a2e9c8-d647-444e-bc67-aac3406aa6ac"
                  },
                  {
                    "reference": "urn:uuid:cc842c30-47b5-469a-af82-70ff3954935a"
                  },
                  {
                    "reference": "urn:uuid:3d5b4a6b-49a7-4ffa-bd97-82072dca9938"
                  },
                  {
                    "reference": "urn:uuid:b3a7a741-a553-4b89-92b9-67505b215032"
                  }
                ],
                "text": {
                  "status": "generated",
                  "div": "<div xmlns=\"http://www.w3.org/1999/xhtml\"><h3 id=\"section-2\">Microbiology</h3><table class=\"hl7__eu__lab__report\"><thead><tr><th>Test</th><th>18 Nov 2024</th><th>Reference Range</th><th>Unit</th></tr></thead><tbody><tr><td>Influenza virus A RNA [Presence] in Respiratory system specimen by NAA with probe detection</td><td>Negative</td><td></td><td></td></tr><tr><td>Influenza virus B RNA [Presence] in Respiratory system specimen by NAA with probe detection</td><td>Negative</td><td></td><td></td></tr><tr><td>Respiratory syncytial virus RNA [Presence] in Respiratory system specimen by NAA with probe detection</td><td>Negative</td><td></td><td></td></tr><tr><td>Parainfluenza virus 1 RNA [Presence] in Respiratory system specimen by NAA with probe detection</td><td>Negative</td><td></td><td></td></tr><tr><td>Parainfluenza virus 2 RNA [Presence] in Respiratory system specimen by NAA with probe detection</td><td>Negative</td><td></td><td></td></tr><tr><td>Parainfluenza virus 3 RNA [Presence] in Respiratory system specimen by NAA with probe detection</td><td>Negative</td><td></td><td></td></tr><tr><td>Rhinovirus RNA [Presence] in Respiratory system specimen by NAA with probe detection</td><td>Negative</td><td></td><td></td></tr><tr><td>Human metapneumovirus RNA [Presence] in Respiratory system specimen by NAA with probe detection</td><td>Negative</td><td></td><td></td></tr><tr><td>Adenovirus A+B+C+D+E DNA [Presence] in Respiratory system specimen by NAA with probe detection</td><td>Negative</td><td></td><td></td></tr></tbody></table></div>"
                },
                "title": "Microbiology"
              },
              {
                "code": {
                  "coding": [
                    {
                      "code": "18725-2",
                      "system": "http://loinc.org",
                      "display": "Microbiology studies"
                    }
                  ],
                  "text": "Microbiology Panel"
                },
                "entry": [
                  {
                    "reference": "urn:uuid:219a438d-2105-4a3d-80fd-455731355f5b"
                  }
                ],
                "text": {
                  "status": "generated",
                  "div": "<div xmlns=\"http://www.w3.org/1999/xhtml\"><h3 id=\"section-3\">Microbiology Panel</h3><table class=\"hl7__eu__lab__report\"><thead><tr><th>Test</th><th>18 Nov 2024</th><th>Reference Range</th><th>Unit</th></tr></thead><tbody><tr><td>SARS-CoV-2 (COVID-19) RNA panel - Respiratory system specimen by NAA with probe detection</td><td>Detected</td><td></td><td></td></tr></tbody></table></div>"
                },
                "title": "Microbiology Panel"
              }
            ],
            "title": "Laboratory Report"
          }
        ],
        "status": "final",
        "subject": {
          "reference": "urn:uuid:41c7114e-57a9-4ab2-9a2e-b5e0a465a8b8"
        },
        "date": "2024-11-19T18:41:09Z",
        "title": "Laboratory Report",
        "confidentiality": "N"
      }
    },
    {
      "fullUrl": "urn:uuid:59d6d77f-34d1-4076-9698-a7d553fa2bc6",
      "resource": {
        "resourceType": "DiagnosticReport",
        "id": "59d6d77f-34d1-4076-9698-a7d553fa2bc6",
        "meta": {
          "profile": [
            "http://hl7.eu/fhir/laboratory/StructureDefinition/DiagnosticReport-eu-lab"
          ]
        },
        "identifier": [
          {
            "assigner": {
              "display": "HL7 Europe"
            },
            "system": "urn:oid:2.16.840.1.113883.2.51.999",
            "value": "e7483e02-c6b6-4019-8682-531b653539b4"
          }
        ],
        "extension": [
          {
            "url": "http://hl7.org/fhir/5.0/StructureDefinition/extension-DiagnosticReport.composition",
            "valueReference": {
              "reference": "urn:uuid:72b929d4-1c08-45f6-a165-551ab6ce368e"
            }
          }
        ],
        "category": [
          {
            "coding": [
              {
                "code": "18719-5",
                "system": "http://loinc.org",
                "display": "Chemistry studies (set)"
              }
            ]
          }
        ],
        "specimen": [
          {
            "reference": "urn:uuid:d9c93796-6dad-4e18-a9be-ad41bb7f2466"
          },
          {
            "reference": "urn:uuid:1121bbb7-ca14-49a0-9640-c4e1c7f456aa"
          }
        ],
        "result": [
          {
            "reference": "urn:uuid:6f29ddf2-4e50-43da-86f7-28c3fab98594"
          },
          {
            "reference": "urn:uuid:5951c585-989c-4c33-917f-53664bb72e63"
          },
          {
            "reference": "urn:uuid:f185f5e3-e3ff-4a3f-9031-ac8cd95bdf86"
          },
          {
            "reference": "urn:uuid:fe341db0-fa47-41e1-b179-45f42500178d"
          },
          {
            "reference": "urn:uuid:17c2c255-241b-4bb6-bfde-b6b1bb85d2f2"
          },
          {
            "reference": "urn:uuid:35996466-a328-4e6f-8b63-d6a3e5a12028"
          },
          {
            "reference": "urn:uuid:63a2e9c8-d647-444e-bc67-aac3406aa6ac"
          },
          {
            "reference": "urn:uuid:cc842c30-47b5-469a-af82-70ff3954935a"
          },
          {
            "reference": "urn:uuid:3d5b4a6b-49a7-4ffa-bd97-82072dca9938"
          },
          {
            "reference": "urn:uuid:b3a7a741-a553-4b89-92b9-67505b215032"
          },
          {
            "reference": "urn:uuid:219a438d-2105-4a3d-80fd-455731355f5b"
          }
        ],
        "status": "registered",
        "code": {
          "coding": [
            {
              "code": "11502-2",
              "system": "http://loinc.org",
              "display": "Laboratory report"
            }
          ]
        },
        "subject": {
          "reference": "urn:uuid:41c7114e-57a9-4ab2-9a2e-b5e0a465a8b8"
        }
      }
    },
    {
      "fullUrl": "urn:uuid:41c7114e-57a9-4ab2-9a2e-b5e0a465a8b8",
      "resource": {
        "resourceType": "Patient",
        "id": "41c7114e-57a9-4ab2-9a2e-b5e0a465a8b8",
        "meta": {
          "profile": [
            "http://hl7.eu/fhir/laboratory/StructureDefinition/Patient-eu-lab"
          ]
        },
        "identifier": [
          {
            "type": {
              "coding": [
                {
                  "code": "NI",
                  "system": "http://terminology.hl7.org/CodeSystem/v2-0203"
                }
              ]
            },
            "system": "http://ec.europa.eu/identifier/eci",
            "value": "8590-487071-5"
          },
          {
            "type": {
              "coding": [
                {
                  "code": "MR",
                  "system": "http://terminology.hl7.org/CodeSystem/v2-0203"
                }
              ]
            },
            "system": "http://local.setting.eu/identifier",
            "value": "9e87bce1-c48e-4a58-b193-b543119a93fd"
          }
        ],
        "name": [
          {
            "given": [
              "Josefine"
            ],
            "family": "Hedegaard",
            "text": "Josefine Hedegaard"
          }
        ],
        "address": [
          {
            "line": [
              "Sjötullsgatan 14"
            ],
            "use": "home",
            "type": "physical",
            "city": "Åmmeberg",
            "postalCode": "696 03",
            "country": "Sweden"
          }
        ],
        "telecom": [
          {
            "system": "phone",
            "value": "+46 0583-7785753"
          }
        ],
        "gender": "female",
        "birthDate": "2004-01-11"
      }
    },
    {
      "fullUrl": "urn:uuid:f37e541a-7d6c-4644-9189-25c6509589eb",
      "resource": {
        "resourceType": "ServiceRequest",
        "id": "f37e541a-7d6c-4644-9189-25c6509589eb",
        "meta": {
          "profile": [
            "http://hl7.eu/fhir/laboratory/StructureDefinition/ServiceRequest-eu-lab"
          ]
        },
        "identifier": [
          {
            "system": "http://example.org",
            "value": "f2751610-139d-46b7-bb29-275591521de9"
          }
        ],
        "specimen": [
          {
            "reference": "urn:uuid:d9c93796-6dad-4e18-a9be-ad41bb7f2466"
          },
          {
            "reference": "urn:uuid:1121bbb7-ca14-49a0-9640-c4e1c7f456aa"
          }
        ],
        "status": "active",
        "intent": "order",
        "code": {
          "coding": [
            {
              "code": "108252007",
              "system": "http://snomed.info/sct",
              "display": "Laboratory procedure"
            }
          ]
        },
        "subject": {
          "reference": "urn:uuid:41c7114e-57a9-4ab2-9a2e-b5e0a465a8b8"
        },
        "requester": {
          "reference": "urn:uuid:ba3cb380-e753-4d67-b65e-2dccd0293ba8"
        }
      }
    },
    {
      "fullUrl": "urn:uuid:ba3cb380-e753-4d67-b65e-2dccd0293ba8",
      "resource": {
        "resourceType": "PractitionerRole",
        "id": "ba3cb380-e753-4d67-b65e-2dccd0293ba8",
        "meta": {
          "profile": [
            "http://hl7.eu/fhir/laboratory/StructureDefinition/PractitionerRole-eu-lab"
          ]
        },
        "organization": {
          "reference": "urn:uuid:3b7ef016-089c-4f2f-a2bd-71109d418717"
        }
      }
    },
    {
      "fullUrl": "urn:uuid:3b7ef016-089c-4f2f-a2bd-71109d418717",
      "resource": {
        "resourceType": "Organization",
        "id": "3b7ef016-089c-4f2f-a2bd-71109d418717",
        "meta": {
          "profile": [
            "http://hl7.org/fhir/uv/ips/StructureDefinition/Organization-uv-ips"
          ]
        },
        "identifier": [
          {
            "assigner": {
              "display": "HL7 Europe"
            },
            "system": "urn:oid:2.16.840.1.113883.2.51.999",
            "value": "330f85d6-3584-49d1-a6a7-2046ee066bb9"
          }
        ],
        "address": [
          {
            "city": "Eksjö",
            "postalCode": "575 31",
            "country": "se"
          }
        ],
        "name": "Höglandssjukhuset Eksjö"
      }
    },
    {
      "fullUrl": "urn:uuid:fd15c98b-de52-40ec-b325-7700485fdc25",
      "resource": {
        "resourceType": "PractitionerRole",
        "id": "fd15c98b-de52-40ec-b325-7700485fdc25",
        "meta": {
          "profile": [
            "http://hl7.eu/fhir/laboratory/StructureDefinition/PractitionerRole-eu-lab"
          ]
        },
        "practitioner": {
          "reference": "urn:uuid:0699240e-3a26-4b16-b66f-2749ff951513"
        }
      }
    },
    {
      "fullUrl": "urn:uuid:0699240e-3a26-4b16-b66f-2749ff951513",
      "resource": {
        "resourceType": "Practitioner",
        "id": "0699240e-3a26-4b16-b66f-2749ff951513",
        "meta": {
          "profile": [
            "http://hl7.eu/fhir/laboratory/StructureDefinition/Practitioner-eu-lab"
          ]
        },
        "identifier": [
          {
            "assigner": {
              "display": "HL7 Europe"
            },
            "system": "urn:oid:2.16.840.1.113883.2.51.999",
            "value": "7179ce7c-0f59-4539-8c77-3de5bbcea930"
          }
        ],
        "name": [
          {
            "prefix": [
              "dr"
            ],
            "given": [
              "Ex"
            ],
            "family": "Ample"
          }
        ],
        "address": [
          {
            "line": [
              "Boulevard du Jardin Botanique 32"
            ],
            "city": "Brussels",
            "postalCode": "1000"
          }
        ]
      }
    },
    {
      "fullUrl": "urn:uuid:d9c93796-6dad-4e18-a9be-ad41bb7f2466",
      "resource": {
        "resourceType": "Specimen",
        "id": "d9c93796-6dad-4e18-a9be-ad41bb7f2466",
        "meta": {
          "profile": [
            "http://hl7.eu/fhir/laboratory/StructureDefinition/Specimen-eu-lab"
          ]
        },
        "collection": {
          "collectedDateTime": "2024-11-18"
        },
        "status": "available",
        "type": {
          "coding": [
            {
              "code": "122552005",
              "system": "http://snomed.info/sct",
              "display": "Arterial blood specimen (specimen)"
            }
          ]
        }
      }
    },
    {
      "fullUrl": "urn:uuid:1121bbb7-ca14-49a0-9640-c4e1c7f456aa",
      "resource": {
        "resourceType": "Specimen",
        "id": "1121bbb7-ca14-49a0-9640-c4e1c7f456aa",
        "meta": {
          "profile": [
            "http://hl7.eu/fhir/laboratory/StructureDefinition/Specimen-eu-lab"
          ]
        },
        "collection": {
          "collectedDateTime": "2024-11-18"
        },
        "status": "available",
        "type": {
          "coding": [
            {
              "code": "258603007",
              "system": "http://snomed.info/sct",
              "display": "Respiratory specimen (specimen)"
            }
          ]
        }
      }
    },
    {
      "fullUrl": "urn:uuid:6f29ddf2-4e50-43da-86f7-28c3fab98594",
      "resource": {
        "resourceType": "Observation",
        "id": "6f29ddf2-4e50-43da-86f7-28c3fab98594",
        "meta": {
          "profile": [
            "http://hl7.eu/fhir/laboratory/StructureDefinition/Observation-resultslab-eu-lab"
          ]
        },
        "performer": [
          {
            "display": "The Central European Lab"
          }
        ],
        "category": [
          {
            "coding": [
              {
                "code": "laboratory",
                "system": "http://terminology.hl7.org/CodeSystem/observation-category"
              }
            ]
          }
        ],
        "code": {
          "coding": [
            {
              "code": "2708-6",
              "system": "http://loinc.org",
              "display": "Oxygen saturation in Arterial blood"
            }
          ],
          "text": "Oxygen saturation in Arterial blood"
        },
        "valueQuantity": {
          "system": "http://unitsofmeasure.org",
          "value": 76.5,
          "unit": "%",
          "code": "%"
        },
        "referenceRange": [
          {
            "low": {
              "value": 95,
              "code": "%",
              "system": "http://unitsofmeasure.org"
            }
          },
          {
            "high": {
              "value": 100,
              "code": "%",
              "system": "http://unitsofmeasure.org"
            }
          }
        ],
        "interpretation": [
          {
            "coding": [
              {
                "code": "L",
                "system": "http://terminology.hl7.org/CodeSystem/v3-ObservationInterpretation",
                "display": "Low"
              }
            ]
          }
        ],
        "status": "final",
        "subject": {
          "reference": "urn:uuid:41c7114e-57a9-4ab2-9a2e-b5e0a465a8b8"
        },
        "effectiveDateTime": "2024-11-18",
        "specimen": {
          "reference": "urn:uuid:d9c93796-6dad-4e18-a9be-ad41bb7f2466"
        }
      }
    },
    {
      "fullUrl": "urn:uuid:5951c585-989c-4c33-917f-53664bb72e63",
      "resource": {
        "resourceType": "Observation",
        "id": "5951c585-989c-4c33-917f-53664bb72e63",
        "meta": {
          "profile": [
            "http://hl7.eu/fhir/laboratory/StructureDefinition/Observation-resultslab-eu-lab"
          ]
        },
        "performer": [
          {
            "display": "The Central European Lab"
          }
        ],
        "category": [
          {
            "coding": [
              {
                "code": "laboratory",
                "system": "http://terminology.hl7.org/CodeSystem/observation-category"
              }
            ]
          }
        ],
        "code": {
          "coding": [
            {
              "code": "92142-9",
              "system": "http://loinc.org",
              "display": "Influenza virus A RNA [Presence] in Respiratory system specimen by NAA with probe detection"
            }
          ],
          "text": "Influenza virus A RNA [Presence] in Respiratory system specimen by NAA with probe detection"
        },
        "status": "final",
        "subject": {
          "reference": "urn:uuid:41c7114e-57a9-4ab2-9a2e-b5e0a465a8b8"
        },
        "effectiveDateTime": "2024-11-18",
        "valueCodeableConcept": {
          "coding": [
            {
              "code": "260385009",
              "system": "http://snomed.info/sct",
              "display": "Negative"
            }
          ]
        },
        "specimen": {
          "reference": "urn:uuid:1121bbb7-ca14-49a0-9640-c4e1c7f456aa"
        }
      }
    },
    {
      "fullUrl": "urn:uuid:f185f5e3-e3ff-4a3f-9031-ac8cd95bdf86",
      "resource": {
        "resourceType": "Observation",
        "id": "f185f5e3-e3ff-4a3f-9031-ac8cd95bdf86",
        "meta": {
          "profile": [
            "http://hl7.eu/fhir/laboratory/StructureDefinition/Observation-resultslab-eu-lab"
          ]
        },
        "performer": [
          {
            "display": "The Central European Lab"
          }
        ],
        "category": [
          {
            "coding": [
              {
                "code": "laboratory",
                "system": "http://terminology.hl7.org/CodeSystem/observation-category"
              }
            ]
          }
        ],
        "code": {
          "coding": [
            {
              "code": "92141-1",
              "system": "http://loinc.org",
              "display": "Influenza virus B RNA [Presence] in Respiratory system specimen by NAA with probe detection"
            }
          ],
          "text": "Influenza virus B RNA [Presence] in Respiratory system specimen by NAA with probe detection"
        },
        "status": "final",
        "subject": {
          "reference": "urn:uuid:41c7114e-57a9-4ab2-9a2e-b5e0a465a8b8"
        },
        "effectiveDateTime": "2024-11-18",
        "valueCodeableConcept": {
          "coding": [
            {
              "code": "260385009",
              "system": "http://snomed.info/sct",
              "display": "Negative"
            }
          ]
        },
        "specimen": {
          "reference": "urn:uuid:1121bbb7-ca14-49a0-9640-c4e1c7f456aa"
        }
      }
    },
    {
      "fullUrl": "urn:uuid:fe341db0-fa47-41e1-b179-45f42500178d",
      "resource": {
        "resourceType": "Observation",
        "id": "fe341db0-fa47-41e1-b179-45f42500178d",
        "meta": {
          "profile": [
            "http://hl7.eu/fhir/laboratory/StructureDefinition/Observation-resultslab-eu-lab"
          ]
        },
        "performer": [
          {
            "display": "The Central European Lab"
          }
        ],
        "category": [
          {
            "coding": [
              {
                "code": "laboratory",
                "system": "http://terminology.hl7.org/CodeSystem/observation-category"
              }
            ]
          }
        ],
        "code": {
          "coding": [
            {
              "code": "92131-2",
              "system": "http://loinc.org",
              "display": "Respiratory syncytial virus RNA [Presence] in Respiratory system specimen by NAA with probe detection"
            }
          ],
          "text": "Respiratory syncytial virus RNA [Presence] in Respiratory system specimen by NAA with probe detection"
        },
        "status": "final",
        "subject": {
          "reference": "urn:uuid:41c7114e-57a9-4ab2-9a2e-b5e0a465a8b8"
        },
        "effectiveDateTime": "2024-11-18",
        "valueCodeableConcept": {
          "coding": [
            {
              "code": "260385009",
              "system": "http://snomed.info/sct",
              "display": "Negative"
            }
          ]
        },
        "specimen": {
          "reference": "urn:uuid:1121bbb7-ca14-49a0-9640-c4e1c7f456aa"
        }
      }
    },
    {
      "fullUrl": "urn:uuid:17c2c255-241b-4bb6-bfde-b6b1bb85d2f2",
      "resource": {
        "resourceType": "Observation",
        "id": "17c2c255-241b-4bb6-bfde-b6b1bb85d2f2",
        "meta": {
          "profile": [
            "http://hl7.eu/fhir/laboratory/StructureDefinition/Observation-resultslab-eu-lab"
          ]
        },
        "performer": [
          {
            "display": "The Central European Lab"
          }
        ],
        "category": [
          {
            "coding": [
              {
                "code": "laboratory",
                "system": "http://terminology.hl7.org/CodeSystem/observation-category"
              }
            ]
          }
        ],
        "code": {
          "coding": [
            {
              "code": "92140-3",
              "system": "http://loinc.org",
              "display": "Parainfluenza virus 1 RNA [Presence] in Respiratory system specimen by NAA with probe detection"
            }
          ],
          "text": "Parainfluenza virus 1 RNA [Presence] in Respiratory system specimen by NAA with probe detection"
        },
        "status": "final",
        "subject": {
          "reference": "urn:uuid:41c7114e-57a9-4ab2-9a2e-b5e0a465a8b8"
        },
        "effectiveDateTime": "2024-11-18",
        "valueCodeableConcept": {
          "coding": [
            {
              "code": "260385009",
              "system": "http://snomed.info/sct",
              "display": "Negative"
            }
          ]
        },
        "specimen": {
          "reference": "urn:uuid:1121bbb7-ca14-49a0-9640-c4e1c7f456aa"
        }
      }
    },
    {
      "fullUrl": "urn:uuid:35996466-a328-4e6f-8b63-d6a3e5a12028",
      "resource": {
        "resourceType": "Observation",
        "id": "35996466-a328-4e6f-8b63-d6a3e5a12028",
        "meta": {
          "profile": [
            "http://hl7.eu/fhir/laboratory/StructureDefinition/Observation-resultslab-eu-lab"
          ]
        },
        "performer": [
          {
            "display": "The Central European Lab"
          }
        ],
        "category": [
          {
            "coding": [
              {
                "code": "laboratory",
                "system": "http://terminology.hl7.org/CodeSystem/observation-category"
              }
            ]
          }
        ],
        "code": {
          "coding": [
            {
              "code": "92139-5",
              "system": "http://loinc.org",
              "display": "Parainfluenza virus 2 RNA [Presence] in Respiratory system specimen by NAA with probe detection"
            }
          ],
          "text": "Parainfluenza virus 2 RNA [Presence] in Respiratory system specimen by NAA with probe detection"
        },
        "status": "final",
        "subject": {
          "reference": "urn:uuid:41c7114e-57a9-4ab2-9a2e-b5e0a465a8b8"
        },
        "effectiveDateTime": "2024-11-18",
        "valueCodeableConcept": {
          "coding": [
            {
              "code": "260385009",
              "system": "http://snomed.info/sct",
              "display": "Negative"
            }
          ]
        },
        "specimen": {
          "reference": "urn:uuid:1121bbb7-ca14-49a0-9640-c4e1c7f456aa"
        }
      }
    },
    {
      "fullUrl": "urn:uuid:63a2e9c8-d647-444e-bc67-aac3406aa6ac",
      "resource": {
        "resourceType": "Observation",
        "id": "63a2e9c8-d647-444e-bc67-aac3406aa6ac",
        "meta": {
          "profile": [
            "http://hl7.eu/fhir/laboratory/StructureDefinition/Observation-resultslab-eu-lab"
          ]
        },
        "performer": [
          {
            "display": "The Central European Lab"
          }
        ],
        "category": [
          {
            "coding": [
              {
                "code": "laboratory",
                "system": "http://terminology.hl7.org/CodeSystem/observation-category"
              }
            ]
          }
        ],
        "code": {
          "coding": [
            {
              "code": "92138-7",
              "system": "http://loinc.org",
              "display": "Parainfluenza virus 3 RNA [Presence] in Respiratory system specimen by NAA with probe detection"
            }
          ],
          "text": "Parainfluenza virus 3 RNA [Presence] in Respiratory system specimen by NAA with probe detection"
        },
        "status": "final",
        "subject": {
          "reference": "urn:uuid:41c7114e-57a9-4ab2-9a2e-b5e0a465a8b8"
        },
        "effectiveDateTime": "2024-11-18",
        "valueCodeableConcept": {
          "coding": [
            {
              "code": "260385009",
              "system": "http://snomed.info/sct",
              "display": "Negative"
            }
          ]
        },
        "specimen": {
          "reference": "urn:uuid:1121bbb7-ca14-49a0-9640-c4e1c7f456aa"
        }
      }
    },
    {
      "fullUrl": "urn:uuid:cc842c30-47b5-469a-af82-70ff3954935a",
      "resource": {
        "resourceType": "Observation",
        "id": "cc842c30-47b5-469a-af82-70ff3954935a",
        "meta": {
          "profile": [
            "http://hl7.eu/fhir/laboratory/StructureDefinition/Observation-resultslab-eu-lab"
          ]
        },
        "performer": [
          {
            "display": "The Central European Lab"
          }
        ],
        "category": [
          {
            "coding": [
              {
                "code": "laboratory",
                "system": "http://terminology.hl7.org/CodeSystem/observation-category"
              }
            ]
          }
        ],
        "code": {
          "coding": [
            {
              "code": "92130-4",
              "system": "http://loinc.org",
              "display": "Rhinovirus RNA [Presence] in Respiratory system specimen by NAA with probe detection"
            }
          ],
          "text": "Rhinovirus RNA [Presence] in Respiratory system specimen by NAA with probe detection"
        },
        "status": "final",
        "subject": {
          "reference": "urn:uuid:41c7114e-57a9-4ab2-9a2e-b5e0a465a8b8"
        },
        "effectiveDateTime": "2024-11-18",
        "valueCodeableConcept": {
          "coding": [
            {
              "code": "260385009",
              "system": "http://snomed.info/sct",
              "display": "Negative"
            }
          ]
        },
        "specimen": {
          "reference": "urn:uuid:1121bbb7-ca14-49a0-9640-c4e1c7f456aa"
        }
      }
    },
    {
      "fullUrl": "urn:uuid:3d5b4a6b-49a7-4ffa-bd97-82072dca9938",
      "resource": {
        "resourceType": "Observation",
        "id": "3d5b4a6b-49a7-4ffa-bd97-82072dca9938",
        "meta": {
          "profile": [
            "http://hl7.eu/fhir/laboratory/StructureDefinition/Observation-resultslab-eu-lab"
          ]
        },
        "performer": [
          {
            "display": "The Central European Lab"
          }
        ],
        "category": [
          {
            "coding": [
              {
                "code": "laboratory",
                "system": "http://terminology.hl7.org/CodeSystem/observation-category"
              }
            ]
          }
        ],
        "code": {
          "coding": [
            {
              "code": "92134-6",
              "system": "http://loinc.org",
              "display": "Human metapneumovirus RNA [Presence] in Respiratory system specimen by NAA with probe detection"
            }
          ],
          "text": "Human metapneumovirus RNA [Presence] in Respiratory system specimen by NAA with probe detection"
        },
        "status": "final",
        "subject": {
          "reference": "urn:uuid:41c7114e-57a9-4ab2-9a2e-b5e0a465a8b8"
        },
        "effectiveDateTime": "2024-11-18",
        "valueCodeableConcept": {
          "coding": [
            {
              "code": "260385009",
              "system": "http://snomed.info/sct",
              "display": "Negative"
            }
          ]
        },
        "specimen": {
          "reference": "urn:uuid:1121bbb7-ca14-49a0-9640-c4e1c7f456aa"
        }
      }
    },
    {
      "fullUrl": "urn:uuid:b3a7a741-a553-4b89-92b9-67505b215032",
      "resource": {
        "resourceType": "Observation",
        "id": "b3a7a741-a553-4b89-92b9-67505b215032",
        "meta": {
          "profile": [
            "http://hl7.eu/fhir/laboratory/StructureDefinition/Observation-resultslab-eu-lab"
          ]
        },
        "performer": [
          {
            "display": "The Central European Lab"
          }
        ],
        "category": [
          {
            "coding": [
              {
                "code": "laboratory",
                "system": "http://terminology.hl7.org/CodeSystem/observation-category"
              }
            ]
          }
        ],
        "code": {
          "coding": [
            {
              "code": "94040-3",
              "system": "http://loinc.org",
              "display": "Adenovirus A+B+C+D+E DNA [Presence] in Respiratory system specimen by NAA with probe detection"
            }
          ],
          "text": "Adenovirus A+B+C+D+E DNA [Presence] in Respiratory system specimen by NAA with probe detection"
        },
        "status": "final",
        "subject": {
          "reference": "urn:uuid:41c7114e-57a9-4ab2-9a2e-b5e0a465a8b8"
        },
        "effectiveDateTime": "2024-11-18",
        "valueCodeableConcept": {
          "coding": [
            {
              "code": "260385009",
              "system": "http://snomed.info/sct",
              "display": "Negative"
            }
          ]
        },
        "specimen": {
          "reference": "urn:uuid:1121bbb7-ca14-49a0-9640-c4e1c7f456aa"
        }
      }
    },
    {
      "fullUrl": "urn:uuid:219a438d-2105-4a3d-80fd-455731355f5b",
      "resource": {
        "resourceType": "Observation",
        "id": "219a438d-2105-4a3d-80fd-455731355f5b",
        "meta": {
          "profile": [
            "http://hl7.eu/fhir/laboratory/StructureDefinition/Observation-resultslab-eu-lab"
          ]
        },
        "performer": [
          {
            "display": "The Central European Lab"
          }
        ],
        "category": [
          {
            "coding": [
              {
                "code": "laboratory",
                "system": "http://terminology.hl7.org/CodeSystem/observation-category"
              }
            ]
          }
        ],
        "code": {
          "coding": [
            {
              "code": "94531-1",
              "system": "http://loinc.org",
              "display": "SARS-CoV-2 (COVID-19) RNA panel - Respiratory system specimen by NAA with probe detection"
            }
          ],
          "text": "SARS-CoV-2 (COVID-19) RNA panel - Respiratory system specimen by NAA with probe detection"
        },
        "status": "final",
        "subject": {
          "reference": "urn:uuid:41c7114e-57a9-4ab2-9a2e-b5e0a465a8b8"
        },
        "effectiveDateTime": "2024-11-18",
        "valueCodeableConcept": {
          "coding": [
            {
              "code": "260373001",
              "system": "http://snomed.info/sct",
              "display": "Detected"
            }
          ]
        },
        "specimen": {
          "reference": "urn:uuid:1121bbb7-ca14-49a0-9640-c4e1c7f456aa"
        }
      }
    }
  ],
  "type": "document",
  "timestamp": "2024-11-19T18:41:09Z"
}
