{
  "resourceType": "Bundle",
  "id": "Instance-Bundle-68bb2e63-7af7-44da-854f-0bf0c2452c91",
  "meta": {
    "profile": [
      "http://hl7.eu/fhir/laboratory/StructureDefinition/Bundle-eu-lab"
    ]
  },
  "identifier": {
    "assigner": {
      "display": "HL7 Europe"
    },
    "system": "urn:oid:2.16.840.1.113883.2.51.999",
    "value": "b2317d3e-3ff1-4a22-8028-cb10f26dbe41"
  },
  "entry": [
    {
      "fullUrl": "urn:uuid:2ef17421-7377-4d28-b9ea-10795981668e",
      "resource": {
        "resourceType": "Composition",
        "id": "2ef17421-7377-4d28-b9ea-10795981668e",
        "meta": {
          "profile": [
            "http://hl7.eu/fhir/laboratory/StructureDefinition/Composition-eu-lab"
          ]
        },
        "identifier": {
          "assigner": {
            "display": "HL7 Europe"
          },
          "system": "urn:oid:2.16.840.1.113883.2.51.999",
          "value": "dd2d8014-3f2d-41c8-a0e1-2ed8314492b0"
        },
        "author": [
          {
            "reference": "urn:uuid:e7bf24f1-f896-41ee-9d2a-ef0519444f77"
          }
        ],
        "category": [
          {
            "coding": [
              {
                "code": "26436-6",
                "system": "http://loinc.org",
                "display": "Laboratory studies (set)"
              }
            ]
          }
        ],
        "type": {
          "text": "Laboratory Report"
        },
        "section": [
          {
            "code": {
              "coding": [
                {
                  "code": "26436-6",
                  "system": "http://loinc.org",
                  "display": "Laboratory studies (set)"
                }
              ],
              "text": "Laboratory studies"
            },
            "section": [
              {
                "code": {
                  "coding": [
                    {
                      "code": "18719-5",
                      "system": "http://loinc.org",
                      "display": "Chemistry studies (set)"
                    }
                  ],
                  "text": "Chemistry"
                },
                "entry": [
                  {
                    "reference": "urn:uuid:f49531f6-03fa-450a-bbdb-f18294f5a79e"
                  }
                ],
                "text": {
                  "status": "generated",
                  "div": "<div xmlns=\"http://www.w3.org/1999/xhtml\"><h3 id=\"section-1\">Chemistry</h3><table class=\"hl7__eu__lab__report\"><thead><tr><th>Test</th><th>18 Nov 2024</th><th>Reference Range</th><th>Unit</th></tr></thead><tbody><tr><td>Oxygen saturation in Arterial blood</td><td><strong>80.6 L</strong></td><td>95 - 100</td><td>%</td></tr></tbody></table></div>"
                },
                "title": "Chemistry"
              },
              {
                "code": {
                  "coding": [
                    {
                      "code": "18725-2",
                      "system": "http://loinc.org",
                      "display": "Microbiology studies"
                    }
                  ],
                  "text": "Microbiology"
                },
                "entry": [
                  {
                    "reference": "urn:uuid:22779c7c-2e7d-458e-a1ba-c666d169cbfc"
                  },
                  {
                    "reference": "urn:uuid:a7a35997-9aef-4461-bfa4-8c1ee5ba8df2"
                  }
                ],
                "text": {
                  "status": "generated",
                  "div": "<div xmlns=\"http://www.w3.org/1999/xhtml\"><h3 id=\"section-2\">Microbiology</h3><table class=\"hl7__eu__lab__report\"><thead><tr><th>Test</th><th>18 Nov 2024</th><th>Reference Range</th><th>Unit</th></tr></thead><tbody><tr><td>Influenza virus A Ag [Presence] in Upper respiratory specimen by Rapid immunoassay</td><td>Not detected</td><td></td><td></td></tr><tr><td>Influenza virus B Ag [Presence] in Upper respiratory specimen by Rapid immunoassay</td><td>Not detected</td><td></td><td></td></tr></tbody></table></div>"
                },
                "title": "Microbiology"
              },
              {
                "code": {
                  "coding": [
                    {
                      "code": "18725-2",
                      "system": "http://loinc.org",
                      "display": "Microbiology studies"
                    }
                  ],
                  "text": "Microbiology Panel"
                },
                "entry": [
                  {
                    "reference": "urn:uuid:09f78f1d-3882-4ea2-80d9-4ae794d4d8dd"
                  }
                ],
                "text": {
                  "status": "generated",
                  "div": "<div xmlns=\"http://www.w3.org/1999/xhtml\"><h3 id=\"section-3\">Microbiology Panel</h3><table class=\"hl7__eu__lab__report\"><thead><tr><th>Test</th><th>18 Nov 2024</th><th>Reference Range</th><th>Unit</th></tr></thead><tbody><tr><td>SARS-CoV-2 (COVID-19) RNA panel - Respiratory system specimen by NAA with probe detection</td><td>Detected</td><td></td><td></td></tr></tbody></table></div>"
                },
                "title": "Microbiology Panel"
              }
            ],
            "title": "Laboratory Report"
          }
        ],
        "status": "final",
        "subject": {
          "reference": "urn:uuid:6ce60281-fad7-4963-92f7-2c810c1587bc"
        },
        "date": "2024-11-19T18:41:26Z",
        "title": "Laboratory Report",
        "confidentiality": "N"
      }
    },
    {
      "fullUrl": "urn:uuid:b11d31f9-31c6-4519-af8c-ccf6ff6dd52c",
      "resource": {
        "resourceType": "DiagnosticReport",
        "id": "b11d31f9-31c6-4519-af8c-ccf6ff6dd52c",
        "meta": {
          "profile": [
            "http://hl7.eu/fhir/laboratory/StructureDefinition/DiagnosticReport-eu-lab"
          ]
        },
        "identifier": [
          {
            "assigner": {
              "display": "HL7 Europe"
            },
            "system": "urn:oid:2.16.840.1.113883.2.51.999",
            "value": "b964e248-57e4-4cc8-aef8-7bb64339bcaa"
          }
        ],
        "extension": [
          {
            "url": "http://hl7.org/fhir/5.0/StructureDefinition/extension-DiagnosticReport.composition",
            "valueReference": {
              "reference": "urn:uuid:2ef17421-7377-4d28-b9ea-10795981668e"
            }
          }
        ],
        "category": [
          {
            "coding": [
              {
                "code": "18719-5",
                "system": "http://loinc.org",
                "display": "Chemistry studies (set)"
              }
            ]
          }
        ],
        "specimen": [
          {
            "reference": "urn:uuid:e407d728-e3f4-47aa-8114-7dd992963057"
          },
          {
            "reference": "urn:uuid:95e8c7d0-b70e-4c1d-a5ce-3e6434a30960"
          },
          {
            "reference": "urn:uuid:178a50a9-d1b1-487c-afa5-355050727d99"
          }
        ],
        "result": [
          {
            "reference": "urn:uuid:f49531f6-03fa-450a-bbdb-f18294f5a79e"
          },
          {
            "reference": "urn:uuid:22779c7c-2e7d-458e-a1ba-c666d169cbfc"
          },
          {
            "reference": "urn:uuid:a7a35997-9aef-4461-bfa4-8c1ee5ba8df2"
          },
          {
            "reference": "urn:uuid:09f78f1d-3882-4ea2-80d9-4ae794d4d8dd"
          }
        ],
        "status": "registered",
        "code": {
          "coding": [
            {
              "code": "11502-2",
              "system": "http://loinc.org",
              "display": "Laboratory report"
            }
          ]
        },
        "subject": {
          "reference": "urn:uuid:6ce60281-fad7-4963-92f7-2c810c1587bc"
        }
      }
    },
    {
      "fullUrl": "urn:uuid:6ce60281-fad7-4963-92f7-2c810c1587bc",
      "resource": {
        "resourceType": "Patient",
        "id": "6ce60281-fad7-4963-92f7-2c810c1587bc",
        "meta": {
          "profile": [
            "http://hl7.eu/fhir/laboratory/StructureDefinition/Patient-eu-lab"
          ]
        },
        "identifier": [
          {
            "type": {
              "coding": [
                {
                  "code": "NI",
                  "system": "http://terminology.hl7.org/CodeSystem/v2-0203"
                }
              ]
            },
            "system": "http://ec.europa.eu/identifier/eci",
            "value": "2041-006958-5"
          },
          {
            "type": {
              "coding": [
                {
                  "code": "MR",
                  "system": "http://terminology.hl7.org/CodeSystem/v2-0203"
                }
              ]
            },
            "system": "http://local.setting.eu/identifier",
            "value": "627a3433-1aeb-4b13-a4c6-23e22e55e42a"
          }
        ],
        "name": [
          {
            "given": [
              "Cvitko"
            ],
            "family": "Kos",
            "text": "Cvitko Kos"
          }
        ],
        "address": [
          {
            "line": [
              "Scheidweg 141"
            ],
            "use": "home",
            "type": "physical",
            "city": "Guntershausen",
            "postalCode": "8357",
            "country": "Switzerland"
          }
        ],
        "telecom": [
          {
            "system": "phone",
            "value": "+41 044 623 12 77"
          }
        ],
        "gender": "male",
        "birthDate": "1988-03-03"
      }
    },
    {
      "fullUrl": "urn:uuid:dd19936c-d686-4636-94d3-8c2f8fc84146",
      "resource": {
        "resourceType": "ServiceRequest",
        "id": "dd19936c-d686-4636-94d3-8c2f8fc84146",
        "meta": {
          "profile": [
            "http://hl7.eu/fhir/laboratory/StructureDefinition/ServiceRequest-eu-lab"
          ]
        },
        "identifier": [
          {
            "system": "http://example.org",
            "value": "725c1343-8b1a-4622-9bad-127efeb61672"
          }
        ],
        "specimen": [
          {
            "reference": "urn:uuid:e407d728-e3f4-47aa-8114-7dd992963057"
          },
          {
            "reference": "urn:uuid:95e8c7d0-b70e-4c1d-a5ce-3e6434a30960"
          },
          {
            "reference": "urn:uuid:178a50a9-d1b1-487c-afa5-355050727d99"
          }
        ],
        "status": "active",
        "intent": "order",
        "code": {
          "coding": [
            {
              "code": "108252007",
              "system": "http://snomed.info/sct",
              "display": "Laboratory procedure"
            }
          ]
        },
        "subject": {
          "reference": "urn:uuid:6ce60281-fad7-4963-92f7-2c810c1587bc"
        },
        "requester": {
          "reference": "urn:uuid:ea8f2403-4615-4910-9b55-5bad93029c1d"
        }
      }
    },
    {
      "fullUrl": "urn:uuid:ea8f2403-4615-4910-9b55-5bad93029c1d",
      "resource": {
        "resourceType": "PractitionerRole",
        "id": "ea8f2403-4615-4910-9b55-5bad93029c1d",
        "meta": {
          "profile": [
            "http://hl7.eu/fhir/laboratory/StructureDefinition/PractitionerRole-eu-lab"
          ]
        },
        "organization": {
          "reference": "urn:uuid:5d2e3ef4-95c6-41fc-a7fe-c957fc7163b3"
        }
      }
    },
    {
      "fullUrl": "urn:uuid:5d2e3ef4-95c6-41fc-a7fe-c957fc7163b3",
      "resource": {
        "resourceType": "Organization",
        "id": "5d2e3ef4-95c6-41fc-a7fe-c957fc7163b3",
        "meta": {
          "profile": [
            "http://hl7.org/fhir/uv/ips/StructureDefinition/Organization-uv-ips"
          ]
        },
        "identifier": [
          {
            "assigner": {
              "display": "HL7 Europe"
            },
            "system": "urn:oid:2.16.840.1.113883.2.51.999",
            "value": "453339a8-32db-48f9-aab6-bae2fb9030e5"
          }
        ],
        "address": [
          {
            "line": [
              "Feursteinstraße 55"
            ],
            "city": "Reichenau",
            "postalCode": "78479",
            "country": "de"
          }
        ],
        "name": "Zentrum für Psychiatrie Reichenau"
      }
    },
    {
      "fullUrl": "urn:uuid:e7bf24f1-f896-41ee-9d2a-ef0519444f77",
      "resource": {
        "resourceType": "PractitionerRole",
        "id": "e7bf24f1-f896-41ee-9d2a-ef0519444f77",
        "meta": {
          "profile": [
            "http://hl7.eu/fhir/laboratory/StructureDefinition/PractitionerRole-eu-lab"
          ]
        },
        "practitioner": {
          "reference": "urn:uuid:b74ffbac-1aa5-4d27-8975-37e10614ef16"
        }
      }
    },
    {
      "fullUrl": "urn:uuid:b74ffbac-1aa5-4d27-8975-37e10614ef16",
      "resource": {
        "resourceType": "Practitioner",
        "id": "b74ffbac-1aa5-4d27-8975-37e10614ef16",
        "meta": {
          "profile": [
            "http://hl7.eu/fhir/laboratory/StructureDefinition/Practitioner-eu-lab"
          ]
        },
        "identifier": [
          {
            "assigner": {
              "display": "HL7 Europe"
            },
            "system": "urn:oid:2.16.840.1.113883.2.51.999",
            "value": "0f6b69d5-0d47-40a8-93dc-31f59a05547d"
          }
        ],
        "name": [
          {
            "prefix": [
              "dr"
            ],
            "given": [
              "Ex"
            ],
            "family": "Ample"
          }
        ],
        "address": [
          {
            "line": [
              "Boulevard du Jardin Botanique 32"
            ],
            "city": "Brussels",
            "postalCode": "1000"
          }
        ]
      }
    },
    {
      "fullUrl": "urn:uuid:e407d728-e3f4-47aa-8114-7dd992963057",
      "resource": {
        "resourceType": "Specimen",
        "id": "e407d728-e3f4-47aa-8114-7dd992963057",
        "meta": {
          "profile": [
            "http://hl7.eu/fhir/laboratory/StructureDefinition/Specimen-eu-lab"
          ]
        },
        "collection": {
          "collectedDateTime": "2024-11-18"
        },
        "status": "available",
        "type": {
          "coding": [
            {
              "code": "122552005",
              "system": "http://snomed.info/sct",
              "display": "Arterial blood specimen (specimen)"
            }
          ]
        }
      }
    },
    {
      "fullUrl": "urn:uuid:95e8c7d0-b70e-4c1d-a5ce-3e6434a30960",
      "resource": {
        "resourceType": "Specimen",
        "id": "95e8c7d0-b70e-4c1d-a5ce-3e6434a30960",
        "meta": {
          "profile": [
            "http://hl7.eu/fhir/laboratory/StructureDefinition/Specimen-eu-lab"
          ]
        },
        "collection": {
          "collectedDateTime": "2024-11-18"
        },
        "status": "available",
        "type": {
          "coding": [
            {
              "code": "258604001",
              "system": "http://snomed.info/sct",
              "display": "Upper respiratory specimen (specimen)"
            }
          ]
        }
      }
    },
    {
      "fullUrl": "urn:uuid:178a50a9-d1b1-487c-afa5-355050727d99",
      "resource": {
        "resourceType": "Specimen",
        "id": "178a50a9-d1b1-487c-afa5-355050727d99",
        "meta": {
          "profile": [
            "http://hl7.eu/fhir/laboratory/StructureDefinition/Specimen-eu-lab"
          ]
        },
        "collection": {
          "collectedDateTime": "2024-11-18"
        },
        "status": "available",
        "type": {
          "coding": [
            {
              "code": "258603007",
              "system": "http://snomed.info/sct",
              "display": "Respiratory specimen (specimen)"
            }
          ]
        }
      }
    },
    {
      "fullUrl": "urn:uuid:f49531f6-03fa-450a-bbdb-f18294f5a79e",
      "resource": {
        "resourceType": "Observation",
        "id": "f49531f6-03fa-450a-bbdb-f18294f5a79e",
        "meta": {
          "profile": [
            "http://hl7.eu/fhir/laboratory/StructureDefinition/Observation-resultslab-eu-lab"
          ]
        },
        "performer": [
          {
            "display": "The Central European Lab"
          }
        ],
        "category": [
          {
            "coding": [
              {
                "code": "laboratory",
                "system": "http://terminology.hl7.org/CodeSystem/observation-category"
              }
            ]
          }
        ],
        "code": {
          "coding": [
            {
              "code": "2708-6",
              "system": "http://loinc.org",
              "display": "Oxygen saturation in Arterial blood"
            }
          ],
          "text": "Oxygen saturation in Arterial blood"
        },
        "valueQuantity": {
          "system": "http://unitsofmeasure.org",
          "value": 80.6,
          "unit": "%",
          "code": "%"
        },
        "referenceRange": [
          {
            "low": {
              "value": 95,
              "code": "%",
              "system": "http://unitsofmeasure.org"
            }
          },
          {
            "high": {
              "value": 100,
              "code": "%",
              "system": "http://unitsofmeasure.org"
            }
          }
        ],
        "interpretation": [
          {
            "coding": [
              {
                "code": "L",
                "system": "http://terminology.hl7.org/CodeSystem/v3-ObservationInterpretation",
                "display": "Low"
              }
            ]
          }
        ],
        "status": "final",
        "subject": {
          "reference": "urn:uuid:6ce60281-fad7-4963-92f7-2c810c1587bc"
        },
        "effectiveDateTime": "2024-11-18",
        "specimen": {
          "reference": "urn:uuid:e407d728-e3f4-47aa-8114-7dd992963057"
        }
      }
    },
    {
      "fullUrl": "urn:uuid:22779c7c-2e7d-458e-a1ba-c666d169cbfc",
      "resource": {
        "resourceType": "Observation",
        "id": "22779c7c-2e7d-458e-a1ba-c666d169cbfc",
        "meta": {
          "profile": [
            "http://hl7.eu/fhir/laboratory/StructureDefinition/Observation-resultslab-eu-lab"
          ]
        },
        "performer": [
          {
            "display": "The Central European Lab"
          }
        ],
        "category": [
          {
            "coding": [
              {
                "code": "laboratory",
                "system": "http://terminology.hl7.org/CodeSystem/observation-category"
              }
            ]
          }
        ],
        "code": {
          "coding": [
            {
              "code": "80382-5",
              "system": "http://loinc.org",
              "display": "Influenza virus A Ag [Presence] in Upper respiratory specimen by Rapid immunoassay"
            }
          ],
          "text": "Influenza virus A Ag [Presence] in Upper respiratory specimen by Rapid immunoassay"
        },
        "status": "final",
        "subject": {
          "reference": "urn:uuid:6ce60281-fad7-4963-92f7-2c810c1587bc"
        },
        "effectiveDateTime": "2024-11-18",
        "valueCodeableConcept": {
          "coding": [
            {
              "code": "260415000",
              "system": "http://snomed.info/sct",
              "display": "Not detected"
            }
          ]
        },
        "specimen": {
          "reference": "urn:uuid:95e8c7d0-b70e-4c1d-a5ce-3e6434a30960"
        }
      }
    },
    {
      "fullUrl": "urn:uuid:a7a35997-9aef-4461-bfa4-8c1ee5ba8df2",
      "resource": {
        "resourceType": "Observation",
        "id": "a7a35997-9aef-4461-bfa4-8c1ee5ba8df2",
        "meta": {
          "profile": [
            "http://hl7.eu/fhir/laboratory/StructureDefinition/Observation-resultslab-eu-lab"
          ]
        },
        "performer": [
          {
            "display": "The Central European Lab"
          }
        ],
        "category": [
          {
            "coding": [
              {
                "code": "laboratory",
                "system": "http://terminology.hl7.org/CodeSystem/observation-category"
              }
            ]
          }
        ],
        "code": {
          "coding": [
            {
              "code": "80383-3",
              "system": "http://loinc.org",
              "display": "Influenza virus B Ag [Presence] in Upper respiratory specimen by Rapid immunoassay"
            }
          ],
          "text": "Influenza virus B Ag [Presence] in Upper respiratory specimen by Rapid immunoassay"
        },
        "status": "final",
        "subject": {
          "reference": "urn:uuid:6ce60281-fad7-4963-92f7-2c810c1587bc"
        },
        "effectiveDateTime": "2024-11-18",
        "valueCodeableConcept": {
          "coding": [
            {
              "code": "260415000",
              "system": "http://snomed.info/sct",
              "display": "Not detected"
            }
          ]
        },
        "specimen": {
          "reference": "urn:uuid:95e8c7d0-b70e-4c1d-a5ce-3e6434a30960"
        }
      }
    },
    {
      "fullUrl": "urn:uuid:09f78f1d-3882-4ea2-80d9-4ae794d4d8dd",
      "resource": {
        "resourceType": "Observation",
        "id": "09f78f1d-3882-4ea2-80d9-4ae794d4d8dd",
        "meta": {
          "profile": [
            "http://hl7.eu/fhir/laboratory/StructureDefinition/Observation-resultslab-eu-lab"
          ]
        },
        "performer": [
          {
            "display": "The Central European Lab"
          }
        ],
        "category": [
          {
            "coding": [
              {
                "code": "laboratory",
                "system": "http://terminology.hl7.org/CodeSystem/observation-category"
              }
            ]
          }
        ],
        "code": {
          "coding": [
            {
              "code": "94531-1",
              "system": "http://loinc.org",
              "display": "SARS-CoV-2 (COVID-19) RNA panel - Respiratory system specimen by NAA with probe detection"
            }
          ],
          "text": "SARS-CoV-2 (COVID-19) RNA panel - Respiratory system specimen by NAA with probe detection"
        },
        "status": "final",
        "subject": {
          "reference": "urn:uuid:6ce60281-fad7-4963-92f7-2c810c1587bc"
        },
        "effectiveDateTime": "2024-11-18",
        "valueCodeableConcept": {
          "coding": [
            {
              "code": "260373001",
              "system": "http://snomed.info/sct",
              "display": "Detected"
            }
          ]
        },
        "specimen": {
          "reference": "urn:uuid:178a50a9-d1b1-487c-afa5-355050727d99"
        }
      }
    }
  ],
  "type": "document",
  "timestamp": "2024-11-19T18:41:26Z"
}
