{
  "resourceType": "Bundle",
  "id": "Instance-Bundle-e5e64f9f-5196-4288-b7ee-d8da33ec9ac9",
  "meta": {
    "profile": [
      "http://hl7.eu/fhir/laboratory/StructureDefinition/Bundle-eu-lab"
    ]
  },
  "identifier": {
    "assigner": {
      "display": "HL7 Europe"
    },
    "system": "urn:oid:2.16.840.1.113883.2.51.999",
    "value": "e2889e83-c81c-446c-adf7-d59ff1cf8667"
  },
  "entry": [
    {
      "fullUrl": "urn:uuid:8061dc78-d84a-493b-8b46-1dde7fb6ed4b",
      "resource": {
        "resourceType": "Composition",
        "id": "8061dc78-d84a-493b-8b46-1dde7fb6ed4b",
        "meta": {
          "profile": [
            "http://hl7.eu/fhir/laboratory/StructureDefinition/Composition-eu-lab"
          ]
        },
        "identifier": {
          "assigner": {
            "display": "HL7 Europe"
          },
          "system": "urn:oid:2.16.840.1.113883.2.51.999",
          "value": "6135b748-bf96-4466-88f0-8b4c5c2fcffe"
        },
        "author": [
          {
            "reference": "urn:uuid:e169a2e3-b5e6-4d28-897b-0494976d7acc"
          }
        ],
        "category": [
          {
            "coding": [
              {
                "code": "26436-6",
                "system": "http://loinc.org",
                "display": "Laboratory studies (set)"
              }
            ]
          }
        ],
        "type": {
          "text": "Laboratory Report"
        },
        "section": [
          {
            "code": {
              "coding": [
                {
                  "code": "26436-6",
                  "system": "http://loinc.org",
                  "display": "Laboratory studies (set)"
                }
              ],
              "text": "Laboratory studies"
            },
            "section": [
              {
                "code": {
                  "coding": [
                    {
                      "code": "18723-7",
                      "system": "http://loinc.org",
                      "display": "Hematology studies (set)"
                    }
                  ],
                  "text": "Hematology"
                },
                "entry": [
                  {
                    "reference": "urn:uuid:c2bf886f-7b70-48cd-9bef-424a65d08ffb"
                  },
                  {
                    "reference": "urn:uuid:48ff5d2c-f791-4413-a1af-a64462030717"
                  },
                  {
                    "reference": "urn:uuid:48aad6e7-a9d6-4c86-ae1b-293a44508984"
                  },
                  {
                    "reference": "urn:uuid:bcb12945-82e9-4d40-b086-d9efb2aae855"
                  },
                  {
                    "reference": "urn:uuid:a1581b42-f6a3-41bb-bbc4-aa6486b48dd7"
                  },
                  {
                    "reference": "urn:uuid:c794dc62-b56a-4ed8-8789-b14c497d83ac"
                  },
                  {
                    "reference": "urn:uuid:79ea0d09-d4fa-4256-b5f0-7af7cf586de5"
                  },
                  {
                    "reference": "urn:uuid:acfba6de-89d4-48e2-965c-d811a61f843e"
                  },
                  {
                    "reference": "urn:uuid:252346f5-1224-4212-9461-a71f957633fb"
                  },
                  {
                    "reference": "urn:uuid:c4755bdc-a922-4650-a7a0-614d0e7961d0"
                  },
                  {
                    "reference": "urn:uuid:855aa6d2-352a-409d-ba1d-34dc21323cf8"
                  },
                  {
                    "reference": "urn:uuid:2b2cbfa8-8897-4afc-af8c-d84c5f1170fe"
                  },
                  {
                    "reference": "urn:uuid:2d8a4e80-1459-4ef8-8bbb-13e9ac20e246"
                  },
                  {
                    "reference": "urn:uuid:d8d760e0-7cef-4796-9dfd-0ab688164c41"
                  },
                  {
                    "reference": "urn:uuid:4d603f4b-f62a-4089-9a28-f4a29d0a8b50"
                  },
                  {
                    "reference": "urn:uuid:b0f15438-f462-48c6-bfcd-9c949f0be6e9"
                  },
                  {
                    "reference": "urn:uuid:df7f7931-10e3-49f9-b1a2-56a7d9995716"
                  },
                  {
                    "reference": "urn:uuid:043e21ea-8be8-4e53-82f8-dbb06f82c811"
                  },
                  {
                    "reference": "urn:uuid:af9ef7e7-19b7-4ed4-a8d0-8acef00cd3a4"
                  }
                ],
                "text": {
                  "status": "generated",
                  "div": "<div xmlns=\"http://www.w3.org/1999/xhtml\"><h3 id=\"section-1\">Hematology</h3><table class=\"hl7__eu__lab__report\"><thead><tr><th>Test</th><th>18 Nov 2024</th><th>Reference Range</th><th>Unit</th></tr></thead><tbody><tr><td>Leukocytes [#/volume] in Blood by Automated count</td><td>3.8</td><td>3.4 - 10.6</td><td>10*3/uL</td></tr><tr><td>Erythrocytes [#/volume] in Blood by Automated count</td><td>4.8</td><td>4.5 - 6.2</td><td>10*6/uL</td></tr><tr><td>Hemoglobin [Mass/volume] in Blood</td><td><strong>13.4 L</strong></td><td>13.5 - 17.5</td><td>g/dL</td></tr><tr><td>Hematocrit [Volume Fraction] of Blood by Automated count</td><td>40.8</td><td>38 - 50</td><td>%</td></tr><tr><td>MCV [Entitic volume] by Automated count</td><td>86.8</td><td>82 - 98</td><td>fL</td></tr><tr><td>MCH [Entitic mass] by Automated count</td><td>31.2</td><td>27 - 34</td><td>pg</td></tr><tr><td>MCHC [Mass/volume] by Automated count</td><td>33.9</td><td>31 - 35</td><td>g/dL</td></tr><tr><td>Erythrocyte distribution width [Ratio] by Automated count</td><td>15.0</td><td>11.5 - 16.5</td><td>%</td></tr><tr><td>Platelets [#/volume] in Blood by Automated count</td><td><strong>99.9 L</strong></td><td>150 - 300</td><td>10*3/uL</td></tr><tr><td>Neutrophils/100 leukocytes in Blood by Automated count</td><td><strong>39.3 L</strong></td><td>40 - 74</td><td>%</td></tr><tr><td>Lymphocytes/100 leukocytes in Blood by Automated count</td><td><strong>15.0 L</strong></td><td>20 - 40</td><td>%</td></tr><tr><td>Monocytes/100 leukocytes in Blood by Automated count</td><td>8.4</td><td>2 - 10</td><td>%</td></tr><tr><td>Eosinophils/100 leukocytes in Blood by Automated count</td><td>3.7</td><td>0 - 6</td><td>%</td></tr><tr><td>Basophils/100 leukocytes in Blood by Automated count</td><td>2.2</td><td>0.5 - 3</td><td>%</td></tr><tr><td>Neutrophils [#/volume] in Blood by Automated count</td><td>3.4</td><td>2 - 7</td><td>10*3/uL</td></tr><tr><td>Lymphocytes [#/volume] in Blood by Automated count</td><td>1.0</td><td>1 - 4.8</td><td>10*3/uL</td></tr><tr><td>Monocytes [#/volume] in Blood by Automated count</td><td><strong>1.0 H</strong></td><td>0.7 - 0.9</td><td>10*3/uL</td></tr><tr><td>Eosinophils [#/volume] in Blood by Automated count</td><td>0.6</td><td>0 - 0.7</td><td>10*3/uL</td></tr><tr><td>Basophils [#/volume] in Blood by Automated count</td><td><strong>0.3 H</strong></td><td>0.1 - 0.2</td><td>10*3/uL</td></tr></tbody></table></div>"
                },
                "title": "Hematology"
              },
              {
                "code": {
                  "coding": [
                    {
                      "code": "18719-5",
                      "system": "http://loinc.org",
                      "display": "Chemistry studies (set)"
                    }
                  ],
                  "text": "Chemistry"
                },
                "entry": [
                  {
                    "reference": "urn:uuid:7db46b66-7c51-460e-99e4-7ba139685f55"
                  },
                  {
                    "reference": "urn:uuid:bd39b903-6f1e-450d-b900-187bf2c0bb2d"
                  },
                  {
                    "reference": "urn:uuid:38790e6a-1c70-484f-8ce8-7cc0056948c2"
                  },
                  {
                    "reference": "urn:uuid:ec3259a9-1170-4651-8968-7589b52e8afa"
                  },
                  {
                    "reference": "urn:uuid:44ad851c-be8f-4c36-bb58-436f3f95f855"
                  },
                  {
                    "reference": "urn:uuid:dd3f1dac-c7ba-4aa4-bf01-cd7a20bc4d9a"
                  },
                  {
                    "reference": "urn:uuid:5f23ed18-9bc4-4e8a-84c6-0ad1f6fd6842"
                  },
                  {
                    "reference": "urn:uuid:d8d63dad-2afd-4ff5-87e9-4b4315f96827"
                  },
                  {
                    "reference": "urn:uuid:55713f41-a671-4f0a-bf55-8642481f38d2"
                  },
                  {
                    "reference": "urn:uuid:b01a3d64-c55a-4bd4-98c7-92e223914478"
                  },
                  {
                    "reference": "urn:uuid:68fcfd84-2fff-47f2-8079-231d18fd3e6b"
                  },
                  {
                    "reference": "urn:uuid:a712c734-bffb-44b9-97a6-eee097eb1db4"
                  },
                  {
                    "reference": "urn:uuid:e74325eb-b36c-4996-9437-ba7384637f79"
                  },
                  {
                    "reference": "urn:uuid:eb3889bb-4320-4db9-8cfa-394326c4134d"
                  },
                  {
                    "reference": "urn:uuid:26dfe082-c6a0-48e9-b03d-d3f531eb2c0f"
                  },
                  {
                    "reference": "urn:uuid:33e11629-15ce-496b-aa60-700ba1f4a2de"
                  },
                  {
                    "reference": "urn:uuid:141d6c7f-3892-47cf-b298-fba6d68dd4cc"
                  },
                  {
                    "reference": "urn:uuid:fb342dfb-c7e9-4711-a59c-fb8166c0a20e"
                  },
                  {
                    "reference": "urn:uuid:44918e60-d59f-44b7-9eea-6e68fb324b72"
                  },
                  {
                    "reference": "urn:uuid:f200dc2f-777d-4ef9-995b-a802c6dfe63a"
                  },
                  {
                    "reference": "urn:uuid:a735cf46-1252-4a73-b522-c22842236e06"
                  },
                  {
                    "reference": "urn:uuid:77d3baaf-73a6-43f7-a4b1-570a80cfa7f0"
                  },
                  {
                    "reference": "urn:uuid:a37522bf-2389-4f86-85e3-fbdca961b782"
                  },
                  {
                    "reference": "urn:uuid:ef56d25d-2c99-493a-bdc7-982d49b8927f"
                  },
                  {
                    "reference": "urn:uuid:4b842bd0-27a2-44d1-a1dd-bf1a6dc0a829"
                  },
                  {
                    "reference": "urn:uuid:116f9d55-0ead-47fa-be0c-83ec2446d21d"
                  },
                  {
                    "reference": "urn:uuid:8e3f38b2-1899-4191-b444-029afc407eb7"
                  }
                ],
                "text": {
                  "status": "generated",
                  "div": "<div xmlns=\"http://www.w3.org/1999/xhtml\"><h3 id=\"section-2\">Chemistry</h3><table class=\"hl7__eu__lab__report\"><thead><tr><th>Test</th><th>18 Nov 2024</th><th>Reference Range</th><th>Unit</th></tr></thead><tbody><tr><td>Oxygen saturation in Arterial blood</td><td><strong>87.5 L</strong></td><td>95 - 100</td><td>%</td></tr><tr><td>Oxygen saturation in Arterial blood</td><td><strong>78.4 L</strong></td><td>95 - 100</td><td>%</td></tr><tr><td>Glucose [Mass/volume] in Serum or Plasma</td><td><strong>69.5 L</strong></td><td>70 - 99</td><td>mg/dL</td></tr><tr><td>Urea nitrogen [Mass/volume] in Serum or Plasma</td><td>12.6</td><td>7 - 20</td><td>mg/dL</td></tr><tr><td>Creatinine [Mass/volume] in Serum or Plasma</td><td><strong>2.9 H</strong></td><td>0.9 - 1.3</td><td>mg/dL</td></tr><tr><td>Calcium [Mass/volume] in Serum or Plasma</td><td>9.0</td><td>8.5 - 10.5</td><td>mg/dL</td></tr><tr><td>Sodium [Moles/volume] in Serum or Plasma</td><td>137.8</td><td>135 - 145</td><td>mmol/L</td></tr><tr><td>Potassium [Moles/volume] in Serum or Plasma</td><td>3.8</td><td>3.5 - 5</td><td>mmol/L</td></tr><tr><td>Chloride [Moles/volume] in Serum or Plasma</td><td>104.4</td><td>98 - 106</td><td>mmol/L</td></tr><tr><td>Carbon dioxide, total [Moles/volume] in Serum or Plasma</td><td>23.1</td><td>22 - 29</td><td>mmol/L</td></tr><tr><td>Protein [Mass/volume] in Serum or Plasma</td><td><strong>6.2 L</strong></td><td>6.6 - 8.3</td><td>g/dL</td></tr><tr><td>Albumin [Mass/volume] in Serum or Plasma</td><td>4.8</td><td>3.5 - 5.5</td><td>g/dL</td></tr><tr><td>Bilirubin.total [Mass/volume] in Serum or Plasma</td><td><strong>9.1 H</strong></td><td>0.3 - 1.2</td><td>mg/dL</td></tr><tr><td>Alkaline phosphatase [Enzymatic activity/volume] in Serum or Plasma</td><td>85.9</td><td>39 - 129</td><td>U/L</td></tr><tr><td>Alanine aminotransferase [Enzymatic activity/volume] in Serum or Plasma</td><td>21.0</td><td>10 - 60</td><td>U/L</td></tr><tr><td>Aspartate aminotransferase [Enzymatic activity/volume] in Serum or Plasma</td><td>30.8</td><td>10 - 50</td><td>U/L</td></tr><tr><td>pH of Arterial blood</td><td><strong>7.1 L</strong></td><td>7.35 - 7.45</td><td>[pH]</td></tr><tr><td>Carbon dioxide [Partial pressure] in Arterial blood</td><td>37.5</td><td>35 - 45</td><td>mm[Hg]</td></tr><tr><td>Oxygen [Partial pressure] in Arterial blood</td><td><strong>53.8 L</strong></td><td>80 - 100</td><td>mm[Hg]</td></tr><tr><td>Bicarbonate [Moles/volume] in Arterial blood</td><td>24.1</td><td>21 - 31</td><td>mmol/L</td></tr><tr><td>Oxygen saturation in Arterial blood</td><td><strong>75.6 L</strong></td><td>95 - 100</td><td>%</td></tr><tr><td>Ferritin [Mass/volume] in Serum or Plasma</td><td>382.3</td><td>24 - 400</td><td>ug/L</td></tr><tr><td>Troponin I.cardiac [Mass/volume] in Serum or Plasma by High sensitivity method</td><td>3.0</td><td>0 - 19.9</td><td>pg/mL</td></tr><tr><td>Lactate dehydrogenase [Enzymatic activity/volume] in Serum or Plasma by Lactate to pyruvate reaction</td><td>241.1</td><td>100 - 248</td><td>U/L</td></tr><tr><td>Creatine kinase [Enzymatic activity/volume] in Serum or Plasma</td><td>41.4</td><td>30 - 204</td><td>U/L</td></tr><tr><td>C reactive protein [Mass/volume] in Serum or Plasma</td><td>8.4</td><td>0 - 10</td><td>mg/L</td></tr><tr><td>Procalcitonin [Mass/volume] in Serum or Plasma</td><td>0.0</td><td>0 - 0.5</td><td>ng/mL</td></tr></tbody></table></div>"
                },
                "title": "Chemistry"
              },
              {
                "code": {
                  "coding": [
                    {
                      "code": "18720-3",
                      "system": "http://loinc.org",
                      "display": "Coagulation studies (set)"
                    }
                  ],
                  "text": "Coagulation"
                },
                "entry": [
                  {
                    "reference": "urn:uuid:ea643738-fe7f-428f-9b98-67d944e3f188"
                  },
                  {
                    "reference": "urn:uuid:149d4c68-ff79-4580-88df-e401534dcc2a"
                  },
                  {
                    "reference": "urn:uuid:4a544c1e-6d4c-4c4f-8b2e-cd35b24f7a51"
                  }
                ],
                "text": {
                  "status": "generated",
                  "div": "<div xmlns=\"http://www.w3.org/1999/xhtml\"><h3 id=\"section-3\">Coagulation</h3><table class=\"hl7__eu__lab__report\"><thead><tr><th>Test</th><th>18 Nov 2024</th><th>Reference Range</th><th>Unit</th></tr></thead><tbody><tr><td>Fibrin D-dimer FEU [Mass/volume] in Platelet poor plasma</td><td>0.3</td><td>0 - 0.5</td><td>ug/mL</td></tr><tr><td>Prothrombin time (PT)</td><td><strong>10.9 L</strong></td><td>11.5 - 13.5</td><td>s</td></tr><tr><td>INR in Platelet poor plasma by Coagulation assay</td><td><strong>1.8 L</strong></td><td>2 - 3</td><td>{INR}</td></tr></tbody></table></div>"
                },
                "title": "Coagulation"
              },
              {
                "code": {
                  "coding": [
                    {
                      "code": "18725-2",
                      "system": "http://loinc.org",
                      "display": "Microbiology studies"
                    }
                  ],
                  "text": "Microbiology"
                },
                "entry": [
                  {
                    "reference": "urn:uuid:6eb34344-866c-4ffa-9e3b-1791be10cad2"
                  },
                  {
                    "reference": "urn:uuid:6539b541-54e7-470b-9c44-faad2af49431"
                  }
                ],
                "text": {
                  "status": "generated",
                  "div": "<div xmlns=\"http://www.w3.org/1999/xhtml\"><h3 id=\"section-4\">Microbiology</h3><table class=\"hl7__eu__lab__report\"><thead><tr><th>Test</th><th>18 Nov 2024</th><th>Reference Range</th><th>Unit</th></tr></thead><tbody><tr><td>Influenza virus A Ag [Presence] in Upper respiratory specimen by Rapid immunoassay</td><td>Not detected</td><td></td><td></td></tr><tr><td>Influenza virus B Ag [Presence] in Upper respiratory specimen by Rapid immunoassay</td><td>Not detected</td><td></td><td></td></tr></tbody></table></div>"
                },
                "title": "Microbiology"
              },
              {
                "code": {
                  "coding": [
                    {
                      "code": "18725-2",
                      "system": "http://loinc.org",
                      "display": "Microbiology studies"
                    }
                  ],
                  "text": "Microbiology Panel"
                },
                "entry": [
                  {
                    "reference": "urn:uuid:ddd3d393-9ad5-48db-98d0-021bb18a3330"
                  }
                ],
                "text": {
                  "status": "generated",
                  "div": "<div xmlns=\"http://www.w3.org/1999/xhtml\"><h3 id=\"section-5\">Microbiology Panel</h3><table class=\"hl7__eu__lab__report\"><thead><tr><th>Test</th><th>18 Nov 2024</th><th>Reference Range</th><th>Unit</th></tr></thead><tbody><tr><td>SARS-CoV-2 (COVID-19) RNA panel - Respiratory system specimen by NAA with probe detection</td><td>Detected</td><td></td><td></td></tr></tbody></table></div>"
                },
                "title": "Microbiology Panel"
              }
            ],
            "title": "Laboratory Report"
          }
        ],
        "status": "final",
        "subject": {
          "reference": "urn:uuid:62da47e9-326e-492a-b54e-bf62e7dcc7f3"
        },
        "date": "2024-11-19T18:38:47Z",
        "title": "Laboratory Report",
        "confidentiality": "N"
      }
    },
    {
      "fullUrl": "urn:uuid:f4618b6f-a8e3-427d-8831-1207549de471",
      "resource": {
        "resourceType": "DiagnosticReport",
        "id": "f4618b6f-a8e3-427d-8831-1207549de471",
        "meta": {
          "profile": [
            "http://hl7.eu/fhir/laboratory/StructureDefinition/DiagnosticReport-eu-lab"
          ]
        },
        "identifier": [
          {
            "assigner": {
              "display": "HL7 Europe"
            },
            "system": "urn:oid:2.16.840.1.113883.2.51.999",
            "value": "cfbbae5b-6de3-4ff7-abc6-813af5f7b902"
          }
        ],
        "extension": [
          {
            "url": "http://hl7.org/fhir/5.0/StructureDefinition/extension-DiagnosticReport.composition",
            "valueReference": {
              "reference": "urn:uuid:8061dc78-d84a-493b-8b46-1dde7fb6ed4b"
            }
          }
        ],
        "category": [
          {
            "coding": [
              {
                "code": "18719-5",
                "system": "http://loinc.org",
                "display": "Chemistry studies (set)"
              }
            ]
          }
        ],
        "specimen": [
          {
            "reference": "urn:uuid:add7de57-628f-49ce-848e-cfca997201cb"
          },
          {
            "reference": "urn:uuid:b3bb6891-e5cf-4202-bc0b-7c94bd6ece69"
          },
          {
            "reference": "urn:uuid:91b85a5d-a0b1-463e-9a26-9ae3f1dc2288"
          },
          {
            "reference": "urn:uuid:b6ef6ef4-3bcd-42dc-b02a-08922d783654"
          },
          {
            "reference": "urn:uuid:9327abc7-52ad-4001-9c02-9fdba49fa907"
          },
          {
            "reference": "urn:uuid:e1412f51-f319-468a-9feb-55bb488d8f5f"
          },
          {
            "reference": "urn:uuid:61ddc26b-1912-44a7-814c-7079fcfc3026"
          }
        ],
        "result": [
          {
            "reference": "urn:uuid:7db46b66-7c51-460e-99e4-7ba139685f55"
          },
          {
            "reference": "urn:uuid:6eb34344-866c-4ffa-9e3b-1791be10cad2"
          },
          {
            "reference": "urn:uuid:6539b541-54e7-470b-9c44-faad2af49431"
          },
          {
            "reference": "urn:uuid:ddd3d393-9ad5-48db-98d0-021bb18a3330"
          },
          {
            "reference": "urn:uuid:bd39b903-6f1e-450d-b900-187bf2c0bb2d"
          },
          {
            "reference": "urn:uuid:c2bf886f-7b70-48cd-9bef-424a65d08ffb"
          },
          {
            "reference": "urn:uuid:48ff5d2c-f791-4413-a1af-a64462030717"
          },
          {
            "reference": "urn:uuid:48aad6e7-a9d6-4c86-ae1b-293a44508984"
          },
          {
            "reference": "urn:uuid:bcb12945-82e9-4d40-b086-d9efb2aae855"
          },
          {
            "reference": "urn:uuid:a1581b42-f6a3-41bb-bbc4-aa6486b48dd7"
          },
          {
            "reference": "urn:uuid:c794dc62-b56a-4ed8-8789-b14c497d83ac"
          },
          {
            "reference": "urn:uuid:79ea0d09-d4fa-4256-b5f0-7af7cf586de5"
          },
          {
            "reference": "urn:uuid:acfba6de-89d4-48e2-965c-d811a61f843e"
          },
          {
            "reference": "urn:uuid:252346f5-1224-4212-9461-a71f957633fb"
          },
          {
            "reference": "urn:uuid:c4755bdc-a922-4650-a7a0-614d0e7961d0"
          },
          {
            "reference": "urn:uuid:855aa6d2-352a-409d-ba1d-34dc21323cf8"
          },
          {
            "reference": "urn:uuid:2b2cbfa8-8897-4afc-af8c-d84c5f1170fe"
          },
          {
            "reference": "urn:uuid:2d8a4e80-1459-4ef8-8bbb-13e9ac20e246"
          },
          {
            "reference": "urn:uuid:d8d760e0-7cef-4796-9dfd-0ab688164c41"
          },
          {
            "reference": "urn:uuid:4d603f4b-f62a-4089-9a28-f4a29d0a8b50"
          },
          {
            "reference": "urn:uuid:b0f15438-f462-48c6-bfcd-9c949f0be6e9"
          },
          {
            "reference": "urn:uuid:df7f7931-10e3-49f9-b1a2-56a7d9995716"
          },
          {
            "reference": "urn:uuid:043e21ea-8be8-4e53-82f8-dbb06f82c811"
          },
          {
            "reference": "urn:uuid:af9ef7e7-19b7-4ed4-a8d0-8acef00cd3a4"
          },
          {
            "reference": "urn:uuid:38790e6a-1c70-484f-8ce8-7cc0056948c2"
          },
          {
            "reference": "urn:uuid:ec3259a9-1170-4651-8968-7589b52e8afa"
          },
          {
            "reference": "urn:uuid:44ad851c-be8f-4c36-bb58-436f3f95f855"
          },
          {
            "reference": "urn:uuid:dd3f1dac-c7ba-4aa4-bf01-cd7a20bc4d9a"
          },
          {
            "reference": "urn:uuid:5f23ed18-9bc4-4e8a-84c6-0ad1f6fd6842"
          },
          {
            "reference": "urn:uuid:d8d63dad-2afd-4ff5-87e9-4b4315f96827"
          },
          {
            "reference": "urn:uuid:55713f41-a671-4f0a-bf55-8642481f38d2"
          },
          {
            "reference": "urn:uuid:b01a3d64-c55a-4bd4-98c7-92e223914478"
          },
          {
            "reference": "urn:uuid:68fcfd84-2fff-47f2-8079-231d18fd3e6b"
          },
          {
            "reference": "urn:uuid:a712c734-bffb-44b9-97a6-eee097eb1db4"
          },
          {
            "reference": "urn:uuid:e74325eb-b36c-4996-9437-ba7384637f79"
          },
          {
            "reference": "urn:uuid:eb3889bb-4320-4db9-8cfa-394326c4134d"
          },
          {
            "reference": "urn:uuid:26dfe082-c6a0-48e9-b03d-d3f531eb2c0f"
          },
          {
            "reference": "urn:uuid:33e11629-15ce-496b-aa60-700ba1f4a2de"
          },
          {
            "reference": "urn:uuid:141d6c7f-3892-47cf-b298-fba6d68dd4cc"
          },
          {
            "reference": "urn:uuid:fb342dfb-c7e9-4711-a59c-fb8166c0a20e"
          },
          {
            "reference": "urn:uuid:44918e60-d59f-44b7-9eea-6e68fb324b72"
          },
          {
            "reference": "urn:uuid:f200dc2f-777d-4ef9-995b-a802c6dfe63a"
          },
          {
            "reference": "urn:uuid:a735cf46-1252-4a73-b522-c22842236e06"
          },
          {
            "reference": "urn:uuid:ea643738-fe7f-428f-9b98-67d944e3f188"
          },
          {
            "reference": "urn:uuid:77d3baaf-73a6-43f7-a4b1-570a80cfa7f0"
          },
          {
            "reference": "urn:uuid:a37522bf-2389-4f86-85e3-fbdca961b782"
          },
          {
            "reference": "urn:uuid:ef56d25d-2c99-493a-bdc7-982d49b8927f"
          },
          {
            "reference": "urn:uuid:4b842bd0-27a2-44d1-a1dd-bf1a6dc0a829"
          },
          {
            "reference": "urn:uuid:116f9d55-0ead-47fa-be0c-83ec2446d21d"
          },
          {
            "reference": "urn:uuid:149d4c68-ff79-4580-88df-e401534dcc2a"
          },
          {
            "reference": "urn:uuid:4a544c1e-6d4c-4c4f-8b2e-cd35b24f7a51"
          },
          {
            "reference": "urn:uuid:8e3f38b2-1899-4191-b444-029afc407eb7"
          }
        ],
        "status": "registered",
        "code": {
          "coding": [
            {
              "code": "11502-2",
              "system": "http://loinc.org",
              "display": "Laboratory report"
            }
          ]
        },
        "subject": {
          "reference": "urn:uuid:62da47e9-326e-492a-b54e-bf62e7dcc7f3"
        }
      }
    },
    {
      "fullUrl": "urn:uuid:62da47e9-326e-492a-b54e-bf62e7dcc7f3",
      "resource": {
        "resourceType": "Patient",
        "id": "62da47e9-326e-492a-b54e-bf62e7dcc7f3",
        "meta": {
          "profile": [
            "http://hl7.eu/fhir/laboratory/StructureDefinition/Patient-eu-lab"
          ]
        },
        "identifier": [
          {
            "type": {
              "coding": [
                {
                  "code": "NI",
                  "system": "http://terminology.hl7.org/CodeSystem/v2-0203"
                }
              ]
            },
            "system": "http://ec.europa.eu/identifier/eci",
            "value": "6603-351860-7"
          },
          {
            "type": {
              "coding": [
                {
                  "code": "MR",
                  "system": "http://terminology.hl7.org/CodeSystem/v2-0203"
                }
              ]
            },
            "system": "http://local.setting.eu/identifier",
            "value": "aca2ed80-6a99-4c35-a147-c63ccd4455b1"
          }
        ],
        "name": [
          {
            "given": [
              "Oskar"
            ],
            "family": "Zakariassen",
            "text": "Oskar Zakariassen"
          }
        ],
        "address": [
          {
            "line": [
              "Staales Bakke 74"
            ],
            "use": "home",
            "type": "physical",
            "city": "Grimstad",
            "postalCode": "4876",
            "country": "Norway"
          }
        ],
        "telecom": [
          {
            "system": "phone",
            "value": "+47 992 33 863"
          }
        ],
        "gender": "male",
        "birthDate": "1961-02-02"
      }
    },
    {
      "fullUrl": "urn:uuid:695e525e-addd-4049-bd28-0f432d06d91e",
      "resource": {
        "resourceType": "ServiceRequest",
        "id": "695e525e-addd-4049-bd28-0f432d06d91e",
        "meta": {
          "profile": [
            "http://hl7.eu/fhir/laboratory/StructureDefinition/ServiceRequest-eu-lab"
          ]
        },
        "identifier": [
          {
            "system": "http://example.org",
            "value": "0fa8e076-8ffa-459c-bba6-15cbfb860287"
          }
        ],
        "specimen": [
          {
            "reference": "urn:uuid:add7de57-628f-49ce-848e-cfca997201cb"
          },
          {
            "reference": "urn:uuid:b3bb6891-e5cf-4202-bc0b-7c94bd6ece69"
          },
          {
            "reference": "urn:uuid:91b85a5d-a0b1-463e-9a26-9ae3f1dc2288"
          },
          {
            "reference": "urn:uuid:b6ef6ef4-3bcd-42dc-b02a-08922d783654"
          },
          {
            "reference": "urn:uuid:9327abc7-52ad-4001-9c02-9fdba49fa907"
          },
          {
            "reference": "urn:uuid:e1412f51-f319-468a-9feb-55bb488d8f5f"
          },
          {
            "reference": "urn:uuid:61ddc26b-1912-44a7-814c-7079fcfc3026"
          }
        ],
        "status": "active",
        "intent": "order",
        "code": {
          "coding": [
            {
              "code": "108252007",
              "system": "http://snomed.info/sct",
              "display": "Laboratory procedure"
            }
          ]
        },
        "subject": {
          "reference": "urn:uuid:62da47e9-326e-492a-b54e-bf62e7dcc7f3"
        },
        "requester": {
          "reference": "urn:uuid:d840654a-7079-44b4-902e-d71f094a8252"
        }
      }
    },
    {
      "fullUrl": "urn:uuid:d840654a-7079-44b4-902e-d71f094a8252",
      "resource": {
        "resourceType": "PractitionerRole",
        "id": "d840654a-7079-44b4-902e-d71f094a8252",
        "meta": {
          "profile": [
            "http://hl7.eu/fhir/laboratory/StructureDefinition/PractitionerRole-eu-lab"
          ]
        },
        "organization": {
          "reference": "urn:uuid:ee3028c7-1245-4c79-a6e1-8cdd6674ac50"
        }
      }
    },
    {
      "fullUrl": "urn:uuid:ee3028c7-1245-4c79-a6e1-8cdd6674ac50",
      "resource": {
        "resourceType": "Organization",
        "id": "ee3028c7-1245-4c79-a6e1-8cdd6674ac50",
        "meta": {
          "profile": [
            "http://hl7.org/fhir/uv/ips/StructureDefinition/Organization-uv-ips"
          ]
        },
        "identifier": [
          {
            "assigner": {
              "display": "HL7 Europe"
            },
            "system": "urn:oid:2.16.840.1.113883.2.51.999",
            "value": "cb36a2f1-622c-4830-ba17-9bc14d774655"
          }
        ],
        "address": [
          {
            "city": "Arendal",
            "postalCode": "4838",
            "country": "no"
          }
        ],
        "name": "Sørlandet Sykehus Arendal"
      }
    },
    {
      "fullUrl": "urn:uuid:e169a2e3-b5e6-4d28-897b-0494976d7acc",
      "resource": {
        "resourceType": "PractitionerRole",
        "id": "e169a2e3-b5e6-4d28-897b-0494976d7acc",
        "meta": {
          "profile": [
            "http://hl7.eu/fhir/laboratory/StructureDefinition/PractitionerRole-eu-lab"
          ]
        },
        "practitioner": {
          "reference": "urn:uuid:702ecad3-4f67-4f7e-a67d-77bfb90e15ec"
        }
      }
    },
    {
      "fullUrl": "urn:uuid:702ecad3-4f67-4f7e-a67d-77bfb90e15ec",
      "resource": {
        "resourceType": "Practitioner",
        "id": "702ecad3-4f67-4f7e-a67d-77bfb90e15ec",
        "meta": {
          "profile": [
            "http://hl7.eu/fhir/laboratory/StructureDefinition/Practitioner-eu-lab"
          ]
        },
        "identifier": [
          {
            "assigner": {
              "display": "HL7 Europe"
            },
            "system": "urn:oid:2.16.840.1.113883.2.51.999",
            "value": "eb90faf9-a444-4c7c-8a2f-5793d391cc87"
          }
        ],
        "name": [
          {
            "prefix": [
              "dr"
            ],
            "given": [
              "Ex"
            ],
            "family": "Ample"
          }
        ],
        "address": [
          {
            "line": [
              "Boulevard du Jardin Botanique 32"
            ],
            "city": "Brussels",
            "postalCode": "1000"
          }
        ]
      }
    },
    {
      "fullUrl": "urn:uuid:add7de57-628f-49ce-848e-cfca997201cb",
      "resource": {
        "resourceType": "Specimen",
        "id": "add7de57-628f-49ce-848e-cfca997201cb",
        "meta": {
          "profile": [
            "http://hl7.eu/fhir/laboratory/StructureDefinition/Specimen-eu-lab"
          ]
        },
        "collection": {
          "collectedDateTime": "2024-11-18"
        },
        "status": "available",
        "type": {
          "coding": [
            {
              "code": "122552005",
              "system": "http://snomed.info/sct",
              "display": "Arterial blood specimen (specimen)"
            }
          ]
        }
      }
    },
    {
      "fullUrl": "urn:uuid:b3bb6891-e5cf-4202-bc0b-7c94bd6ece69",
      "resource": {
        "resourceType": "Specimen",
        "id": "b3bb6891-e5cf-4202-bc0b-7c94bd6ece69",
        "meta": {
          "profile": [
            "http://hl7.eu/fhir/laboratory/StructureDefinition/Specimen-eu-lab"
          ]
        },
        "collection": {
          "collectedDateTime": "2024-11-18"
        },
        "status": "available",
        "type": {
          "coding": [
            {
              "code": "258604001",
              "system": "http://snomed.info/sct",
              "display": "Upper respiratory specimen (specimen)"
            }
          ]
        }
      }
    },
    {
      "fullUrl": "urn:uuid:91b85a5d-a0b1-463e-9a26-9ae3f1dc2288",
      "resource": {
        "resourceType": "Specimen",
        "id": "91b85a5d-a0b1-463e-9a26-9ae3f1dc2288",
        "meta": {
          "profile": [
            "http://hl7.eu/fhir/laboratory/StructureDefinition/Specimen-eu-lab"
          ]
        },
        "collection": {
          "collectedDateTime": "2024-11-18"
        },
        "status": "available",
        "type": {
          "coding": [
            {
              "code": "258603007",
              "system": "http://snomed.info/sct",
              "display": "Respiratory specimen (specimen)"
            }
          ]
        }
      }
    },
    {
      "fullUrl": "urn:uuid:b6ef6ef4-3bcd-42dc-b02a-08922d783654",
      "resource": {
        "resourceType": "Specimen",
        "id": "b6ef6ef4-3bcd-42dc-b02a-08922d783654",
        "meta": {
          "profile": [
            "http://hl7.eu/fhir/laboratory/StructureDefinition/Specimen-eu-lab"
          ]
        },
        "collection": {
          "collectedDateTime": "2024-11-18"
        },
        "status": "available",
        "type": {
          "coding": [
            {
              "code": "258580003",
              "system": "http://snomed.info/sct",
              "display": "Whole blood specimen (specimen)"
            }
          ]
        }
      }
    },
    {
      "fullUrl": "urn:uuid:9327abc7-52ad-4001-9c02-9fdba49fa907",
      "resource": {
        "resourceType": "Specimen",
        "id": "9327abc7-52ad-4001-9c02-9fdba49fa907",
        "meta": {
          "profile": [
            "http://hl7.eu/fhir/laboratory/StructureDefinition/Specimen-eu-lab"
          ]
        },
        "collection": {
          "collectedDateTime": "2024-11-18"
        },
        "status": "available",
        "type": {
          "coding": [
            {
              "code": "258580003",
              "system": "http://snomed.info/sct",
              "display": "Whole blood specimen (specimen)"
            }
          ]
        }
      }
    },
    {
      "fullUrl": "urn:uuid:e1412f51-f319-468a-9feb-55bb488d8f5f",
      "resource": {
        "resourceType": "Specimen",
        "id": "e1412f51-f319-468a-9feb-55bb488d8f5f",
        "meta": {
          "profile": [
            "http://hl7.eu/fhir/laboratory/StructureDefinition/Specimen-eu-lab"
          ]
        },
        "collection": {
          "collectedDateTime": "2024-11-18"
        },
        "status": "available",
        "type": {
          "coding": [
            {
              "code": "122592007",
              "system": "http://snomed.info/sct",
              "display": "Acellular blood (serum or plasma) specimen (specimen)"
            }
          ]
        }
      }
    },
    {
      "fullUrl": "urn:uuid:61ddc26b-1912-44a7-814c-7079fcfc3026",
      "resource": {
        "resourceType": "Specimen",
        "id": "61ddc26b-1912-44a7-814c-7079fcfc3026",
        "meta": {
          "profile": [
            "http://hl7.eu/fhir/laboratory/StructureDefinition/Specimen-eu-lab"
          ]
        },
        "collection": {
          "collectedDateTime": "2024-11-18"
        },
        "status": "available",
        "type": {
          "coding": [
            {
              "code": "119362004",
              "system": "http://snomed.info/sct",
              "display": "Platelet poor plasma specimen (specimen) "
            }
          ]
        }
      }
    },
    {
      "fullUrl": "urn:uuid:7db46b66-7c51-460e-99e4-7ba139685f55",
      "resource": {
        "resourceType": "Observation",
        "id": "7db46b66-7c51-460e-99e4-7ba139685f55",
        "meta": {
          "profile": [
            "http://hl7.eu/fhir/laboratory/StructureDefinition/Observation-resultslab-eu-lab"
          ]
        },
        "performer": [
          {
            "display": "The Central European Lab"
          }
        ],
        "category": [
          {
            "coding": [
              {
                "code": "laboratory",
                "system": "http://terminology.hl7.org/CodeSystem/observation-category"
              }
            ]
          }
        ],
        "code": {
          "coding": [
            {
              "code": "2708-6",
              "system": "http://loinc.org",
              "display": "Oxygen saturation in Arterial blood"
            }
          ],
          "text": "Oxygen saturation in Arterial blood"
        },
        "valueQuantity": {
          "system": "http://unitsofmeasure.org",
          "value": 87.5,
          "unit": "%",
          "code": "%"
        },
        "referenceRange": [
          {
            "low": {
              "value": 95,
              "code": "%",
              "system": "http://unitsofmeasure.org"
            }
          },
          {
            "high": {
              "value": 100,
              "code": "%",
              "system": "http://unitsofmeasure.org"
            }
          }
        ],
        "interpretation": [
          {
            "coding": [
              {
                "code": "L",
                "system": "http://terminology.hl7.org/CodeSystem/v3-ObservationInterpretation",
                "display": "Low"
              }
            ]
          }
        ],
        "status": "final",
        "subject": {
          "reference": "urn:uuid:62da47e9-326e-492a-b54e-bf62e7dcc7f3"
        },
        "effectiveDateTime": "2024-11-18",
        "specimen": {
          "reference": "urn:uuid:add7de57-628f-49ce-848e-cfca997201cb"
        }
      }
    },
    {
      "fullUrl": "urn:uuid:6eb34344-866c-4ffa-9e3b-1791be10cad2",
      "resource": {
        "resourceType": "Observation",
        "id": "6eb34344-866c-4ffa-9e3b-1791be10cad2",
        "meta": {
          "profile": [
            "http://hl7.eu/fhir/laboratory/StructureDefinition/Observation-resultslab-eu-lab"
          ]
        },
        "performer": [
          {
            "display": "The Central European Lab"
          }
        ],
        "category": [
          {
            "coding": [
              {
                "code": "laboratory",
                "system": "http://terminology.hl7.org/CodeSystem/observation-category"
              }
            ]
          }
        ],
        "code": {
          "coding": [
            {
              "code": "80382-5",
              "system": "http://loinc.org",
              "display": "Influenza virus A Ag [Presence] in Upper respiratory specimen by Rapid immunoassay"
            }
          ],
          "text": "Influenza virus A Ag [Presence] in Upper respiratory specimen by Rapid immunoassay"
        },
        "status": "final",
        "subject": {
          "reference": "urn:uuid:62da47e9-326e-492a-b54e-bf62e7dcc7f3"
        },
        "effectiveDateTime": "2024-11-18",
        "valueCodeableConcept": {
          "coding": [
            {
              "code": "260415000",
              "system": "http://snomed.info/sct",
              "display": "Not detected"
            }
          ]
        },
        "specimen": {
          "reference": "urn:uuid:b3bb6891-e5cf-4202-bc0b-7c94bd6ece69"
        }
      }
    },
    {
      "fullUrl": "urn:uuid:6539b541-54e7-470b-9c44-faad2af49431",
      "resource": {
        "resourceType": "Observation",
        "id": "6539b541-54e7-470b-9c44-faad2af49431",
        "meta": {
          "profile": [
            "http://hl7.eu/fhir/laboratory/StructureDefinition/Observation-resultslab-eu-lab"
          ]
        },
        "performer": [
          {
            "display": "The Central European Lab"
          }
        ],
        "category": [
          {
            "coding": [
              {
                "code": "laboratory",
                "system": "http://terminology.hl7.org/CodeSystem/observation-category"
              }
            ]
          }
        ],
        "code": {
          "coding": [
            {
              "code": "80383-3",
              "system": "http://loinc.org",
              "display": "Influenza virus B Ag [Presence] in Upper respiratory specimen by Rapid immunoassay"
            }
          ],
          "text": "Influenza virus B Ag [Presence] in Upper respiratory specimen by Rapid immunoassay"
        },
        "status": "final",
        "subject": {
          "reference": "urn:uuid:62da47e9-326e-492a-b54e-bf62e7dcc7f3"
        },
        "effectiveDateTime": "2024-11-18",
        "valueCodeableConcept": {
          "coding": [
            {
              "code": "260415000",
              "system": "http://snomed.info/sct",
              "display": "Not detected"
            }
          ]
        },
        "specimen": {
          "reference": "urn:uuid:b3bb6891-e5cf-4202-bc0b-7c94bd6ece69"
        }
      }
    },
    {
      "fullUrl": "urn:uuid:ddd3d393-9ad5-48db-98d0-021bb18a3330",
      "resource": {
        "resourceType": "Observation",
        "id": "ddd3d393-9ad5-48db-98d0-021bb18a3330",
        "meta": {
          "profile": [
            "http://hl7.eu/fhir/laboratory/StructureDefinition/Observation-resultslab-eu-lab"
          ]
        },
        "performer": [
          {
            "display": "The Central European Lab"
          }
        ],
        "category": [
          {
            "coding": [
              {
                "code": "laboratory",
                "system": "http://terminology.hl7.org/CodeSystem/observation-category"
              }
            ]
          }
        ],
        "code": {
          "coding": [
            {
              "code": "94531-1",
              "system": "http://loinc.org",
              "display": "SARS-CoV-2 (COVID-19) RNA panel - Respiratory system specimen by NAA with probe detection"
            }
          ],
          "text": "SARS-CoV-2 (COVID-19) RNA panel - Respiratory system specimen by NAA with probe detection"
        },
        "status": "final",
        "subject": {
          "reference": "urn:uuid:62da47e9-326e-492a-b54e-bf62e7dcc7f3"
        },
        "effectiveDateTime": "2024-11-18",
        "valueCodeableConcept": {
          "coding": [
            {
              "code": "260373001",
              "system": "http://snomed.info/sct",
              "display": "Detected"
            }
          ]
        },
        "specimen": {
          "reference": "urn:uuid:91b85a5d-a0b1-463e-9a26-9ae3f1dc2288"
        }
      }
    },
    {
      "fullUrl": "urn:uuid:bd39b903-6f1e-450d-b900-187bf2c0bb2d",
      "resource": {
        "resourceType": "Observation",
        "id": "bd39b903-6f1e-450d-b900-187bf2c0bb2d",
        "meta": {
          "profile": [
            "http://hl7.eu/fhir/laboratory/StructureDefinition/Observation-resultslab-eu-lab"
          ]
        },
        "performer": [
          {
            "display": "The Central European Lab"
          }
        ],
        "category": [
          {
            "coding": [
              {
                "code": "laboratory",
                "system": "http://terminology.hl7.org/CodeSystem/observation-category"
              }
            ]
          }
        ],
        "code": {
          "coding": [
            {
              "code": "2708-6",
              "system": "http://loinc.org",
              "display": "Oxygen saturation in Arterial blood"
            }
          ],
          "text": "Oxygen saturation in Arterial blood"
        },
        "valueQuantity": {
          "system": "http://unitsofmeasure.org",
          "value": 78.4,
          "unit": "%",
          "code": "%"
        },
        "referenceRange": [
          {
            "low": {
              "value": 95,
              "code": "%",
              "system": "http://unitsofmeasure.org"
            }
          },
          {
            "high": {
              "value": 100,
              "code": "%",
              "system": "http://unitsofmeasure.org"
            }
          }
        ],
        "interpretation": [
          {
            "coding": [
              {
                "code": "L",
                "system": "http://terminology.hl7.org/CodeSystem/v3-ObservationInterpretation",
                "display": "Low"
              }
            ]
          }
        ],
        "status": "final",
        "subject": {
          "reference": "urn:uuid:62da47e9-326e-492a-b54e-bf62e7dcc7f3"
        },
        "effectiveDateTime": "2024-11-18",
        "specimen": {
          "reference": "urn:uuid:add7de57-628f-49ce-848e-cfca997201cb"
        }
      }
    },
    {
      "fullUrl": "urn:uuid:c2bf886f-7b70-48cd-9bef-424a65d08ffb",
      "resource": {
        "resourceType": "Observation",
        "id": "c2bf886f-7b70-48cd-9bef-424a65d08ffb",
        "meta": {
          "profile": [
            "http://hl7.eu/fhir/laboratory/StructureDefinition/Observation-resultslab-eu-lab"
          ]
        },
        "performer": [
          {
            "display": "The Central European Lab"
          }
        ],
        "category": [
          {
            "coding": [
              {
                "code": "laboratory",
                "system": "http://terminology.hl7.org/CodeSystem/observation-category"
              }
            ]
          }
        ],
        "code": {
          "coding": [
            {
              "code": "6690-2",
              "system": "http://loinc.org",
              "display": "Leukocytes [#/volume] in Blood by Automated count"
            }
          ],
          "text": "Leukocytes [#/volume] in Blood by Automated count"
        },
        "valueQuantity": {
          "system": "http://unitsofmeasure.org",
          "value": 3.8,
          "unit": "10*3/uL",
          "code": "10*3/uL"
        },
        "referenceRange": [
          {
            "low": {
              "value": 3.4,
              "code": "10*3/uL",
              "system": "http://unitsofmeasure.org"
            }
          },
          {
            "high": {
              "value": 10.6,
              "code": "10*3/uL",
              "system": "http://unitsofmeasure.org"
            }
          }
        ],
        "status": "final",
        "subject": {
          "reference": "urn:uuid:62da47e9-326e-492a-b54e-bf62e7dcc7f3"
        },
        "effectiveDateTime": "2024-11-18",
        "specimen": {
          "reference": "urn:uuid:b6ef6ef4-3bcd-42dc-b02a-08922d783654"
        }
      }
    },
    {
      "fullUrl": "urn:uuid:48ff5d2c-f791-4413-a1af-a64462030717",
      "resource": {
        "resourceType": "Observation",
        "id": "48ff5d2c-f791-4413-a1af-a64462030717",
        "meta": {
          "profile": [
            "http://hl7.eu/fhir/laboratory/StructureDefinition/Observation-resultslab-eu-lab"
          ]
        },
        "performer": [
          {
            "display": "The Central European Lab"
          }
        ],
        "category": [
          {
            "coding": [
              {
                "code": "laboratory",
                "system": "http://terminology.hl7.org/CodeSystem/observation-category"
              }
            ]
          }
        ],
        "code": {
          "coding": [
            {
              "code": "789-8",
              "system": "http://loinc.org",
              "display": "Erythrocytes [#/volume] in Blood by Automated count"
            }
          ],
          "text": "Erythrocytes [#/volume] in Blood by Automated count"
        },
        "valueQuantity": {
          "system": "http://unitsofmeasure.org",
          "value": 4.8,
          "unit": "10*6/uL",
          "code": "10*6/uL"
        },
        "referenceRange": [
          {
            "low": {
              "value": 4.5,
              "code": "10*6/uL",
              "system": "http://unitsofmeasure.org"
            }
          },
          {
            "high": {
              "value": 6.2,
              "code": "10*6/uL",
              "system": "http://unitsofmeasure.org"
            }
          }
        ],
        "status": "final",
        "subject": {
          "reference": "urn:uuid:62da47e9-326e-492a-b54e-bf62e7dcc7f3"
        },
        "effectiveDateTime": "2024-11-18",
        "specimen": {
          "reference": "urn:uuid:b6ef6ef4-3bcd-42dc-b02a-08922d783654"
        }
      }
    },
    {
      "fullUrl": "urn:uuid:48aad6e7-a9d6-4c86-ae1b-293a44508984",
      "resource": {
        "resourceType": "Observation",
        "id": "48aad6e7-a9d6-4c86-ae1b-293a44508984",
        "meta": {
          "profile": [
            "http://hl7.eu/fhir/laboratory/StructureDefinition/Observation-resultslab-eu-lab"
          ]
        },
        "performer": [
          {
            "display": "The Central European Lab"
          }
        ],
        "category": [
          {
            "coding": [
              {
                "code": "laboratory",
                "system": "http://terminology.hl7.org/CodeSystem/observation-category"
              }
            ]
          }
        ],
        "code": {
          "coding": [
            {
              "code": "718-7",
              "system": "http://loinc.org",
              "display": "Hemoglobin [Mass/volume] in Blood"
            }
          ],
          "text": "Hemoglobin [Mass/volume] in Blood"
        },
        "valueQuantity": {
          "system": "http://unitsofmeasure.org",
          "value": 13.4,
          "unit": "g/dL",
          "code": "g/dL"
        },
        "referenceRange": [
          {
            "low": {
              "value": 13.5,
              "code": "g/dL",
              "system": "http://unitsofmeasure.org"
            }
          },
          {
            "high": {
              "value": 17.5,
              "code": "g/dL",
              "system": "http://unitsofmeasure.org"
            }
          }
        ],
        "interpretation": [
          {
            "coding": [
              {
                "code": "L",
                "system": "http://terminology.hl7.org/CodeSystem/v3-ObservationInterpretation",
                "display": "Low"
              }
            ]
          }
        ],
        "status": "final",
        "subject": {
          "reference": "urn:uuid:62da47e9-326e-492a-b54e-bf62e7dcc7f3"
        },
        "effectiveDateTime": "2024-11-18",
        "specimen": {
          "reference": "urn:uuid:b6ef6ef4-3bcd-42dc-b02a-08922d783654"
        }
      }
    },
    {
      "fullUrl": "urn:uuid:bcb12945-82e9-4d40-b086-d9efb2aae855",
      "resource": {
        "resourceType": "Observation",
        "id": "bcb12945-82e9-4d40-b086-d9efb2aae855",
        "meta": {
          "profile": [
            "http://hl7.eu/fhir/laboratory/StructureDefinition/Observation-resultslab-eu-lab"
          ]
        },
        "performer": [
          {
            "display": "The Central European Lab"
          }
        ],
        "category": [
          {
            "coding": [
              {
                "code": "laboratory",
                "system": "http://terminology.hl7.org/CodeSystem/observation-category"
              }
            ]
          }
        ],
        "code": {
          "coding": [
            {
              "code": "4544-3",
              "system": "http://loinc.org",
              "display": "Hematocrit [Volume Fraction] of Blood by Automated count"
            }
          ],
          "text": "Hematocrit [Volume Fraction] of Blood by Automated count"
        },
        "valueQuantity": {
          "system": "http://unitsofmeasure.org",
          "value": 40.8,
          "unit": "%",
          "code": "%"
        },
        "referenceRange": [
          {
            "low": {
              "value": 38,
              "code": "%",
              "system": "http://unitsofmeasure.org"
            }
          },
          {
            "high": {
              "value": 50,
              "code": "%",
              "system": "http://unitsofmeasure.org"
            }
          }
        ],
        "status": "final",
        "subject": {
          "reference": "urn:uuid:62da47e9-326e-492a-b54e-bf62e7dcc7f3"
        },
        "effectiveDateTime": "2024-11-18",
        "specimen": {
          "reference": "urn:uuid:b6ef6ef4-3bcd-42dc-b02a-08922d783654"
        }
      }
    },
    {
      "fullUrl": "urn:uuid:a1581b42-f6a3-41bb-bbc4-aa6486b48dd7",
      "resource": {
        "resourceType": "Observation",
        "id": "a1581b42-f6a3-41bb-bbc4-aa6486b48dd7",
        "meta": {
          "profile": [
            "http://hl7.eu/fhir/laboratory/StructureDefinition/Observation-resultslab-eu-lab"
          ]
        },
        "performer": [
          {
            "display": "The Central European Lab"
          }
        ],
        "category": [
          {
            "coding": [
              {
                "code": "laboratory",
                "system": "http://terminology.hl7.org/CodeSystem/observation-category"
              }
            ]
          }
        ],
        "code": {
          "coding": [
            {
              "code": "787-2",
              "system": "http://loinc.org",
              "display": "MCV [Entitic volume] by Automated count"
            }
          ],
          "text": "MCV [Entitic volume] by Automated count"
        },
        "valueQuantity": {
          "system": "http://unitsofmeasure.org",
          "value": 86.8,
          "unit": "fL",
          "code": "fL"
        },
        "referenceRange": [
          {
            "low": {
              "value": 82,
              "code": "fL",
              "system": "http://unitsofmeasure.org"
            }
          },
          {
            "high": {
              "value": 98,
              "code": "fL",
              "system": "http://unitsofmeasure.org"
            }
          }
        ],
        "status": "final",
        "subject": {
          "reference": "urn:uuid:62da47e9-326e-492a-b54e-bf62e7dcc7f3"
        },
        "effectiveDateTime": "2024-11-18",
        "specimen": {
          "reference": "urn:uuid:9327abc7-52ad-4001-9c02-9fdba49fa907"
        }
      }
    },
    {
      "fullUrl": "urn:uuid:c794dc62-b56a-4ed8-8789-b14c497d83ac",
      "resource": {
        "resourceType": "Observation",
        "id": "c794dc62-b56a-4ed8-8789-b14c497d83ac",
        "meta": {
          "profile": [
            "http://hl7.eu/fhir/laboratory/StructureDefinition/Observation-resultslab-eu-lab"
          ]
        },
        "performer": [
          {
            "display": "The Central European Lab"
          }
        ],
        "category": [
          {
            "coding": [
              {
                "code": "laboratory",
                "system": "http://terminology.hl7.org/CodeSystem/observation-category"
              }
            ]
          }
        ],
        "code": {
          "coding": [
            {
              "code": "785-6",
              "system": "http://loinc.org",
              "display": "MCH [Entitic mass] by Automated count"
            }
          ],
          "text": "MCH [Entitic mass] by Automated count"
        },
        "valueQuantity": {
          "system": "http://unitsofmeasure.org",
          "value": 31.2,
          "unit": "pg",
          "code": "pg"
        },
        "referenceRange": [
          {
            "low": {
              "value": 27,
              "code": "pg",
              "system": "http://unitsofmeasure.org"
            }
          },
          {
            "high": {
              "value": 34,
              "code": "pg",
              "system": "http://unitsofmeasure.org"
            }
          }
        ],
        "status": "final",
        "subject": {
          "reference": "urn:uuid:62da47e9-326e-492a-b54e-bf62e7dcc7f3"
        },
        "effectiveDateTime": "2024-11-18",
        "specimen": {
          "reference": "urn:uuid:9327abc7-52ad-4001-9c02-9fdba49fa907"
        }
      }
    },
    {
      "fullUrl": "urn:uuid:79ea0d09-d4fa-4256-b5f0-7af7cf586de5",
      "resource": {
        "resourceType": "Observation",
        "id": "79ea0d09-d4fa-4256-b5f0-7af7cf586de5",
        "meta": {
          "profile": [
            "http://hl7.eu/fhir/laboratory/StructureDefinition/Observation-resultslab-eu-lab"
          ]
        },
        "performer": [
          {
            "display": "The Central European Lab"
          }
        ],
        "category": [
          {
            "coding": [
              {
                "code": "laboratory",
                "system": "http://terminology.hl7.org/CodeSystem/observation-category"
              }
            ]
          }
        ],
        "code": {
          "coding": [
            {
              "code": "786-4",
              "system": "http://loinc.org",
              "display": "MCHC [Mass/volume] by Automated count"
            }
          ],
          "text": "MCHC [Mass/volume] by Automated count"
        },
        "valueQuantity": {
          "system": "http://unitsofmeasure.org",
          "value": 33.9,
          "unit": "g/dL",
          "code": "g/dL"
        },
        "referenceRange": [
          {
            "low": {
              "value": 31,
              "code": "g/dL",
              "system": "http://unitsofmeasure.org"
            }
          },
          {
            "high": {
              "value": 35,
              "code": "g/dL",
              "system": "http://unitsofmeasure.org"
            }
          }
        ],
        "status": "final",
        "subject": {
          "reference": "urn:uuid:62da47e9-326e-492a-b54e-bf62e7dcc7f3"
        },
        "effectiveDateTime": "2024-11-18",
        "specimen": {
          "reference": "urn:uuid:9327abc7-52ad-4001-9c02-9fdba49fa907"
        }
      }
    },
    {
      "fullUrl": "urn:uuid:acfba6de-89d4-48e2-965c-d811a61f843e",
      "resource": {
        "resourceType": "Observation",
        "id": "acfba6de-89d4-48e2-965c-d811a61f843e",
        "meta": {
          "profile": [
            "http://hl7.eu/fhir/laboratory/StructureDefinition/Observation-resultslab-eu-lab"
          ]
        },
        "performer": [
          {
            "display": "The Central European Lab"
          }
        ],
        "category": [
          {
            "coding": [
              {
                "code": "laboratory",
                "system": "http://terminology.hl7.org/CodeSystem/observation-category"
              }
            ]
          }
        ],
        "code": {
          "coding": [
            {
              "code": "788-0",
              "system": "http://loinc.org",
              "display": "Erythrocyte distribution width [Ratio] by Automated count"
            }
          ],
          "text": "Erythrocyte distribution width [Ratio] by Automated count"
        },
        "valueQuantity": {
          "system": "http://unitsofmeasure.org",
          "value": 15,
          "unit": "%",
          "code": "%"
        },
        "referenceRange": [
          {
            "low": {
              "value": 11.5,
              "code": "%",
              "system": "http://unitsofmeasure.org"
            }
          },
          {
            "high": {
              "value": 16.5,
              "code": "%",
              "system": "http://unitsofmeasure.org"
            }
          }
        ],
        "status": "final",
        "subject": {
          "reference": "urn:uuid:62da47e9-326e-492a-b54e-bf62e7dcc7f3"
        },
        "effectiveDateTime": "2024-11-18",
        "specimen": {
          "reference": "urn:uuid:9327abc7-52ad-4001-9c02-9fdba49fa907"
        }
      }
    },
    {
      "fullUrl": "urn:uuid:252346f5-1224-4212-9461-a71f957633fb",
      "resource": {
        "resourceType": "Observation",
        "id": "252346f5-1224-4212-9461-a71f957633fb",
        "meta": {
          "profile": [
            "http://hl7.eu/fhir/laboratory/StructureDefinition/Observation-resultslab-eu-lab"
          ]
        },
        "performer": [
          {
            "display": "The Central European Lab"
          }
        ],
        "category": [
          {
            "coding": [
              {
                "code": "laboratory",
                "system": "http://terminology.hl7.org/CodeSystem/observation-category"
              }
            ]
          }
        ],
        "code": {
          "coding": [
            {
              "code": "777-3",
              "system": "http://loinc.org",
              "display": "Platelets [#/volume] in Blood by Automated count"
            }
          ],
          "text": "Platelets [#/volume] in Blood by Automated count"
        },
        "valueQuantity": {
          "system": "http://unitsofmeasure.org",
          "value": 99.9,
          "unit": "10*3/uL",
          "code": "10*3/uL"
        },
        "referenceRange": [
          {
            "low": {
              "value": 150,
              "code": "10*3/uL",
              "system": "http://unitsofmeasure.org"
            }
          },
          {
            "high": {
              "value": 300,
              "code": "10*3/uL",
              "system": "http://unitsofmeasure.org"
            }
          }
        ],
        "interpretation": [
          {
            "coding": [
              {
                "code": "L",
                "system": "http://terminology.hl7.org/CodeSystem/v3-ObservationInterpretation",
                "display": "Low"
              }
            ]
          }
        ],
        "status": "final",
        "subject": {
          "reference": "urn:uuid:62da47e9-326e-492a-b54e-bf62e7dcc7f3"
        },
        "effectiveDateTime": "2024-11-18",
        "specimen": {
          "reference": "urn:uuid:b6ef6ef4-3bcd-42dc-b02a-08922d783654"
        }
      }
    },
    {
      "fullUrl": "urn:uuid:c4755bdc-a922-4650-a7a0-614d0e7961d0",
      "resource": {
        "resourceType": "Observation",
        "id": "c4755bdc-a922-4650-a7a0-614d0e7961d0",
        "meta": {
          "profile": [
            "http://hl7.eu/fhir/laboratory/StructureDefinition/Observation-resultslab-eu-lab"
          ]
        },
        "performer": [
          {
            "display": "The Central European Lab"
          }
        ],
        "category": [
          {
            "coding": [
              {
                "code": "laboratory",
                "system": "http://terminology.hl7.org/CodeSystem/observation-category"
              }
            ]
          }
        ],
        "code": {
          "coding": [
            {
              "code": "770-8",
              "system": "http://loinc.org",
              "display": "Neutrophils/100 leukocytes in Blood by Automated count"
            }
          ],
          "text": "Neutrophils/100 leukocytes in Blood by Automated count"
        },
        "valueQuantity": {
          "system": "http://unitsofmeasure.org",
          "value": 39.3,
          "unit": "%",
          "code": "%"
        },
        "referenceRange": [
          {
            "low": {
              "value": 40,
              "code": "%",
              "system": "http://unitsofmeasure.org"
            }
          },
          {
            "high": {
              "value": 74,
              "code": "%",
              "system": "http://unitsofmeasure.org"
            }
          }
        ],
        "interpretation": [
          {
            "coding": [
              {
                "code": "L",
                "system": "http://terminology.hl7.org/CodeSystem/v3-ObservationInterpretation",
                "display": "Low"
              }
            ]
          }
        ],
        "status": "final",
        "subject": {
          "reference": "urn:uuid:62da47e9-326e-492a-b54e-bf62e7dcc7f3"
        },
        "effectiveDateTime": "2024-11-18",
        "specimen": {
          "reference": "urn:uuid:b6ef6ef4-3bcd-42dc-b02a-08922d783654"
        }
      }
    },
    {
      "fullUrl": "urn:uuid:855aa6d2-352a-409d-ba1d-34dc21323cf8",
      "resource": {
        "resourceType": "Observation",
        "id": "855aa6d2-352a-409d-ba1d-34dc21323cf8",
        "meta": {
          "profile": [
            "http://hl7.eu/fhir/laboratory/StructureDefinition/Observation-resultslab-eu-lab"
          ]
        },
        "performer": [
          {
            "display": "The Central European Lab"
          }
        ],
        "category": [
          {
            "coding": [
              {
                "code": "laboratory",
                "system": "http://terminology.hl7.org/CodeSystem/observation-category"
              }
            ]
          }
        ],
        "code": {
          "coding": [
            {
              "code": "736-9",
              "system": "http://loinc.org",
              "display": "Lymphocytes/100 leukocytes in Blood by Automated count"
            }
          ],
          "text": "Lymphocytes/100 leukocytes in Blood by Automated count"
        },
        "valueQuantity": {
          "system": "http://unitsofmeasure.org",
          "value": 15,
          "unit": "%",
          "code": "%"
        },
        "referenceRange": [
          {
            "low": {
              "value": 20,
              "code": "%",
              "system": "http://unitsofmeasure.org"
            }
          },
          {
            "high": {
              "value": 40,
              "code": "%",
              "system": "http://unitsofmeasure.org"
            }
          }
        ],
        "interpretation": [
          {
            "coding": [
              {
                "code": "L",
                "system": "http://terminology.hl7.org/CodeSystem/v3-ObservationInterpretation",
                "display": "Low"
              }
            ]
          }
        ],
        "status": "final",
        "subject": {
          "reference": "urn:uuid:62da47e9-326e-492a-b54e-bf62e7dcc7f3"
        },
        "effectiveDateTime": "2024-11-18",
        "specimen": {
          "reference": "urn:uuid:b6ef6ef4-3bcd-42dc-b02a-08922d783654"
        }
      }
    },
    {
      "fullUrl": "urn:uuid:2b2cbfa8-8897-4afc-af8c-d84c5f1170fe",
      "resource": {
        "resourceType": "Observation",
        "id": "2b2cbfa8-8897-4afc-af8c-d84c5f1170fe",
        "meta": {
          "profile": [
            "http://hl7.eu/fhir/laboratory/StructureDefinition/Observation-resultslab-eu-lab"
          ]
        },
        "performer": [
          {
            "display": "The Central European Lab"
          }
        ],
        "category": [
          {
            "coding": [
              {
                "code": "laboratory",
                "system": "http://terminology.hl7.org/CodeSystem/observation-category"
              }
            ]
          }
        ],
        "code": {
          "coding": [
            {
              "code": "5905-5",
              "system": "http://loinc.org",
              "display": "Monocytes/100 leukocytes in Blood by Automated count"
            }
          ],
          "text": "Monocytes/100 leukocytes in Blood by Automated count"
        },
        "valueQuantity": {
          "system": "http://unitsofmeasure.org",
          "value": 8.4,
          "unit": "%",
          "code": "%"
        },
        "referenceRange": [
          {
            "low": {
              "value": 2,
              "code": "%",
              "system": "http://unitsofmeasure.org"
            }
          },
          {
            "high": {
              "value": 10,
              "code": "%",
              "system": "http://unitsofmeasure.org"
            }
          }
        ],
        "status": "final",
        "subject": {
          "reference": "urn:uuid:62da47e9-326e-492a-b54e-bf62e7dcc7f3"
        },
        "effectiveDateTime": "2024-11-18",
        "specimen": {
          "reference": "urn:uuid:b6ef6ef4-3bcd-42dc-b02a-08922d783654"
        }
      }
    },
    {
      "fullUrl": "urn:uuid:2d8a4e80-1459-4ef8-8bbb-13e9ac20e246",
      "resource": {
        "resourceType": "Observation",
        "id": "2d8a4e80-1459-4ef8-8bbb-13e9ac20e246",
        "meta": {
          "profile": [
            "http://hl7.eu/fhir/laboratory/StructureDefinition/Observation-resultslab-eu-lab"
          ]
        },
        "performer": [
          {
            "display": "The Central European Lab"
          }
        ],
        "category": [
          {
            "coding": [
              {
                "code": "laboratory",
                "system": "http://terminology.hl7.org/CodeSystem/observation-category"
              }
            ]
          }
        ],
        "code": {
          "coding": [
            {
              "code": "713-8",
              "system": "http://loinc.org",
              "display": "Eosinophils/100 leukocytes in Blood by Automated count"
            }
          ],
          "text": "Eosinophils/100 leukocytes in Blood by Automated count"
        },
        "valueQuantity": {
          "system": "http://unitsofmeasure.org",
          "value": 3.7,
          "unit": "%",
          "code": "%"
        },
        "referenceRange": [
          {
            "low": {
              "value": 0,
              "code": "%",
              "system": "http://unitsofmeasure.org"
            }
          },
          {
            "high": {
              "value": 6,
              "code": "%",
              "system": "http://unitsofmeasure.org"
            }
          }
        ],
        "status": "final",
        "subject": {
          "reference": "urn:uuid:62da47e9-326e-492a-b54e-bf62e7dcc7f3"
        },
        "effectiveDateTime": "2024-11-18",
        "specimen": {
          "reference": "urn:uuid:b6ef6ef4-3bcd-42dc-b02a-08922d783654"
        }
      }
    },
    {
      "fullUrl": "urn:uuid:d8d760e0-7cef-4796-9dfd-0ab688164c41",
      "resource": {
        "resourceType": "Observation",
        "id": "d8d760e0-7cef-4796-9dfd-0ab688164c41",
        "meta": {
          "profile": [
            "http://hl7.eu/fhir/laboratory/StructureDefinition/Observation-resultslab-eu-lab"
          ]
        },
        "performer": [
          {
            "display": "The Central European Lab"
          }
        ],
        "category": [
          {
            "coding": [
              {
                "code": "laboratory",
                "system": "http://terminology.hl7.org/CodeSystem/observation-category"
              }
            ]
          }
        ],
        "code": {
          "coding": [
            {
              "code": "706-2",
              "system": "http://loinc.org",
              "display": "Basophils/100 leukocytes in Blood by Automated count"
            }
          ],
          "text": "Basophils/100 leukocytes in Blood by Automated count"
        },
        "valueQuantity": {
          "system": "http://unitsofmeasure.org",
          "value": 2.2,
          "unit": "%",
          "code": "%"
        },
        "referenceRange": [
          {
            "low": {
              "value": 0.5,
              "code": "%",
              "system": "http://unitsofmeasure.org"
            }
          },
          {
            "high": {
              "value": 3,
              "code": "%",
              "system": "http://unitsofmeasure.org"
            }
          }
        ],
        "status": "final",
        "subject": {
          "reference": "urn:uuid:62da47e9-326e-492a-b54e-bf62e7dcc7f3"
        },
        "effectiveDateTime": "2024-11-18",
        "specimen": {
          "reference": "urn:uuid:b6ef6ef4-3bcd-42dc-b02a-08922d783654"
        }
      }
    },
    {
      "fullUrl": "urn:uuid:4d603f4b-f62a-4089-9a28-f4a29d0a8b50",
      "resource": {
        "resourceType": "Observation",
        "id": "4d603f4b-f62a-4089-9a28-f4a29d0a8b50",
        "meta": {
          "profile": [
            "http://hl7.eu/fhir/laboratory/StructureDefinition/Observation-resultslab-eu-lab"
          ]
        },
        "performer": [
          {
            "display": "The Central European Lab"
          }
        ],
        "category": [
          {
            "coding": [
              {
                "code": "laboratory",
                "system": "http://terminology.hl7.org/CodeSystem/observation-category"
              }
            ]
          }
        ],
        "code": {
          "coding": [
            {
              "code": "751-8",
              "system": "http://loinc.org",
              "display": "Neutrophils [#/volume] in Blood by Automated count"
            }
          ],
          "text": "Neutrophils [#/volume] in Blood by Automated count"
        },
        "valueQuantity": {
          "system": "http://unitsofmeasure.org",
          "value": 3.4,
          "unit": "10*3/uL",
          "code": "10*3/uL"
        },
        "referenceRange": [
          {
            "low": {
              "value": 2,
              "code": "10*3/uL",
              "system": "http://unitsofmeasure.org"
            }
          },
          {
            "high": {
              "value": 7,
              "code": "10*3/uL",
              "system": "http://unitsofmeasure.org"
            }
          }
        ],
        "status": "final",
        "subject": {
          "reference": "urn:uuid:62da47e9-326e-492a-b54e-bf62e7dcc7f3"
        },
        "effectiveDateTime": "2024-11-18",
        "specimen": {
          "reference": "urn:uuid:b6ef6ef4-3bcd-42dc-b02a-08922d783654"
        }
      }
    },
    {
      "fullUrl": "urn:uuid:b0f15438-f462-48c6-bfcd-9c949f0be6e9",
      "resource": {
        "resourceType": "Observation",
        "id": "b0f15438-f462-48c6-bfcd-9c949f0be6e9",
        "meta": {
          "profile": [
            "http://hl7.eu/fhir/laboratory/StructureDefinition/Observation-resultslab-eu-lab"
          ]
        },
        "performer": [
          {
            "display": "The Central European Lab"
          }
        ],
        "category": [
          {
            "coding": [
              {
                "code": "laboratory",
                "system": "http://terminology.hl7.org/CodeSystem/observation-category"
              }
            ]
          }
        ],
        "code": {
          "coding": [
            {
              "code": "731-0",
              "system": "http://loinc.org",
              "display": "Lymphocytes [#/volume] in Blood by Automated count"
            }
          ],
          "text": "Lymphocytes [#/volume] in Blood by Automated count"
        },
        "valueQuantity": {
          "system": "http://unitsofmeasure.org",
          "value": 1,
          "unit": "10*3/uL",
          "code": "10*3/uL"
        },
        "referenceRange": [
          {
            "low": {
              "value": 1,
              "code": "10*3/uL",
              "system": "http://unitsofmeasure.org"
            }
          },
          {
            "high": {
              "value": 4.8,
              "code": "10*3/uL",
              "system": "http://unitsofmeasure.org"
            }
          }
        ],
        "status": "final",
        "subject": {
          "reference": "urn:uuid:62da47e9-326e-492a-b54e-bf62e7dcc7f3"
        },
        "effectiveDateTime": "2024-11-18",
        "specimen": {
          "reference": "urn:uuid:b6ef6ef4-3bcd-42dc-b02a-08922d783654"
        }
      }
    },
    {
      "fullUrl": "urn:uuid:df7f7931-10e3-49f9-b1a2-56a7d9995716",
      "resource": {
        "resourceType": "Observation",
        "id": "df7f7931-10e3-49f9-b1a2-56a7d9995716",
        "meta": {
          "profile": [
            "http://hl7.eu/fhir/laboratory/StructureDefinition/Observation-resultslab-eu-lab"
          ]
        },
        "performer": [
          {
            "display": "The Central European Lab"
          }
        ],
        "category": [
          {
            "coding": [
              {
                "code": "laboratory",
                "system": "http://terminology.hl7.org/CodeSystem/observation-category"
              }
            ]
          }
        ],
        "code": {
          "coding": [
            {
              "code": "742-7",
              "system": "http://loinc.org",
              "display": "Monocytes [#/volume] in Blood by Automated count"
            }
          ],
          "text": "Monocytes [#/volume] in Blood by Automated count"
        },
        "valueQuantity": {
          "system": "http://unitsofmeasure.org",
          "value": 1,
          "unit": "10*3/uL",
          "code": "10*3/uL"
        },
        "referenceRange": [
          {
            "low": {
              "value": 0.7,
              "code": "10*3/uL",
              "system": "http://unitsofmeasure.org"
            }
          },
          {
            "high": {
              "value": 0.9,
              "code": "10*3/uL",
              "system": "http://unitsofmeasure.org"
            }
          }
        ],
        "interpretation": [
          {
            "coding": [
              {
                "code": "H",
                "system": "http://terminology.hl7.org/CodeSystem/v3-ObservationInterpretation",
                "display": "High"
              }
            ]
          }
        ],
        "status": "final",
        "subject": {
          "reference": "urn:uuid:62da47e9-326e-492a-b54e-bf62e7dcc7f3"
        },
        "effectiveDateTime": "2024-11-18",
        "specimen": {
          "reference": "urn:uuid:b6ef6ef4-3bcd-42dc-b02a-08922d783654"
        }
      }
    },
    {
      "fullUrl": "urn:uuid:043e21ea-8be8-4e53-82f8-dbb06f82c811",
      "resource": {
        "resourceType": "Observation",
        "id": "043e21ea-8be8-4e53-82f8-dbb06f82c811",
        "meta": {
          "profile": [
            "http://hl7.eu/fhir/laboratory/StructureDefinition/Observation-resultslab-eu-lab"
          ]
        },
        "performer": [
          {
            "display": "The Central European Lab"
          }
        ],
        "category": [
          {
            "coding": [
              {
                "code": "laboratory",
                "system": "http://terminology.hl7.org/CodeSystem/observation-category"
              }
            ]
          }
        ],
        "code": {
          "coding": [
            {
              "code": "711-2",
              "system": "http://loinc.org",
              "display": "Eosinophils [#/volume] in Blood by Automated count"
            }
          ],
          "text": "Eosinophils [#/volume] in Blood by Automated count"
        },
        "valueQuantity": {
          "system": "http://unitsofmeasure.org",
          "value": 0.6,
          "unit": "10*3/uL",
          "code": "10*3/uL"
        },
        "referenceRange": [
          {
            "low": {
              "value": 0,
              "code": "10*3/uL",
              "system": "http://unitsofmeasure.org"
            }
          },
          {
            "high": {
              "value": 0.7,
              "code": "10*3/uL",
              "system": "http://unitsofmeasure.org"
            }
          }
        ],
        "status": "final",
        "subject": {
          "reference": "urn:uuid:62da47e9-326e-492a-b54e-bf62e7dcc7f3"
        },
        "effectiveDateTime": "2024-11-18",
        "specimen": {
          "reference": "urn:uuid:b6ef6ef4-3bcd-42dc-b02a-08922d783654"
        }
      }
    },
    {
      "fullUrl": "urn:uuid:af9ef7e7-19b7-4ed4-a8d0-8acef00cd3a4",
      "resource": {
        "resourceType": "Observation",
        "id": "af9ef7e7-19b7-4ed4-a8d0-8acef00cd3a4",
        "meta": {
          "profile": [
            "http://hl7.eu/fhir/laboratory/StructureDefinition/Observation-resultslab-eu-lab"
          ]
        },
        "performer": [
          {
            "display": "The Central European Lab"
          }
        ],
        "category": [
          {
            "coding": [
              {
                "code": "laboratory",
                "system": "http://terminology.hl7.org/CodeSystem/observation-category"
              }
            ]
          }
        ],
        "code": {
          "coding": [
            {
              "code": "704-7",
              "system": "http://loinc.org",
              "display": "Basophils [#/volume] in Blood by Automated count"
            }
          ],
          "text": "Basophils [#/volume] in Blood by Automated count"
        },
        "valueQuantity": {
          "system": "http://unitsofmeasure.org",
          "value": 0.3,
          "unit": "10*3/uL",
          "code": "10*3/uL"
        },
        "referenceRange": [
          {
            "low": {
              "value": 0.1,
              "code": "10*3/uL",
              "system": "http://unitsofmeasure.org"
            }
          },
          {
            "high": {
              "value": 0.2,
              "code": "10*3/uL",
              "system": "http://unitsofmeasure.org"
            }
          }
        ],
        "interpretation": [
          {
            "coding": [
              {
                "code": "H",
                "system": "http://terminology.hl7.org/CodeSystem/v3-ObservationInterpretation",
                "display": "High"
              }
            ]
          }
        ],
        "status": "final",
        "subject": {
          "reference": "urn:uuid:62da47e9-326e-492a-b54e-bf62e7dcc7f3"
        },
        "effectiveDateTime": "2024-11-18",
        "specimen": {
          "reference": "urn:uuid:b6ef6ef4-3bcd-42dc-b02a-08922d783654"
        }
      }
    },
    {
      "fullUrl": "urn:uuid:38790e6a-1c70-484f-8ce8-7cc0056948c2",
      "resource": {
        "resourceType": "Observation",
        "id": "38790e6a-1c70-484f-8ce8-7cc0056948c2",
        "meta": {
          "profile": [
            "http://hl7.eu/fhir/laboratory/StructureDefinition/Observation-resultslab-eu-lab"
          ]
        },
        "performer": [
          {
            "display": "The Central European Lab"
          }
        ],
        "category": [
          {
            "coding": [
              {
                "code": "laboratory",
                "system": "http://terminology.hl7.org/CodeSystem/observation-category"
              }
            ]
          }
        ],
        "code": {
          "coding": [
            {
              "code": "2345-7",
              "system": "http://loinc.org",
              "display": "Glucose [Mass/volume] in Serum or Plasma"
            }
          ],
          "text": "Glucose [Mass/volume] in Serum or Plasma"
        },
        "valueQuantity": {
          "system": "http://unitsofmeasure.org",
          "value": 69.5,
          "unit": "mg/dL",
          "code": "mg/dL"
        },
        "referenceRange": [
          {
            "low": {
              "value": 70,
              "code": "mg/dL",
              "system": "http://unitsofmeasure.org"
            }
          },
          {
            "high": {
              "value": 99,
              "code": "mg/dL",
              "system": "http://unitsofmeasure.org"
            }
          }
        ],
        "interpretation": [
          {
            "coding": [
              {
                "code": "L",
                "system": "http://terminology.hl7.org/CodeSystem/v3-ObservationInterpretation",
                "display": "Low"
              }
            ]
          }
        ],
        "status": "final",
        "subject": {
          "reference": "urn:uuid:62da47e9-326e-492a-b54e-bf62e7dcc7f3"
        },
        "effectiveDateTime": "2024-11-18",
        "specimen": {
          "reference": "urn:uuid:e1412f51-f319-468a-9feb-55bb488d8f5f"
        }
      }
    },
    {
      "fullUrl": "urn:uuid:ec3259a9-1170-4651-8968-7589b52e8afa",
      "resource": {
        "resourceType": "Observation",
        "id": "ec3259a9-1170-4651-8968-7589b52e8afa",
        "meta": {
          "profile": [
            "http://hl7.eu/fhir/laboratory/StructureDefinition/Observation-resultslab-eu-lab"
          ]
        },
        "performer": [
          {
            "display": "The Central European Lab"
          }
        ],
        "category": [
          {
            "coding": [
              {
                "code": "laboratory",
                "system": "http://terminology.hl7.org/CodeSystem/observation-category"
              }
            ]
          }
        ],
        "code": {
          "coding": [
            {
              "code": "3094-0",
              "system": "http://loinc.org",
              "display": "Urea nitrogen [Mass/volume] in Serum or Plasma"
            }
          ],
          "text": "Urea nitrogen [Mass/volume] in Serum or Plasma"
        },
        "valueQuantity": {
          "system": "http://unitsofmeasure.org",
          "value": 12.6,
          "unit": "mg/dL",
          "code": "mg/dL"
        },
        "referenceRange": [
          {
            "low": {
              "value": 7,
              "code": "mg/dL",
              "system": "http://unitsofmeasure.org"
            }
          },
          {
            "high": {
              "value": 20,
              "code": "mg/dL",
              "system": "http://unitsofmeasure.org"
            }
          }
        ],
        "status": "final",
        "subject": {
          "reference": "urn:uuid:62da47e9-326e-492a-b54e-bf62e7dcc7f3"
        },
        "effectiveDateTime": "2024-11-18",
        "specimen": {
          "reference": "urn:uuid:e1412f51-f319-468a-9feb-55bb488d8f5f"
        }
      }
    },
    {
      "fullUrl": "urn:uuid:44ad851c-be8f-4c36-bb58-436f3f95f855",
      "resource": {
        "resourceType": "Observation",
        "id": "44ad851c-be8f-4c36-bb58-436f3f95f855",
        "meta": {
          "profile": [
            "http://hl7.eu/fhir/laboratory/StructureDefinition/Observation-resultslab-eu-lab"
          ]
        },
        "performer": [
          {
            "display": "The Central European Lab"
          }
        ],
        "category": [
          {
            "coding": [
              {
                "code": "laboratory",
                "system": "http://terminology.hl7.org/CodeSystem/observation-category"
              }
            ]
          }
        ],
        "code": {
          "coding": [
            {
              "code": "2160-0",
              "system": "http://loinc.org",
              "display": "Creatinine [Mass/volume] in Serum or Plasma"
            }
          ],
          "text": "Creatinine [Mass/volume] in Serum or Plasma"
        },
        "valueQuantity": {
          "system": "http://unitsofmeasure.org",
          "value": 2.9,
          "unit": "mg/dL",
          "code": "mg/dL"
        },
        "referenceRange": [
          {
            "low": {
              "value": 0.9,
              "code": "mg/dL",
              "system": "http://unitsofmeasure.org"
            }
          },
          {
            "high": {
              "value": 1.3,
              "code": "mg/dL",
              "system": "http://unitsofmeasure.org"
            }
          }
        ],
        "interpretation": [
          {
            "coding": [
              {
                "code": "H",
                "system": "http://terminology.hl7.org/CodeSystem/v3-ObservationInterpretation",
                "display": "High"
              }
            ]
          }
        ],
        "status": "final",
        "subject": {
          "reference": "urn:uuid:62da47e9-326e-492a-b54e-bf62e7dcc7f3"
        },
        "effectiveDateTime": "2024-11-18",
        "specimen": {
          "reference": "urn:uuid:e1412f51-f319-468a-9feb-55bb488d8f5f"
        }
      }
    },
    {
      "fullUrl": "urn:uuid:dd3f1dac-c7ba-4aa4-bf01-cd7a20bc4d9a",
      "resource": {
        "resourceType": "Observation",
        "id": "dd3f1dac-c7ba-4aa4-bf01-cd7a20bc4d9a",
        "meta": {
          "profile": [
            "http://hl7.eu/fhir/laboratory/StructureDefinition/Observation-resultslab-eu-lab"
          ]
        },
        "performer": [
          {
            "display": "The Central European Lab"
          }
        ],
        "category": [
          {
            "coding": [
              {
                "code": "laboratory",
                "system": "http://terminology.hl7.org/CodeSystem/observation-category"
              }
            ]
          }
        ],
        "code": {
          "coding": [
            {
              "code": "17861-6",
              "system": "http://loinc.org",
              "display": "Calcium [Mass/volume] in Serum or Plasma"
            }
          ],
          "text": "Calcium [Mass/volume] in Serum or Plasma"
        },
        "valueQuantity": {
          "system": "http://unitsofmeasure.org",
          "value": 9,
          "unit": "mg/dL",
          "code": "mg/dL"
        },
        "referenceRange": [
          {
            "low": {
              "value": 8.5,
              "code": "mg/dL",
              "system": "http://unitsofmeasure.org"
            }
          },
          {
            "high": {
              "value": 10.5,
              "code": "mg/dL",
              "system": "http://unitsofmeasure.org"
            }
          }
        ],
        "status": "final",
        "subject": {
          "reference": "urn:uuid:62da47e9-326e-492a-b54e-bf62e7dcc7f3"
        },
        "effectiveDateTime": "2024-11-18",
        "specimen": {
          "reference": "urn:uuid:e1412f51-f319-468a-9feb-55bb488d8f5f"
        }
      }
    },
    {
      "fullUrl": "urn:uuid:5f23ed18-9bc4-4e8a-84c6-0ad1f6fd6842",
      "resource": {
        "resourceType": "Observation",
        "id": "5f23ed18-9bc4-4e8a-84c6-0ad1f6fd6842",
        "meta": {
          "profile": [
            "http://hl7.eu/fhir/laboratory/StructureDefinition/Observation-resultslab-eu-lab"
          ]
        },
        "performer": [
          {
            "display": "The Central European Lab"
          }
        ],
        "category": [
          {
            "coding": [
              {
                "code": "laboratory",
                "system": "http://terminology.hl7.org/CodeSystem/observation-category"
              }
            ]
          }
        ],
        "code": {
          "coding": [
            {
              "code": "2951-2",
              "system": "http://loinc.org",
              "display": "Sodium [Moles/volume] in Serum or Plasma"
            }
          ],
          "text": "Sodium [Moles/volume] in Serum or Plasma"
        },
        "valueQuantity": {
          "system": "http://unitsofmeasure.org",
          "value": 137.8,
          "unit": "mmol/L",
          "code": "mmol/L"
        },
        "referenceRange": [
          {
            "low": {
              "value": 135,
              "code": "mmol/L",
              "system": "http://unitsofmeasure.org"
            }
          },
          {
            "high": {
              "value": 145,
              "code": "mmol/L",
              "system": "http://unitsofmeasure.org"
            }
          }
        ],
        "status": "final",
        "subject": {
          "reference": "urn:uuid:62da47e9-326e-492a-b54e-bf62e7dcc7f3"
        },
        "effectiveDateTime": "2024-11-18",
        "specimen": {
          "reference": "urn:uuid:e1412f51-f319-468a-9feb-55bb488d8f5f"
        }
      }
    },
    {
      "fullUrl": "urn:uuid:d8d63dad-2afd-4ff5-87e9-4b4315f96827",
      "resource": {
        "resourceType": "Observation",
        "id": "d8d63dad-2afd-4ff5-87e9-4b4315f96827",
        "meta": {
          "profile": [
            "http://hl7.eu/fhir/laboratory/StructureDefinition/Observation-resultslab-eu-lab"
          ]
        },
        "performer": [
          {
            "display": "The Central European Lab"
          }
        ],
        "category": [
          {
            "coding": [
              {
                "code": "laboratory",
                "system": "http://terminology.hl7.org/CodeSystem/observation-category"
              }
            ]
          }
        ],
        "code": {
          "coding": [
            {
              "code": "2823-3",
              "system": "http://loinc.org",
              "display": "Potassium [Moles/volume] in Serum or Plasma"
            }
          ],
          "text": "Potassium [Moles/volume] in Serum or Plasma"
        },
        "valueQuantity": {
          "system": "http://unitsofmeasure.org",
          "value": 3.8,
          "unit": "mmol/L",
          "code": "mmol/L"
        },
        "referenceRange": [
          {
            "low": {
              "value": 3.5,
              "code": "mmol/L",
              "system": "http://unitsofmeasure.org"
            }
          },
          {
            "high": {
              "value": 5,
              "code": "mmol/L",
              "system": "http://unitsofmeasure.org"
            }
          }
        ],
        "status": "final",
        "subject": {
          "reference": "urn:uuid:62da47e9-326e-492a-b54e-bf62e7dcc7f3"
        },
        "effectiveDateTime": "2024-11-18",
        "specimen": {
          "reference": "urn:uuid:e1412f51-f319-468a-9feb-55bb488d8f5f"
        }
      }
    },
    {
      "fullUrl": "urn:uuid:55713f41-a671-4f0a-bf55-8642481f38d2",
      "resource": {
        "resourceType": "Observation",
        "id": "55713f41-a671-4f0a-bf55-8642481f38d2",
        "meta": {
          "profile": [
            "http://hl7.eu/fhir/laboratory/StructureDefinition/Observation-resultslab-eu-lab"
          ]
        },
        "performer": [
          {
            "display": "The Central European Lab"
          }
        ],
        "category": [
          {
            "coding": [
              {
                "code": "laboratory",
                "system": "http://terminology.hl7.org/CodeSystem/observation-category"
              }
            ]
          }
        ],
        "code": {
          "coding": [
            {
              "code": "2075-0",
              "system": "http://loinc.org",
              "display": "Chloride [Moles/volume] in Serum or Plasma"
            }
          ],
          "text": "Chloride [Moles/volume] in Serum or Plasma"
        },
        "valueQuantity": {
          "system": "http://unitsofmeasure.org",
          "value": 104.4,
          "unit": "mmol/L",
          "code": "mmol/L"
        },
        "referenceRange": [
          {
            "low": {
              "value": 98,
              "code": "mmol/L",
              "system": "http://unitsofmeasure.org"
            }
          },
          {
            "high": {
              "value": 106,
              "code": "mmol/L",
              "system": "http://unitsofmeasure.org"
            }
          }
        ],
        "status": "final",
        "subject": {
          "reference": "urn:uuid:62da47e9-326e-492a-b54e-bf62e7dcc7f3"
        },
        "effectiveDateTime": "2024-11-18",
        "specimen": {
          "reference": "urn:uuid:e1412f51-f319-468a-9feb-55bb488d8f5f"
        }
      }
    },
    {
      "fullUrl": "urn:uuid:b01a3d64-c55a-4bd4-98c7-92e223914478",
      "resource": {
        "resourceType": "Observation",
        "id": "b01a3d64-c55a-4bd4-98c7-92e223914478",
        "meta": {
          "profile": [
            "http://hl7.eu/fhir/laboratory/StructureDefinition/Observation-resultslab-eu-lab"
          ]
        },
        "performer": [
          {
            "display": "The Central European Lab"
          }
        ],
        "category": [
          {
            "coding": [
              {
                "code": "laboratory",
                "system": "http://terminology.hl7.org/CodeSystem/observation-category"
              }
            ]
          }
        ],
        "code": {
          "coding": [
            {
              "code": "2028-9",
              "system": "http://loinc.org",
              "display": "Carbon dioxide, total [Moles/volume] in Serum or Plasma"
            }
          ],
          "text": "Carbon dioxide, total [Moles/volume] in Serum or Plasma"
        },
        "valueQuantity": {
          "system": "http://unitsofmeasure.org",
          "value": 23.1,
          "unit": "mmol/L",
          "code": "mmol/L"
        },
        "referenceRange": [
          {
            "low": {
              "value": 22,
              "code": "mmol/L",
              "system": "http://unitsofmeasure.org"
            }
          },
          {
            "high": {
              "value": 29,
              "code": "mmol/L",
              "system": "http://unitsofmeasure.org"
            }
          }
        ],
        "status": "final",
        "subject": {
          "reference": "urn:uuid:62da47e9-326e-492a-b54e-bf62e7dcc7f3"
        },
        "effectiveDateTime": "2024-11-18",
        "specimen": {
          "reference": "urn:uuid:e1412f51-f319-468a-9feb-55bb488d8f5f"
        }
      }
    },
    {
      "fullUrl": "urn:uuid:68fcfd84-2fff-47f2-8079-231d18fd3e6b",
      "resource": {
        "resourceType": "Observation",
        "id": "68fcfd84-2fff-47f2-8079-231d18fd3e6b",
        "meta": {
          "profile": [
            "http://hl7.eu/fhir/laboratory/StructureDefinition/Observation-resultslab-eu-lab"
          ]
        },
        "performer": [
          {
            "display": "The Central European Lab"
          }
        ],
        "category": [
          {
            "coding": [
              {
                "code": "laboratory",
                "system": "http://terminology.hl7.org/CodeSystem/observation-category"
              }
            ]
          }
        ],
        "code": {
          "coding": [
            {
              "code": "2885-2",
              "system": "http://loinc.org",
              "display": "Protein [Mass/volume] in Serum or Plasma"
            }
          ],
          "text": "Protein [Mass/volume] in Serum or Plasma"
        },
        "valueQuantity": {
          "system": "http://unitsofmeasure.org",
          "value": 6.2,
          "unit": "g/dL",
          "code": "g/dL"
        },
        "referenceRange": [
          {
            "low": {
              "value": 6.6,
              "code": "g/dL",
              "system": "http://unitsofmeasure.org"
            }
          },
          {
            "high": {
              "value": 8.3,
              "code": "g/dL",
              "system": "http://unitsofmeasure.org"
            }
          }
        ],
        "interpretation": [
          {
            "coding": [
              {
                "code": "L",
                "system": "http://terminology.hl7.org/CodeSystem/v3-ObservationInterpretation",
                "display": "Low"
              }
            ]
          }
        ],
        "status": "final",
        "subject": {
          "reference": "urn:uuid:62da47e9-326e-492a-b54e-bf62e7dcc7f3"
        },
        "effectiveDateTime": "2024-11-18",
        "specimen": {
          "reference": "urn:uuid:e1412f51-f319-468a-9feb-55bb488d8f5f"
        }
      }
    },
    {
      "fullUrl": "urn:uuid:a712c734-bffb-44b9-97a6-eee097eb1db4",
      "resource": {
        "resourceType": "Observation",
        "id": "a712c734-bffb-44b9-97a6-eee097eb1db4",
        "meta": {
          "profile": [
            "http://hl7.eu/fhir/laboratory/StructureDefinition/Observation-resultslab-eu-lab"
          ]
        },
        "performer": [
          {
            "display": "The Central European Lab"
          }
        ],
        "category": [
          {
            "coding": [
              {
                "code": "laboratory",
                "system": "http://terminology.hl7.org/CodeSystem/observation-category"
              }
            ]
          }
        ],
        "code": {
          "coding": [
            {
              "code": "1751-7",
              "system": "http://loinc.org",
              "display": "Albumin [Mass/volume] in Serum or Plasma"
            }
          ],
          "text": "Albumin [Mass/volume] in Serum or Plasma"
        },
        "valueQuantity": {
          "system": "http://unitsofmeasure.org",
          "value": 4.8,
          "unit": "g/dL",
          "code": "g/dL"
        },
        "referenceRange": [
          {
            "low": {
              "value": 3.5,
              "code": "g/dL",
              "system": "http://unitsofmeasure.org"
            }
          },
          {
            "high": {
              "value": 5.5,
              "code": "g/dL",
              "system": "http://unitsofmeasure.org"
            }
          }
        ],
        "status": "final",
        "subject": {
          "reference": "urn:uuid:62da47e9-326e-492a-b54e-bf62e7dcc7f3"
        },
        "effectiveDateTime": "2024-11-18",
        "specimen": {
          "reference": "urn:uuid:e1412f51-f319-468a-9feb-55bb488d8f5f"
        }
      }
    },
    {
      "fullUrl": "urn:uuid:e74325eb-b36c-4996-9437-ba7384637f79",
      "resource": {
        "resourceType": "Observation",
        "id": "e74325eb-b36c-4996-9437-ba7384637f79",
        "meta": {
          "profile": [
            "http://hl7.eu/fhir/laboratory/StructureDefinition/Observation-resultslab-eu-lab"
          ]
        },
        "performer": [
          {
            "display": "The Central European Lab"
          }
        ],
        "category": [
          {
            "coding": [
              {
                "code": "laboratory",
                "system": "http://terminology.hl7.org/CodeSystem/observation-category"
              }
            ]
          }
        ],
        "code": {
          "coding": [
            {
              "code": "1975-2",
              "system": "http://loinc.org",
              "display": "Bilirubin.total [Mass/volume] in Serum or Plasma"
            }
          ],
          "text": "Bilirubin.total [Mass/volume] in Serum or Plasma"
        },
        "valueQuantity": {
          "system": "http://unitsofmeasure.org",
          "value": 9.1,
          "unit": "mg/dL",
          "code": "mg/dL"
        },
        "referenceRange": [
          {
            "low": {
              "value": 0.3,
              "code": "mg/dL",
              "system": "http://unitsofmeasure.org"
            }
          },
          {
            "high": {
              "value": 1.2,
              "code": "mg/dL",
              "system": "http://unitsofmeasure.org"
            }
          }
        ],
        "interpretation": [
          {
            "coding": [
              {
                "code": "H",
                "system": "http://terminology.hl7.org/CodeSystem/v3-ObservationInterpretation",
                "display": "High"
              }
            ]
          }
        ],
        "status": "final",
        "subject": {
          "reference": "urn:uuid:62da47e9-326e-492a-b54e-bf62e7dcc7f3"
        },
        "effectiveDateTime": "2024-11-18",
        "specimen": {
          "reference": "urn:uuid:e1412f51-f319-468a-9feb-55bb488d8f5f"
        }
      }
    },
    {
      "fullUrl": "urn:uuid:eb3889bb-4320-4db9-8cfa-394326c4134d",
      "resource": {
        "resourceType": "Observation",
        "id": "eb3889bb-4320-4db9-8cfa-394326c4134d",
        "meta": {
          "profile": [
            "http://hl7.eu/fhir/laboratory/StructureDefinition/Observation-resultslab-eu-lab"
          ]
        },
        "performer": [
          {
            "display": "The Central European Lab"
          }
        ],
        "category": [
          {
            "coding": [
              {
                "code": "laboratory",
                "system": "http://terminology.hl7.org/CodeSystem/observation-category"
              }
            ]
          }
        ],
        "code": {
          "coding": [
            {
              "code": "6768-6",
              "system": "http://loinc.org",
              "display": "Alkaline phosphatase [Enzymatic activity/volume] in Serum or Plasma"
            }
          ],
          "text": "Alkaline phosphatase [Enzymatic activity/volume] in Serum or Plasma"
        },
        "valueQuantity": {
          "system": "http://unitsofmeasure.org",
          "value": 85.9,
          "unit": "U/L",
          "code": "U/L"
        },
        "referenceRange": [
          {
            "low": {
              "value": 39,
              "code": "U/L",
              "system": "http://unitsofmeasure.org"
            }
          },
          {
            "high": {
              "value": 129,
              "code": "U/L",
              "system": "http://unitsofmeasure.org"
            }
          }
        ],
        "status": "final",
        "subject": {
          "reference": "urn:uuid:62da47e9-326e-492a-b54e-bf62e7dcc7f3"
        },
        "effectiveDateTime": "2024-11-18",
        "specimen": {
          "reference": "urn:uuid:e1412f51-f319-468a-9feb-55bb488d8f5f"
        }
      }
    },
    {
      "fullUrl": "urn:uuid:26dfe082-c6a0-48e9-b03d-d3f531eb2c0f",
      "resource": {
        "resourceType": "Observation",
        "id": "26dfe082-c6a0-48e9-b03d-d3f531eb2c0f",
        "meta": {
          "profile": [
            "http://hl7.eu/fhir/laboratory/StructureDefinition/Observation-resultslab-eu-lab"
          ]
        },
        "performer": [
          {
            "display": "The Central European Lab"
          }
        ],
        "category": [
          {
            "coding": [
              {
                "code": "laboratory",
                "system": "http://terminology.hl7.org/CodeSystem/observation-category"
              }
            ]
          }
        ],
        "code": {
          "coding": [
            {
              "code": "1742-6",
              "system": "http://loinc.org",
              "display": "Alanine aminotransferase [Enzymatic activity/volume] in Serum or Plasma"
            }
          ],
          "text": "Alanine aminotransferase [Enzymatic activity/volume] in Serum or Plasma"
        },
        "valueQuantity": {
          "system": "http://unitsofmeasure.org",
          "value": 21,
          "unit": "U/L",
          "code": "U/L"
        },
        "referenceRange": [
          {
            "low": {
              "value": 10,
              "code": "U/L",
              "system": "http://unitsofmeasure.org"
            }
          },
          {
            "high": {
              "value": 60,
              "code": "U/L",
              "system": "http://unitsofmeasure.org"
            }
          }
        ],
        "status": "final",
        "subject": {
          "reference": "urn:uuid:62da47e9-326e-492a-b54e-bf62e7dcc7f3"
        },
        "effectiveDateTime": "2024-11-18",
        "specimen": {
          "reference": "urn:uuid:e1412f51-f319-468a-9feb-55bb488d8f5f"
        }
      }
    },
    {
      "fullUrl": "urn:uuid:33e11629-15ce-496b-aa60-700ba1f4a2de",
      "resource": {
        "resourceType": "Observation",
        "id": "33e11629-15ce-496b-aa60-700ba1f4a2de",
        "meta": {
          "profile": [
            "http://hl7.eu/fhir/laboratory/StructureDefinition/Observation-resultslab-eu-lab"
          ]
        },
        "performer": [
          {
            "display": "The Central European Lab"
          }
        ],
        "category": [
          {
            "coding": [
              {
                "code": "laboratory",
                "system": "http://terminology.hl7.org/CodeSystem/observation-category"
              }
            ]
          }
        ],
        "code": {
          "coding": [
            {
              "code": "1920-8",
              "system": "http://loinc.org",
              "display": "Aspartate aminotransferase [Enzymatic activity/volume] in Serum or Plasma"
            }
          ],
          "text": "Aspartate aminotransferase [Enzymatic activity/volume] in Serum or Plasma"
        },
        "valueQuantity": {
          "system": "http://unitsofmeasure.org",
          "value": 30.8,
          "unit": "U/L",
          "code": "U/L"
        },
        "referenceRange": [
          {
            "low": {
              "value": 10,
              "code": "U/L",
              "system": "http://unitsofmeasure.org"
            }
          },
          {
            "high": {
              "value": 50,
              "code": "U/L",
              "system": "http://unitsofmeasure.org"
            }
          }
        ],
        "status": "final",
        "subject": {
          "reference": "urn:uuid:62da47e9-326e-492a-b54e-bf62e7dcc7f3"
        },
        "effectiveDateTime": "2024-11-18",
        "specimen": {
          "reference": "urn:uuid:e1412f51-f319-468a-9feb-55bb488d8f5f"
        }
      }
    },
    {
      "fullUrl": "urn:uuid:141d6c7f-3892-47cf-b298-fba6d68dd4cc",
      "resource": {
        "resourceType": "Observation",
        "id": "141d6c7f-3892-47cf-b298-fba6d68dd4cc",
        "meta": {
          "profile": [
            "http://hl7.eu/fhir/laboratory/StructureDefinition/Observation-resultslab-eu-lab"
          ]
        },
        "performer": [
          {
            "display": "The Central European Lab"
          }
        ],
        "category": [
          {
            "coding": [
              {
                "code": "laboratory",
                "system": "http://terminology.hl7.org/CodeSystem/observation-category"
              }
            ]
          }
        ],
        "code": {
          "coding": [
            {
              "code": "2744-1",
              "system": "http://loinc.org",
              "display": "pH of Arterial blood"
            }
          ],
          "text": "pH of Arterial blood"
        },
        "valueQuantity": {
          "system": "http://unitsofmeasure.org",
          "value": 7.1,
          "unit": "[pH]",
          "code": "[pH]"
        },
        "referenceRange": [
          {
            "low": {
              "value": 7.35,
              "code": "[pH]",
              "system": "http://unitsofmeasure.org"
            }
          },
          {
            "high": {
              "value": 7.45,
              "code": "[pH]",
              "system": "http://unitsofmeasure.org"
            }
          }
        ],
        "interpretation": [
          {
            "coding": [
              {
                "code": "L",
                "system": "http://terminology.hl7.org/CodeSystem/v3-ObservationInterpretation",
                "display": "Low"
              }
            ]
          }
        ],
        "status": "final",
        "subject": {
          "reference": "urn:uuid:62da47e9-326e-492a-b54e-bf62e7dcc7f3"
        },
        "effectiveDateTime": "2024-11-18",
        "specimen": {
          "reference": "urn:uuid:add7de57-628f-49ce-848e-cfca997201cb"
        }
      }
    },
    {
      "fullUrl": "urn:uuid:fb342dfb-c7e9-4711-a59c-fb8166c0a20e",
      "resource": {
        "resourceType": "Observation",
        "id": "fb342dfb-c7e9-4711-a59c-fb8166c0a20e",
        "meta": {
          "profile": [
            "http://hl7.eu/fhir/laboratory/StructureDefinition/Observation-resultslab-eu-lab"
          ]
        },
        "performer": [
          {
            "display": "The Central European Lab"
          }
        ],
        "category": [
          {
            "coding": [
              {
                "code": "laboratory",
                "system": "http://terminology.hl7.org/CodeSystem/observation-category"
              }
            ]
          }
        ],
        "code": {
          "coding": [
            {
              "code": "2019-8",
              "system": "http://loinc.org",
              "display": "Carbon dioxide [Partial pressure] in Arterial blood"
            }
          ],
          "text": "Carbon dioxide [Partial pressure] in Arterial blood"
        },
        "valueQuantity": {
          "system": "http://unitsofmeasure.org",
          "value": 37.5,
          "unit": "mm[Hg]",
          "code": "mm[Hg]"
        },
        "referenceRange": [
          {
            "low": {
              "value": 35,
              "code": "mm[Hg]",
              "system": "http://unitsofmeasure.org"
            }
          },
          {
            "high": {
              "value": 45,
              "code": "mm[Hg]",
              "system": "http://unitsofmeasure.org"
            }
          }
        ],
        "status": "final",
        "subject": {
          "reference": "urn:uuid:62da47e9-326e-492a-b54e-bf62e7dcc7f3"
        },
        "effectiveDateTime": "2024-11-18",
        "specimen": {
          "reference": "urn:uuid:add7de57-628f-49ce-848e-cfca997201cb"
        }
      }
    },
    {
      "fullUrl": "urn:uuid:44918e60-d59f-44b7-9eea-6e68fb324b72",
      "resource": {
        "resourceType": "Observation",
        "id": "44918e60-d59f-44b7-9eea-6e68fb324b72",
        "meta": {
          "profile": [
            "http://hl7.eu/fhir/laboratory/StructureDefinition/Observation-resultslab-eu-lab"
          ]
        },
        "performer": [
          {
            "display": "The Central European Lab"
          }
        ],
        "category": [
          {
            "coding": [
              {
                "code": "laboratory",
                "system": "http://terminology.hl7.org/CodeSystem/observation-category"
              }
            ]
          }
        ],
        "code": {
          "coding": [
            {
              "code": "2703-7",
              "system": "http://loinc.org",
              "display": "Oxygen [Partial pressure] in Arterial blood"
            }
          ],
          "text": "Oxygen [Partial pressure] in Arterial blood"
        },
        "valueQuantity": {
          "system": "http://unitsofmeasure.org",
          "value": 53.8,
          "unit": "mm[Hg]",
          "code": "mm[Hg]"
        },
        "referenceRange": [
          {
            "low": {
              "value": 80,
              "code": "mm[Hg]",
              "system": "http://unitsofmeasure.org"
            }
          },
          {
            "high": {
              "value": 100,
              "code": "mm[Hg]",
              "system": "http://unitsofmeasure.org"
            }
          }
        ],
        "interpretation": [
          {
            "coding": [
              {
                "code": "L",
                "system": "http://terminology.hl7.org/CodeSystem/v3-ObservationInterpretation",
                "display": "Low"
              }
            ]
          }
        ],
        "status": "final",
        "subject": {
          "reference": "urn:uuid:62da47e9-326e-492a-b54e-bf62e7dcc7f3"
        },
        "effectiveDateTime": "2024-11-18",
        "specimen": {
          "reference": "urn:uuid:add7de57-628f-49ce-848e-cfca997201cb"
        }
      }
    },
    {
      "fullUrl": "urn:uuid:f200dc2f-777d-4ef9-995b-a802c6dfe63a",
      "resource": {
        "resourceType": "Observation",
        "id": "f200dc2f-777d-4ef9-995b-a802c6dfe63a",
        "meta": {
          "profile": [
            "http://hl7.eu/fhir/laboratory/StructureDefinition/Observation-resultslab-eu-lab"
          ]
        },
        "performer": [
          {
            "display": "The Central European Lab"
          }
        ],
        "category": [
          {
            "coding": [
              {
                "code": "laboratory",
                "system": "http://terminology.hl7.org/CodeSystem/observation-category"
              }
            ]
          }
        ],
        "code": {
          "coding": [
            {
              "code": "1960-4",
              "system": "http://loinc.org",
              "display": "Bicarbonate [Moles/volume] in Arterial blood"
            }
          ],
          "text": "Bicarbonate [Moles/volume] in Arterial blood"
        },
        "valueQuantity": {
          "system": "http://unitsofmeasure.org",
          "value": 24.1,
          "unit": "mmol/L",
          "code": "mmol/L"
        },
        "referenceRange": [
          {
            "low": {
              "value": 21,
              "code": "mmol/L",
              "system": "http://unitsofmeasure.org"
            }
          },
          {
            "high": {
              "value": 31,
              "code": "mmol/L",
              "system": "http://unitsofmeasure.org"
            }
          }
        ],
        "status": "final",
        "subject": {
          "reference": "urn:uuid:62da47e9-326e-492a-b54e-bf62e7dcc7f3"
        },
        "effectiveDateTime": "2024-11-18",
        "specimen": {
          "reference": "urn:uuid:add7de57-628f-49ce-848e-cfca997201cb"
        }
      }
    },
    {
      "fullUrl": "urn:uuid:a735cf46-1252-4a73-b522-c22842236e06",
      "resource": {
        "resourceType": "Observation",
        "id": "a735cf46-1252-4a73-b522-c22842236e06",
        "meta": {
          "profile": [
            "http://hl7.eu/fhir/laboratory/StructureDefinition/Observation-resultslab-eu-lab"
          ]
        },
        "performer": [
          {
            "display": "The Central European Lab"
          }
        ],
        "category": [
          {
            "coding": [
              {
                "code": "laboratory",
                "system": "http://terminology.hl7.org/CodeSystem/observation-category"
              }
            ]
          }
        ],
        "code": {
          "coding": [
            {
              "code": "2708-6",
              "system": "http://loinc.org",
              "display": "Oxygen saturation in Arterial blood"
            }
          ],
          "text": "Oxygen saturation in Arterial blood"
        },
        "valueQuantity": {
          "system": "http://unitsofmeasure.org",
          "value": 75.6,
          "unit": "%",
          "code": "%"
        },
        "referenceRange": [
          {
            "low": {
              "value": 95,
              "code": "%",
              "system": "http://unitsofmeasure.org"
            }
          },
          {
            "high": {
              "value": 100,
              "code": "%",
              "system": "http://unitsofmeasure.org"
            }
          }
        ],
        "interpretation": [
          {
            "coding": [
              {
                "code": "L",
                "system": "http://terminology.hl7.org/CodeSystem/v3-ObservationInterpretation",
                "display": "Low"
              }
            ]
          }
        ],
        "status": "final",
        "subject": {
          "reference": "urn:uuid:62da47e9-326e-492a-b54e-bf62e7dcc7f3"
        },
        "effectiveDateTime": "2024-11-18",
        "specimen": {
          "reference": "urn:uuid:add7de57-628f-49ce-848e-cfca997201cb"
        }
      }
    },
    {
      "fullUrl": "urn:uuid:ea643738-fe7f-428f-9b98-67d944e3f188",
      "resource": {
        "resourceType": "Observation",
        "id": "ea643738-fe7f-428f-9b98-67d944e3f188",
        "meta": {
          "profile": [
            "http://hl7.eu/fhir/laboratory/StructureDefinition/Observation-resultslab-eu-lab"
          ]
        },
        "performer": [
          {
            "display": "The Central European Lab"
          }
        ],
        "category": [
          {
            "coding": [
              {
                "code": "laboratory",
                "system": "http://terminology.hl7.org/CodeSystem/observation-category"
              }
            ]
          }
        ],
        "code": {
          "coding": [
            {
              "code": "48065-7",
              "system": "http://loinc.org",
              "display": "Fibrin D-dimer FEU [Mass/volume] in Platelet poor plasma"
            }
          ],
          "text": "Fibrin D-dimer FEU [Mass/volume] in Platelet poor plasma"
        },
        "valueQuantity": {
          "system": "http://unitsofmeasure.org",
          "value": 0.3,
          "unit": "ug/mL",
          "code": "ug/mL"
        },
        "referenceRange": [
          {
            "low": {
              "value": 0,
              "code": "ug/mL",
              "system": "http://unitsofmeasure.org"
            }
          },
          {
            "high": {
              "value": 0.5,
              "code": "ug/mL",
              "system": "http://unitsofmeasure.org"
            }
          }
        ],
        "status": "final",
        "subject": {
          "reference": "urn:uuid:62da47e9-326e-492a-b54e-bf62e7dcc7f3"
        },
        "effectiveDateTime": "2024-11-18",
        "specimen": {
          "reference": "urn:uuid:61ddc26b-1912-44a7-814c-7079fcfc3026"
        }
      }
    },
    {
      "fullUrl": "urn:uuid:77d3baaf-73a6-43f7-a4b1-570a80cfa7f0",
      "resource": {
        "resourceType": "Observation",
        "id": "77d3baaf-73a6-43f7-a4b1-570a80cfa7f0",
        "meta": {
          "profile": [
            "http://hl7.eu/fhir/laboratory/StructureDefinition/Observation-resultslab-eu-lab"
          ]
        },
        "performer": [
          {
            "display": "The Central European Lab"
          }
        ],
        "category": [
          {
            "coding": [
              {
                "code": "laboratory",
                "system": "http://terminology.hl7.org/CodeSystem/observation-category"
              }
            ]
          }
        ],
        "code": {
          "coding": [
            {
              "code": "2276-4",
              "system": "http://loinc.org",
              "display": "Ferritin [Mass/volume] in Serum or Plasma"
            }
          ],
          "text": "Ferritin [Mass/volume] in Serum or Plasma"
        },
        "valueQuantity": {
          "system": "http://unitsofmeasure.org",
          "value": 382.3,
          "unit": "ug/L",
          "code": "ug/L"
        },
        "referenceRange": [
          {
            "low": {
              "value": 24,
              "code": "ug/L",
              "system": "http://unitsofmeasure.org"
            }
          },
          {
            "high": {
              "value": 400,
              "code": "ug/L",
              "system": "http://unitsofmeasure.org"
            }
          }
        ],
        "status": "final",
        "subject": {
          "reference": "urn:uuid:62da47e9-326e-492a-b54e-bf62e7dcc7f3"
        },
        "effectiveDateTime": "2024-11-18",
        "specimen": {
          "reference": "urn:uuid:e1412f51-f319-468a-9feb-55bb488d8f5f"
        }
      }
    },
    {
      "fullUrl": "urn:uuid:a37522bf-2389-4f86-85e3-fbdca961b782",
      "resource": {
        "resourceType": "Observation",
        "id": "a37522bf-2389-4f86-85e3-fbdca961b782",
        "meta": {
          "profile": [
            "http://hl7.eu/fhir/laboratory/StructureDefinition/Observation-resultslab-eu-lab"
          ]
        },
        "performer": [
          {
            "display": "The Central European Lab"
          }
        ],
        "category": [
          {
            "coding": [
              {
                "code": "laboratory",
                "system": "http://terminology.hl7.org/CodeSystem/observation-category"
              }
            ]
          }
        ],
        "code": {
          "coding": [
            {
              "code": "89579-7",
              "system": "http://loinc.org",
              "display": "Troponin I.cardiac [Mass/volume] in Serum or Plasma by High sensitivity method"
            }
          ],
          "text": "Troponin I.cardiac [Mass/volume] in Serum or Plasma by High sensitivity method"
        },
        "valueQuantity": {
          "system": "http://unitsofmeasure.org",
          "value": 3,
          "unit": "pg/mL",
          "code": "pg/mL"
        },
        "referenceRange": [
          {
            "low": {
              "value": 0,
              "code": "pg/mL",
              "system": "http://unitsofmeasure.org"
            }
          },
          {
            "high": {
              "value": 19.9,
              "code": "pg/mL",
              "system": "http://unitsofmeasure.org"
            }
          }
        ],
        "status": "final",
        "subject": {
          "reference": "urn:uuid:62da47e9-326e-492a-b54e-bf62e7dcc7f3"
        },
        "effectiveDateTime": "2024-11-18",
        "specimen": {
          "reference": "urn:uuid:e1412f51-f319-468a-9feb-55bb488d8f5f"
        }
      }
    },
    {
      "fullUrl": "urn:uuid:ef56d25d-2c99-493a-bdc7-982d49b8927f",
      "resource": {
        "resourceType": "Observation",
        "id": "ef56d25d-2c99-493a-bdc7-982d49b8927f",
        "meta": {
          "profile": [
            "http://hl7.eu/fhir/laboratory/StructureDefinition/Observation-resultslab-eu-lab"
          ]
        },
        "performer": [
          {
            "display": "The Central European Lab"
          }
        ],
        "category": [
          {
            "coding": [
              {
                "code": "laboratory",
                "system": "http://terminology.hl7.org/CodeSystem/observation-category"
              }
            ]
          }
        ],
        "code": {
          "coding": [
            {
              "code": "14804-9",
              "system": "http://loinc.org",
              "display": "Lactate dehydrogenase [Enzymatic activity/volume] in Serum or Plasma by Lactate to pyruvate reaction"
            }
          ],
          "text": "Lactate dehydrogenase [Enzymatic activity/volume] in Serum or Plasma by Lactate to pyruvate reaction"
        },
        "valueQuantity": {
          "system": "http://unitsofmeasure.org",
          "value": 241.1,
          "unit": "U/L",
          "code": "U/L"
        },
        "referenceRange": [
          {
            "low": {
              "value": 100,
              "code": "U/L",
              "system": "http://unitsofmeasure.org"
            }
          },
          {
            "high": {
              "value": 248,
              "code": "U/L",
              "system": "http://unitsofmeasure.org"
            }
          }
        ],
        "status": "final",
        "subject": {
          "reference": "urn:uuid:62da47e9-326e-492a-b54e-bf62e7dcc7f3"
        },
        "effectiveDateTime": "2024-11-18",
        "specimen": {
          "reference": "urn:uuid:e1412f51-f319-468a-9feb-55bb488d8f5f"
        }
      }
    },
    {
      "fullUrl": "urn:uuid:4b842bd0-27a2-44d1-a1dd-bf1a6dc0a829",
      "resource": {
        "resourceType": "Observation",
        "id": "4b842bd0-27a2-44d1-a1dd-bf1a6dc0a829",
        "meta": {
          "profile": [
            "http://hl7.eu/fhir/laboratory/StructureDefinition/Observation-resultslab-eu-lab"
          ]
        },
        "performer": [
          {
            "display": "The Central European Lab"
          }
        ],
        "category": [
          {
            "coding": [
              {
                "code": "laboratory",
                "system": "http://terminology.hl7.org/CodeSystem/observation-category"
              }
            ]
          }
        ],
        "code": {
          "coding": [
            {
              "code": "2157-6",
              "system": "http://loinc.org",
              "display": "Creatine kinase [Enzymatic activity/volume] in Serum or Plasma"
            }
          ],
          "text": "Creatine kinase [Enzymatic activity/volume] in Serum or Plasma"
        },
        "valueQuantity": {
          "system": "http://unitsofmeasure.org",
          "value": 41.4,
          "unit": "U/L",
          "code": "U/L"
        },
        "referenceRange": [
          {
            "low": {
              "value": 30,
              "code": "U/L",
              "system": "http://unitsofmeasure.org"
            }
          },
          {
            "high": {
              "value": 204,
              "code": "U/L",
              "system": "http://unitsofmeasure.org"
            }
          }
        ],
        "status": "final",
        "subject": {
          "reference": "urn:uuid:62da47e9-326e-492a-b54e-bf62e7dcc7f3"
        },
        "effectiveDateTime": "2024-11-18",
        "specimen": {
          "reference": "urn:uuid:e1412f51-f319-468a-9feb-55bb488d8f5f"
        }
      }
    },
    {
      "fullUrl": "urn:uuid:116f9d55-0ead-47fa-be0c-83ec2446d21d",
      "resource": {
        "resourceType": "Observation",
        "id": "116f9d55-0ead-47fa-be0c-83ec2446d21d",
        "meta": {
          "profile": [
            "http://hl7.eu/fhir/laboratory/StructureDefinition/Observation-resultslab-eu-lab"
          ]
        },
        "performer": [
          {
            "display": "The Central European Lab"
          }
        ],
        "category": [
          {
            "coding": [
              {
                "code": "laboratory",
                "system": "http://terminology.hl7.org/CodeSystem/observation-category"
              }
            ]
          }
        ],
        "code": {
          "coding": [
            {
              "code": "1988-5",
              "system": "http://loinc.org",
              "display": "C reactive protein [Mass/volume] in Serum or Plasma"
            }
          ],
          "text": "C reactive protein [Mass/volume] in Serum or Plasma"
        },
        "valueQuantity": {
          "system": "http://unitsofmeasure.org",
          "value": 8.4,
          "unit": "mg/L",
          "code": "mg/L"
        },
        "referenceRange": [
          {
            "low": {
              "value": 0,
              "code": "mg/L",
              "system": "http://unitsofmeasure.org"
            }
          },
          {
            "high": {
              "value": 10,
              "code": "mg/L",
              "system": "http://unitsofmeasure.org"
            }
          }
        ],
        "status": "final",
        "subject": {
          "reference": "urn:uuid:62da47e9-326e-492a-b54e-bf62e7dcc7f3"
        },
        "effectiveDateTime": "2024-11-18",
        "specimen": {
          "reference": "urn:uuid:e1412f51-f319-468a-9feb-55bb488d8f5f"
        }
      }
    },
    {
      "fullUrl": "urn:uuid:149d4c68-ff79-4580-88df-e401534dcc2a",
      "resource": {
        "resourceType": "Observation",
        "id": "149d4c68-ff79-4580-88df-e401534dcc2a",
        "meta": {
          "profile": [
            "http://hl7.eu/fhir/laboratory/StructureDefinition/Observation-resultslab-eu-lab"
          ]
        },
        "performer": [
          {
            "display": "The Central European Lab"
          }
        ],
        "category": [
          {
            "coding": [
              {
                "code": "laboratory",
                "system": "http://terminology.hl7.org/CodeSystem/observation-category"
              }
            ]
          }
        ],
        "code": {
          "coding": [
            {
              "code": "5902-2",
              "system": "http://loinc.org",
              "display": "Prothrombin time (PT)"
            }
          ],
          "text": "Prothrombin time (PT)"
        },
        "valueQuantity": {
          "system": "http://unitsofmeasure.org",
          "value": 10.9,
          "unit": "s",
          "code": "s"
        },
        "referenceRange": [
          {
            "low": {
              "value": 11.5,
              "code": "s",
              "system": "http://unitsofmeasure.org"
            }
          },
          {
            "high": {
              "value": 13.5,
              "code": "s",
              "system": "http://unitsofmeasure.org"
            }
          }
        ],
        "interpretation": [
          {
            "coding": [
              {
                "code": "L",
                "system": "http://terminology.hl7.org/CodeSystem/v3-ObservationInterpretation",
                "display": "Low"
              }
            ]
          }
        ],
        "status": "final",
        "subject": {
          "reference": "urn:uuid:62da47e9-326e-492a-b54e-bf62e7dcc7f3"
        },
        "effectiveDateTime": "2024-11-18",
        "specimen": {
          "reference": "urn:uuid:61ddc26b-1912-44a7-814c-7079fcfc3026"
        }
      }
    },
    {
      "fullUrl": "urn:uuid:4a544c1e-6d4c-4c4f-8b2e-cd35b24f7a51",
      "resource": {
        "resourceType": "Observation",
        "id": "4a544c1e-6d4c-4c4f-8b2e-cd35b24f7a51",
        "meta": {
          "profile": [
            "http://hl7.eu/fhir/laboratory/StructureDefinition/Observation-resultslab-eu-lab"
          ]
        },
        "performer": [
          {
            "display": "The Central European Lab"
          }
        ],
        "category": [
          {
            "coding": [
              {
                "code": "laboratory",
                "system": "http://terminology.hl7.org/CodeSystem/observation-category"
              }
            ]
          }
        ],
        "code": {
          "coding": [
            {
              "code": "6301-6",
              "system": "http://loinc.org",
              "display": "INR in Platelet poor plasma by Coagulation assay"
            }
          ],
          "text": "INR in Platelet poor plasma by Coagulation assay"
        },
        "valueQuantity": {
          "system": "http://unitsofmeasure.org",
          "value": 1.8,
          "unit": "{INR}",
          "code": "{INR}"
        },
        "referenceRange": [
          {
            "low": {
              "value": 2,
              "code": "{INR}",
              "system": "http://unitsofmeasure.org"
            }
          },
          {
            "high": {
              "value": 3,
              "code": "{INR}",
              "system": "http://unitsofmeasure.org"
            }
          }
        ],
        "interpretation": [
          {
            "coding": [
              {
                "code": "L",
                "system": "http://terminology.hl7.org/CodeSystem/v3-ObservationInterpretation",
                "display": "Low"
              }
            ]
          }
        ],
        "status": "final",
        "subject": {
          "reference": "urn:uuid:62da47e9-326e-492a-b54e-bf62e7dcc7f3"
        },
        "effectiveDateTime": "2024-11-18",
        "specimen": {
          "reference": "urn:uuid:61ddc26b-1912-44a7-814c-7079fcfc3026"
        }
      }
    },
    {
      "fullUrl": "urn:uuid:8e3f38b2-1899-4191-b444-029afc407eb7",
      "resource": {
        "resourceType": "Observation",
        "id": "8e3f38b2-1899-4191-b444-029afc407eb7",
        "meta": {
          "profile": [
            "http://hl7.eu/fhir/laboratory/StructureDefinition/Observation-resultslab-eu-lab"
          ]
        },
        "performer": [
          {
            "display": "The Central European Lab"
          }
        ],
        "category": [
          {
            "coding": [
              {
                "code": "laboratory",
                "system": "http://terminology.hl7.org/CodeSystem/observation-category"
              }
            ]
          }
        ],
        "code": {
          "coding": [
            {
              "code": "33959-8",
              "system": "http://loinc.org",
              "display": "Procalcitonin [Mass/volume] in Serum or Plasma"
            }
          ],
          "text": "Procalcitonin [Mass/volume] in Serum or Plasma"
        },
        "valueQuantity": {
          "system": "http://unitsofmeasure.org",
          "value": 0,
          "unit": "ng/mL",
          "code": "ng/mL"
        },
        "referenceRange": [
          {
            "low": {
              "value": 0,
              "code": "ng/mL",
              "system": "http://unitsofmeasure.org"
            }
          },
          {
            "high": {
              "value": 0.5,
              "code": "ng/mL",
              "system": "http://unitsofmeasure.org"
            }
          }
        ],
        "status": "final",
        "subject": {
          "reference": "urn:uuid:62da47e9-326e-492a-b54e-bf62e7dcc7f3"
        },
        "effectiveDateTime": "2024-11-18",
        "specimen": {
          "reference": "urn:uuid:e1412f51-f319-468a-9feb-55bb488d8f5f"
        }
      }
    }
  ],
  "type": "document",
  "timestamp": "2024-11-19T18:38:47Z"
}
