{
  "resourceType": "Bundle",
  "id": "Instance-Bundle-9ec176c1-8e3c-422d-b0d2-33f1220a98b7",
  "meta": {
    "profile": [
      "http://hl7.eu/fhir/laboratory/StructureDefinition/Bundle-eu-lab"
    ]
  },
  "identifier": {
    "assigner": {
      "display": "HL7 Europe"
    },
    "system": "urn:oid:2.16.840.1.113883.2.51.999",
    "value": "d1c99b1a-4051-42e5-9120-4615c1e43f66"
  },
  "entry": [
    {
      "fullUrl": "urn:uuid:323c14be-b428-44b3-9fe8-1350281fdb7e",
      "resource": {
        "resourceType": "Composition",
        "id": "323c14be-b428-44b3-9fe8-1350281fdb7e",
        "meta": {
          "profile": [
            "http://hl7.eu/fhir/laboratory/StructureDefinition/Composition-eu-lab"
          ]
        },
        "identifier": {
          "assigner": {
            "display": "HL7 Europe"
          },
          "system": "urn:oid:2.16.840.1.113883.2.51.999",
          "value": "bf56dc9a-067a-4b1a-88fa-c5ad9ea63fcf"
        },
        "author": [
          {
            "reference": "urn:uuid:3a147856-2e10-4326-8e9e-4fa5b7c7b611"
          }
        ],
        "category": [
          {
            "coding": [
              {
                "code": "26436-6",
                "system": "http://loinc.org",
                "display": "Laboratory studies (set)"
              }
            ]
          }
        ],
        "type": {
          "text": "Laboratory Report"
        },
        "section": [
          {
            "code": {
              "coding": [
                {
                  "code": "26436-6",
                  "system": "http://loinc.org",
                  "display": "Laboratory studies (set)"
                }
              ],
              "text": "Laboratory studies"
            },
            "section": [
              {
                "code": {
                  "coding": [
                    {
                      "code": "18719-5",
                      "system": "http://loinc.org",
                      "display": "Chemistry studies (set)"
                    }
                  ],
                  "text": "Chemistry"
                },
                "entry": [
                  {
                    "reference": "urn:uuid:29aebf47-8044-4245-9a8a-86328c1e8428"
                  }
                ],
                "text": {
                  "status": "generated",
                  "div": "<div xmlns=\"http://www.w3.org/1999/xhtml\"><h3 id=\"section-1\">Chemistry</h3><table class=\"hl7__eu__lab__report\"><thead><tr><th>Test</th><th>18 Nov 2024</th><th>Reference Range</th><th>Unit</th></tr></thead><tbody><tr><td>Oxygen saturation in Arterial blood</td><td><strong>79.0 L</strong></td><td>95 - 100</td><td>%</td></tr></tbody></table></div>"
                },
                "title": "Chemistry"
              },
              {
                "code": {
                  "coding": [
                    {
                      "code": "18725-2",
                      "system": "http://loinc.org",
                      "display": "Microbiology studies"
                    }
                  ],
                  "text": "Microbiology"
                },
                "entry": [
                  {
                    "reference": "urn:uuid:45535918-1066-433c-b70d-c71fbe6f7f12"
                  },
                  {
                    "reference": "urn:uuid:fa331e70-08f4-46ba-bf98-3336a448ce14"
                  }
                ],
                "text": {
                  "status": "generated",
                  "div": "<div xmlns=\"http://www.w3.org/1999/xhtml\"><h3 id=\"section-2\">Microbiology</h3><table class=\"hl7__eu__lab__report\"><thead><tr><th>Test</th><th>18 Nov 2024</th><th>Reference Range</th><th>Unit</th></tr></thead><tbody><tr><td>Influenza virus A Ag [Presence] in Upper respiratory specimen by Rapid immunoassay</td><td>Not detected</td><td></td><td></td></tr><tr><td>Influenza virus B Ag [Presence] in Upper respiratory specimen by Rapid immunoassay</td><td>Not detected</td><td></td><td></td></tr></tbody></table></div>"
                },
                "title": "Microbiology"
              },
              {
                "code": {
                  "coding": [
                    {
                      "code": "18725-2",
                      "system": "http://loinc.org",
                      "display": "Microbiology studies"
                    }
                  ],
                  "text": "Microbiology Panel"
                },
                "entry": [
                  {
                    "reference": "urn:uuid:9eb35302-d091-47bc-8c00-ffc7ec3b87b7"
                  }
                ],
                "text": {
                  "status": "generated",
                  "div": "<div xmlns=\"http://www.w3.org/1999/xhtml\"><h3 id=\"section-3\">Microbiology Panel</h3><table class=\"hl7__eu__lab__report\"><thead><tr><th>Test</th><th>18 Nov 2024</th><th>Reference Range</th><th>Unit</th></tr></thead><tbody><tr><td>SARS-CoV-2 (COVID-19) RNA panel - Respiratory system specimen by NAA with probe detection</td><td>Detected</td><td></td><td></td></tr></tbody></table></div>"
                },
                "title": "Microbiology Panel"
              }
            ],
            "title": "Laboratory Report"
          }
        ],
        "status": "final",
        "subject": {
          "reference": "urn:uuid:00223466-4a15-4335-9767-f12c4d72de9a"
        },
        "date": "2024-11-19T18:43:10Z",
        "title": "Laboratory Report",
        "confidentiality": "N"
      }
    },
    {
      "fullUrl": "urn:uuid:7146bcad-a1f1-4afd-b9d3-fc0ad36bfbe9",
      "resource": {
        "resourceType": "DiagnosticReport",
        "id": "7146bcad-a1f1-4afd-b9d3-fc0ad36bfbe9",
        "meta": {
          "profile": [
            "http://hl7.eu/fhir/laboratory/StructureDefinition/DiagnosticReport-eu-lab"
          ]
        },
        "identifier": [
          {
            "assigner": {
              "display": "HL7 Europe"
            },
            "system": "urn:oid:2.16.840.1.113883.2.51.999",
            "value": "64f2ad87-8c1c-4942-b817-bd0fd13a8a24"
          }
        ],
        "extension": [
          {
            "url": "http://hl7.org/fhir/5.0/StructureDefinition/extension-DiagnosticReport.composition",
            "valueReference": {
              "reference": "urn:uuid:323c14be-b428-44b3-9fe8-1350281fdb7e"
            }
          }
        ],
        "category": [
          {
            "coding": [
              {
                "code": "18719-5",
                "system": "http://loinc.org",
                "display": "Chemistry studies (set)"
              }
            ]
          }
        ],
        "specimen": [
          {
            "reference": "urn:uuid:ddb67a32-c814-4997-b0ac-b091958e75f3"
          },
          {
            "reference": "urn:uuid:17d92081-f50d-4c5a-b451-78b54b04eeb0"
          },
          {
            "reference": "urn:uuid:9b409ce5-e3e7-4a65-94a0-6a7f8e25b1eb"
          }
        ],
        "result": [
          {
            "reference": "urn:uuid:29aebf47-8044-4245-9a8a-86328c1e8428"
          },
          {
            "reference": "urn:uuid:45535918-1066-433c-b70d-c71fbe6f7f12"
          },
          {
            "reference": "urn:uuid:fa331e70-08f4-46ba-bf98-3336a448ce14"
          },
          {
            "reference": "urn:uuid:9eb35302-d091-47bc-8c00-ffc7ec3b87b7"
          }
        ],
        "status": "registered",
        "code": {
          "coding": [
            {
              "code": "11502-2",
              "system": "http://loinc.org",
              "display": "Laboratory report"
            }
          ]
        },
        "subject": {
          "reference": "urn:uuid:00223466-4a15-4335-9767-f12c4d72de9a"
        }
      }
    },
    {
      "fullUrl": "urn:uuid:00223466-4a15-4335-9767-f12c4d72de9a",
      "resource": {
        "resourceType": "Patient",
        "id": "00223466-4a15-4335-9767-f12c4d72de9a",
        "meta": {
          "profile": [
            "http://hl7.eu/fhir/laboratory/StructureDefinition/Patient-eu-lab"
          ]
        },
        "identifier": [
          {
            "type": {
              "coding": [
                {
                  "code": "NI",
                  "system": "http://terminology.hl7.org/CodeSystem/v2-0203"
                }
              ]
            },
            "system": "http://ec.europa.eu/identifier/eci",
            "value": "5100-386946-1"
          },
          {
            "type": {
              "coding": [
                {
                  "code": "MR",
                  "system": "http://terminology.hl7.org/CodeSystem/v2-0203"
                }
              ]
            },
            "system": "http://local.setting.eu/identifier",
            "value": "20a3539e-0908-4c0f-909a-34d6af8368e1"
          }
        ],
        "name": [
          {
            "given": [
              "Vilhelmina"
            ],
            "family": "Klobučarić",
            "text": "Vilhelmina Klobučarić"
          }
        ],
        "address": [
          {
            "line": [
              "Koenigstrasse 45"
            ],
            "use": "home",
            "type": "physical",
            "city": "Teistungen",
            "postalCode": "37340",
            "country": "Germany"
          }
        ],
        "telecom": [
          {
            "system": "phone",
            "value": "+49 036071 11 55"
          }
        ],
        "gender": "female",
        "birthDate": "1979-10-03"
      }
    },
    {
      "fullUrl": "urn:uuid:cfe51605-f5e0-4f97-a728-83cd84c8aa54",
      "resource": {
        "resourceType": "ServiceRequest",
        "id": "cfe51605-f5e0-4f97-a728-83cd84c8aa54",
        "meta": {
          "profile": [
            "http://hl7.eu/fhir/laboratory/StructureDefinition/ServiceRequest-eu-lab"
          ]
        },
        "identifier": [
          {
            "system": "http://example.org",
            "value": "063ba0e8-23f8-4a64-8a82-a50a298b8ceb"
          }
        ],
        "specimen": [
          {
            "reference": "urn:uuid:ddb67a32-c814-4997-b0ac-b091958e75f3"
          },
          {
            "reference": "urn:uuid:17d92081-f50d-4c5a-b451-78b54b04eeb0"
          },
          {
            "reference": "urn:uuid:9b409ce5-e3e7-4a65-94a0-6a7f8e25b1eb"
          }
        ],
        "status": "active",
        "intent": "order",
        "code": {
          "coding": [
            {
              "code": "108252007",
              "system": "http://snomed.info/sct",
              "display": "Laboratory procedure"
            }
          ]
        },
        "subject": {
          "reference": "urn:uuid:00223466-4a15-4335-9767-f12c4d72de9a"
        },
        "requester": {
          "reference": "urn:uuid:d6ad5de2-5597-4f74-a4d2-d70418de6757"
        }
      }
    },
    {
      "fullUrl": "urn:uuid:d6ad5de2-5597-4f74-a4d2-d70418de6757",
      "resource": {
        "resourceType": "PractitionerRole",
        "id": "d6ad5de2-5597-4f74-a4d2-d70418de6757",
        "meta": {
          "profile": [
            "http://hl7.eu/fhir/laboratory/StructureDefinition/PractitionerRole-eu-lab"
          ]
        },
        "organization": {
          "reference": "urn:uuid:ea184b18-87e2-4e4c-b6dc-fcb87968b98e"
        }
      }
    },
    {
      "fullUrl": "urn:uuid:ea184b18-87e2-4e4c-b6dc-fcb87968b98e",
      "resource": {
        "resourceType": "Organization",
        "id": "ea184b18-87e2-4e4c-b6dc-fcb87968b98e",
        "meta": {
          "profile": [
            "http://hl7.org/fhir/uv/ips/StructureDefinition/Organization-uv-ips"
          ]
        },
        "identifier": [
          {
            "assigner": {
              "display": "HL7 Europe"
            },
            "system": "urn:oid:2.16.840.1.113883.2.51.999",
            "value": "fac8651a-0e6e-4eac-aa77-46e968c4b8e2"
          }
        ],
        "address": [
          {
            "city": "Leinefelde-Worbis",
            "postalCode": "37339",
            "country": "de"
          }
        ],
        "name": "Eichsfeld Klinikum"
      }
    },
    {
      "fullUrl": "urn:uuid:3a147856-2e10-4326-8e9e-4fa5b7c7b611",
      "resource": {
        "resourceType": "PractitionerRole",
        "id": "3a147856-2e10-4326-8e9e-4fa5b7c7b611",
        "meta": {
          "profile": [
            "http://hl7.eu/fhir/laboratory/StructureDefinition/PractitionerRole-eu-lab"
          ]
        },
        "practitioner": {
          "reference": "urn:uuid:455436c1-1e03-4b26-ad90-01f3eb8552e2"
        }
      }
    },
    {
      "fullUrl": "urn:uuid:455436c1-1e03-4b26-ad90-01f3eb8552e2",
      "resource": {
        "resourceType": "Practitioner",
        "id": "455436c1-1e03-4b26-ad90-01f3eb8552e2",
        "meta": {
          "profile": [
            "http://hl7.eu/fhir/laboratory/StructureDefinition/Practitioner-eu-lab"
          ]
        },
        "identifier": [
          {
            "assigner": {
              "display": "HL7 Europe"
            },
            "system": "urn:oid:2.16.840.1.113883.2.51.999",
            "value": "c62634f3-9794-4f48-873c-cd089a169a41"
          }
        ],
        "name": [
          {
            "prefix": [
              "dr"
            ],
            "given": [
              "Ex"
            ],
            "family": "Ample"
          }
        ],
        "address": [
          {
            "line": [
              "Boulevard du Jardin Botanique 32"
            ],
            "city": "Brussels",
            "postalCode": "1000"
          }
        ]
      }
    },
    {
      "fullUrl": "urn:uuid:ddb67a32-c814-4997-b0ac-b091958e75f3",
      "resource": {
        "resourceType": "Specimen",
        "id": "ddb67a32-c814-4997-b0ac-b091958e75f3",
        "meta": {
          "profile": [
            "http://hl7.eu/fhir/laboratory/StructureDefinition/Specimen-eu-lab"
          ]
        },
        "collection": {
          "collectedDateTime": "2024-11-18"
        },
        "status": "available",
        "type": {
          "coding": [
            {
              "code": "122552005",
              "system": "http://snomed.info/sct",
              "display": "Arterial blood specimen (specimen)"
            }
          ]
        }
      }
    },
    {
      "fullUrl": "urn:uuid:17d92081-f50d-4c5a-b451-78b54b04eeb0",
      "resource": {
        "resourceType": "Specimen",
        "id": "17d92081-f50d-4c5a-b451-78b54b04eeb0",
        "meta": {
          "profile": [
            "http://hl7.eu/fhir/laboratory/StructureDefinition/Specimen-eu-lab"
          ]
        },
        "collection": {
          "collectedDateTime": "2024-11-18"
        },
        "status": "available",
        "type": {
          "coding": [
            {
              "code": "258604001",
              "system": "http://snomed.info/sct",
              "display": "Upper respiratory specimen (specimen)"
            }
          ]
        }
      }
    },
    {
      "fullUrl": "urn:uuid:9b409ce5-e3e7-4a65-94a0-6a7f8e25b1eb",
      "resource": {
        "resourceType": "Specimen",
        "id": "9b409ce5-e3e7-4a65-94a0-6a7f8e25b1eb",
        "meta": {
          "profile": [
            "http://hl7.eu/fhir/laboratory/StructureDefinition/Specimen-eu-lab"
          ]
        },
        "collection": {
          "collectedDateTime": "2024-11-18"
        },
        "status": "available",
        "type": {
          "coding": [
            {
              "code": "258603007",
              "system": "http://snomed.info/sct",
              "display": "Respiratory specimen (specimen)"
            }
          ]
        }
      }
    },
    {
      "fullUrl": "urn:uuid:29aebf47-8044-4245-9a8a-86328c1e8428",
      "resource": {
        "resourceType": "Observation",
        "id": "29aebf47-8044-4245-9a8a-86328c1e8428",
        "meta": {
          "profile": [
            "http://hl7.eu/fhir/laboratory/StructureDefinition/Observation-resultslab-eu-lab"
          ]
        },
        "performer": [
          {
            "display": "The Central European Lab"
          }
        ],
        "category": [
          {
            "coding": [
              {
                "code": "laboratory",
                "system": "http://terminology.hl7.org/CodeSystem/observation-category"
              }
            ]
          }
        ],
        "code": {
          "coding": [
            {
              "code": "2708-6",
              "system": "http://loinc.org",
              "display": "Oxygen saturation in Arterial blood"
            }
          ],
          "text": "Oxygen saturation in Arterial blood"
        },
        "valueQuantity": {
          "system": "http://unitsofmeasure.org",
          "value": 79,
          "unit": "%",
          "code": "%"
        },
        "referenceRange": [
          {
            "low": {
              "value": 95,
              "code": "%",
              "system": "http://unitsofmeasure.org"
            }
          },
          {
            "high": {
              "value": 100,
              "code": "%",
              "system": "http://unitsofmeasure.org"
            }
          }
        ],
        "interpretation": [
          {
            "coding": [
              {
                "code": "L",
                "system": "http://terminology.hl7.org/CodeSystem/v3-ObservationInterpretation",
                "display": "Low"
              }
            ]
          }
        ],
        "status": "final",
        "subject": {
          "reference": "urn:uuid:00223466-4a15-4335-9767-f12c4d72de9a"
        },
        "effectiveDateTime": "2024-11-18",
        "specimen": {
          "reference": "urn:uuid:ddb67a32-c814-4997-b0ac-b091958e75f3"
        }
      }
    },
    {
      "fullUrl": "urn:uuid:45535918-1066-433c-b70d-c71fbe6f7f12",
      "resource": {
        "resourceType": "Observation",
        "id": "45535918-1066-433c-b70d-c71fbe6f7f12",
        "meta": {
          "profile": [
            "http://hl7.eu/fhir/laboratory/StructureDefinition/Observation-resultslab-eu-lab"
          ]
        },
        "performer": [
          {
            "display": "The Central European Lab"
          }
        ],
        "category": [
          {
            "coding": [
              {
                "code": "laboratory",
                "system": "http://terminology.hl7.org/CodeSystem/observation-category"
              }
            ]
          }
        ],
        "code": {
          "coding": [
            {
              "code": "80382-5",
              "system": "http://loinc.org",
              "display": "Influenza virus A Ag [Presence] in Upper respiratory specimen by Rapid immunoassay"
            }
          ],
          "text": "Influenza virus A Ag [Presence] in Upper respiratory specimen by Rapid immunoassay"
        },
        "status": "final",
        "subject": {
          "reference": "urn:uuid:00223466-4a15-4335-9767-f12c4d72de9a"
        },
        "effectiveDateTime": "2024-11-18",
        "valueCodeableConcept": {
          "coding": [
            {
              "code": "260415000",
              "system": "http://snomed.info/sct",
              "display": "Not detected"
            }
          ]
        },
        "specimen": {
          "reference": "urn:uuid:17d92081-f50d-4c5a-b451-78b54b04eeb0"
        }
      }
    },
    {
      "fullUrl": "urn:uuid:fa331e70-08f4-46ba-bf98-3336a448ce14",
      "resource": {
        "resourceType": "Observation",
        "id": "fa331e70-08f4-46ba-bf98-3336a448ce14",
        "meta": {
          "profile": [
            "http://hl7.eu/fhir/laboratory/StructureDefinition/Observation-resultslab-eu-lab"
          ]
        },
        "performer": [
          {
            "display": "The Central European Lab"
          }
        ],
        "category": [
          {
            "coding": [
              {
                "code": "laboratory",
                "system": "http://terminology.hl7.org/CodeSystem/observation-category"
              }
            ]
          }
        ],
        "code": {
          "coding": [
            {
              "code": "80383-3",
              "system": "http://loinc.org",
              "display": "Influenza virus B Ag [Presence] in Upper respiratory specimen by Rapid immunoassay"
            }
          ],
          "text": "Influenza virus B Ag [Presence] in Upper respiratory specimen by Rapid immunoassay"
        },
        "status": "final",
        "subject": {
          "reference": "urn:uuid:00223466-4a15-4335-9767-f12c4d72de9a"
        },
        "effectiveDateTime": "2024-11-18",
        "valueCodeableConcept": {
          "coding": [
            {
              "code": "260415000",
              "system": "http://snomed.info/sct",
              "display": "Not detected"
            }
          ]
        },
        "specimen": {
          "reference": "urn:uuid:17d92081-f50d-4c5a-b451-78b54b04eeb0"
        }
      }
    },
    {
      "fullUrl": "urn:uuid:9eb35302-d091-47bc-8c00-ffc7ec3b87b7",
      "resource": {
        "resourceType": "Observation",
        "id": "9eb35302-d091-47bc-8c00-ffc7ec3b87b7",
        "meta": {
          "profile": [
            "http://hl7.eu/fhir/laboratory/StructureDefinition/Observation-resultslab-eu-lab"
          ]
        },
        "performer": [
          {
            "display": "The Central European Lab"
          }
        ],
        "category": [
          {
            "coding": [
              {
                "code": "laboratory",
                "system": "http://terminology.hl7.org/CodeSystem/observation-category"
              }
            ]
          }
        ],
        "code": {
          "coding": [
            {
              "code": "94531-1",
              "system": "http://loinc.org",
              "display": "SARS-CoV-2 (COVID-19) RNA panel - Respiratory system specimen by NAA with probe detection"
            }
          ],
          "text": "SARS-CoV-2 (COVID-19) RNA panel - Respiratory system specimen by NAA with probe detection"
        },
        "status": "final",
        "subject": {
          "reference": "urn:uuid:00223466-4a15-4335-9767-f12c4d72de9a"
        },
        "effectiveDateTime": "2024-11-18",
        "valueCodeableConcept": {
          "coding": [
            {
              "code": "260373001",
              "system": "http://snomed.info/sct",
              "display": "Detected"
            }
          ]
        },
        "specimen": {
          "reference": "urn:uuid:9b409ce5-e3e7-4a65-94a0-6a7f8e25b1eb"
        }
      }
    }
  ],
  "type": "document",
  "timestamp": "2024-11-19T18:43:10Z"
}
