{
  "resourceType": "Bundle",
  "id": "Instance-Bundle-919ba79c-c745-4efe-8191-4d9489637fd7",
  "meta": {
    "profile": [
      "http://hl7.eu/fhir/laboratory/StructureDefinition/Bundle-eu-lab"
    ]
  },
  "identifier": {
    "assigner": {
      "display": "HL7 Europe"
    },
    "system": "urn:oid:2.16.840.1.113883.2.51.999",
    "value": "e2ca1f98-2dcf-46c4-b82a-5b7a9d02ef18"
  },
  "entry": [
    {
      "fullUrl": "urn:uuid:d3e99f73-aa1f-46e7-a201-65208a61d87f",
      "resource": {
        "resourceType": "Composition",
        "id": "d3e99f73-aa1f-46e7-a201-65208a61d87f",
        "meta": {
          "profile": [
            "http://hl7.eu/fhir/laboratory/StructureDefinition/Composition-eu-lab"
          ]
        },
        "identifier": {
          "assigner": {
            "display": "HL7 Europe"
          },
          "system": "urn:oid:2.16.840.1.113883.2.51.999",
          "value": "4d9dbd73-f14f-4801-ac03-55716aaacbf1"
        },
        "author": [
          {
            "reference": "urn:uuid:c9313402-8951-4974-a201-74bb4f4ea3d7"
          }
        ],
        "category": [
          {
            "coding": [
              {
                "code": "26436-6",
                "system": "http://loinc.org",
                "display": "Laboratory studies (set)"
              }
            ]
          }
        ],
        "type": {
          "text": "Laboratory Report"
        },
        "section": [
          {
            "code": {
              "coding": [
                {
                  "code": "26436-6",
                  "system": "http://loinc.org",
                  "display": "Laboratory studies (set)"
                }
              ],
              "text": "Laboratory studies"
            },
            "section": [
              {
                "code": {
                  "coding": [
                    {
                      "code": "18719-5",
                      "system": "http://loinc.org",
                      "display": "Chemistry studies (set)"
                    }
                  ],
                  "text": "Chemistry"
                },
                "entry": [
                  {
                    "reference": "urn:uuid:38b5188d-c604-49b3-9440-446cf6619d0a"
                  },
                  {
                    "reference": "urn:uuid:095e0e0d-36aa-4b20-ad36-1f2fb72a4b31"
                  },
                  {
                    "reference": "urn:uuid:48d51cbe-85c6-4d21-9335-eb97fa60ce0a"
                  },
                  {
                    "reference": "urn:uuid:342d7f95-fbf4-48d2-ba3d-c58b8f99c803"
                  },
                  {
                    "reference": "urn:uuid:66a3d8ef-04da-430d-be8b-1ddc795160f4"
                  },
                  {
                    "reference": "urn:uuid:fd622ba0-45da-4ad0-84db-0084986dd9cf"
                  },
                  {
                    "reference": "urn:uuid:9d7e7b42-4c13-47c2-8b4f-f81e1e566c96"
                  },
                  {
                    "reference": "urn:uuid:3c94e43f-8e9e-4ac6-8fda-6661b2275560"
                  },
                  {
                    "reference": "urn:uuid:1fe13703-6dfb-468a-88bb-1416142e144e"
                  },
                  {
                    "reference": "urn:uuid:3f8f7cef-e5dd-4a86-8269-82ca88c0e19b"
                  },
                  {
                    "reference": "urn:uuid:a8cd16c1-1738-489a-8784-9ba274055744"
                  },
                  {
                    "reference": "urn:uuid:21126113-bf8a-4acc-a8a6-64f77bfffcc1"
                  },
                  {
                    "reference": "urn:uuid:62ad66fd-cd65-42bb-b38e-54f52b0ddc7f"
                  },
                  {
                    "reference": "urn:uuid:a5f72c71-cfbf-4df7-8935-9bc3a2504901"
                  },
                  {
                    "reference": "urn:uuid:4aa0726f-6fc9-4b5e-b881-cd0d318f0668"
                  },
                  {
                    "reference": "urn:uuid:0c197396-e4b2-447b-926d-bfb245f4dbfd"
                  },
                  {
                    "reference": "urn:uuid:400956c1-56a5-4bcf-89d0-3539a5ec428d"
                  },
                  {
                    "reference": "urn:uuid:cc6b749e-a899-4c4c-8f88-fc94bf00b1bf"
                  },
                  {
                    "reference": "urn:uuid:8d0e7c7d-6312-4fe2-8a03-3d8d308beb52"
                  }
                ],
                "text": {
                  "status": "generated",
                  "div": "<div xmlns=\"http://www.w3.org/1999/xhtml\"><h3 id=\"section-1\">Chemistry</h3><table class=\"hl7__eu__lab__report\"><thead><tr><th>Test</th><th>18 Nov 2024</th><th>Reference Range</th><th>Unit</th></tr></thead><tbody><tr><td>Glucose [Mass/volume] in Blood</td><td>85.0</td><td>70 - 140</td><td>mg/dL</td></tr><tr><td>Urea nitrogen [Mass/volume] in Blood</td><td>14.7</td><td>7 - 50</td><td>mg/dL</td></tr><tr><td>Creatinine [Mass/volume] in Blood</td><td><strong>3.3 H</strong></td><td>0.9 - 1.3</td><td>mg/dL</td></tr><tr><td>Calcium [Mass/volume] in Blood</td><td>10.0</td><td>8.5 - 10.4</td><td>mg/dL</td></tr><tr><td>Sodium [Moles/volume] in Blood</td><td>143.0</td><td>135 - 145</td><td>mmol/L</td></tr><tr><td>Potassium [Moles/volume] in Blood</td><td>3.7</td><td>3.5 - 5.1</td><td>mmol/L</td></tr><tr><td>Chloride [Moles/volume] in Blood</td><td>107.5</td><td>98 - 110</td><td>mmol/L</td></tr><tr><td>Carbon dioxide, total [Moles/volume] in Blood</td><td>26.2</td><td>24 - 29</td><td>mmol/L</td></tr><tr><td>Protein [Mass/volume] in Serum or Plasma</td><td>68.0</td><td>60 - 80</td><td>g/dL</td></tr><tr><td>Albumin [Mass/volume] in Serum or Plasma</td><td>4.9</td><td>3.5 - 5.5</td><td>g/dL</td></tr><tr><td>Globulin [Mass/volume] in Serum by calculation</td><td>3.0</td><td>2 - 3.5</td><td>g/L</td></tr><tr><td>Bilirubin.total [Mass/volume] in Serum or Plasma</td><td>0.7</td><td>0.3 - 1.2</td><td>mg/dL</td></tr><tr><td>Alkaline phosphatase [Enzymatic activity/volume] in Serum or Plasma</td><td>61.1</td><td>39 - 150</td><td>U/L</td></tr><tr><td>Alanine aminotransferase [Enzymatic activity/volume] in Serum or Plasma</td><td>25.1</td><td>10 - 50</td><td>U/L</td></tr><tr><td>Aspartate aminotransferase [Enzymatic activity/volume] in Serum or Plasma</td><td>28.2</td><td>15 - 49</td><td>U/L</td></tr><tr><td>Cholesterol [Mass/volume] in Serum or Plasma</td><td>169.9</td><td>125 - 200</td><td>mg/dL</td></tr><tr><td>Triglyceride [Mass/volume] in Serum or Plasma</td><td><strong>184.6 H</strong></td><td>65 - 150</td><td>mg/dL</td></tr><tr><td>Cholesterol in LDL [Mass/volume] in Serum or Plasma by Direct assay</td><td>102.2</td><td>0 - 130</td><td>mg/dL</td></tr><tr><td>Cholesterol in HDL [Mass/volume] in Serum or Plasma</td><td>67.2</td><td>40 - 100</td><td>mg/dL</td></tr></tbody></table></div>"
                },
                "title": "Chemistry"
              }
            ],
            "title": "Laboratory Report"
          }
        ],
        "status": "final",
        "subject": {
          "reference": "urn:uuid:965873a8-94e7-4156-bf48-eadaf857a433"
        },
        "date": "2024-11-19T18:39:21Z",
        "title": "Laboratory Report",
        "confidentiality": "N"
      }
    },
    {
      "fullUrl": "urn:uuid:1e429623-a4b4-4258-8a28-4e93697fe52e",
      "resource": {
        "resourceType": "DiagnosticReport",
        "id": "1e429623-a4b4-4258-8a28-4e93697fe52e",
        "meta": {
          "profile": [
            "http://hl7.eu/fhir/laboratory/StructureDefinition/DiagnosticReport-eu-lab"
          ]
        },
        "identifier": [
          {
            "assigner": {
              "display": "HL7 Europe"
            },
            "system": "urn:oid:2.16.840.1.113883.2.51.999",
            "value": "188636ee-1ac7-4861-bb62-78e93d015975"
          }
        ],
        "extension": [
          {
            "url": "http://hl7.org/fhir/5.0/StructureDefinition/extension-DiagnosticReport.composition",
            "valueReference": {
              "reference": "urn:uuid:d3e99f73-aa1f-46e7-a201-65208a61d87f"
            }
          }
        ],
        "category": [
          {
            "coding": [
              {
                "code": "18719-5",
                "system": "http://loinc.org",
                "display": "Chemistry studies (set)"
              }
            ]
          }
        ],
        "specimen": [
          {
            "reference": "urn:uuid:84cd8934-47fa-4d64-9804-40641992020e"
          },
          {
            "reference": "urn:uuid:4bea8fcf-98cb-4b09-82f4-4e8119be6144"
          },
          {
            "reference": "urn:uuid:579ce1d4-3c41-4857-bc9f-d31b151b1c0d"
          }
        ],
        "result": [
          {
            "reference": "urn:uuid:38b5188d-c604-49b3-9440-446cf6619d0a"
          },
          {
            "reference": "urn:uuid:095e0e0d-36aa-4b20-ad36-1f2fb72a4b31"
          },
          {
            "reference": "urn:uuid:48d51cbe-85c6-4d21-9335-eb97fa60ce0a"
          },
          {
            "reference": "urn:uuid:342d7f95-fbf4-48d2-ba3d-c58b8f99c803"
          },
          {
            "reference": "urn:uuid:66a3d8ef-04da-430d-be8b-1ddc795160f4"
          },
          {
            "reference": "urn:uuid:fd622ba0-45da-4ad0-84db-0084986dd9cf"
          },
          {
            "reference": "urn:uuid:9d7e7b42-4c13-47c2-8b4f-f81e1e566c96"
          },
          {
            "reference": "urn:uuid:3c94e43f-8e9e-4ac6-8fda-6661b2275560"
          },
          {
            "reference": "urn:uuid:1fe13703-6dfb-468a-88bb-1416142e144e"
          },
          {
            "reference": "urn:uuid:3f8f7cef-e5dd-4a86-8269-82ca88c0e19b"
          },
          {
            "reference": "urn:uuid:a8cd16c1-1738-489a-8784-9ba274055744"
          },
          {
            "reference": "urn:uuid:21126113-bf8a-4acc-a8a6-64f77bfffcc1"
          },
          {
            "reference": "urn:uuid:62ad66fd-cd65-42bb-b38e-54f52b0ddc7f"
          },
          {
            "reference": "urn:uuid:a5f72c71-cfbf-4df7-8935-9bc3a2504901"
          },
          {
            "reference": "urn:uuid:4aa0726f-6fc9-4b5e-b881-cd0d318f0668"
          },
          {
            "reference": "urn:uuid:0c197396-e4b2-447b-926d-bfb245f4dbfd"
          },
          {
            "reference": "urn:uuid:400956c1-56a5-4bcf-89d0-3539a5ec428d"
          },
          {
            "reference": "urn:uuid:cc6b749e-a899-4c4c-8f88-fc94bf00b1bf"
          },
          {
            "reference": "urn:uuid:8d0e7c7d-6312-4fe2-8a03-3d8d308beb52"
          }
        ],
        "status": "registered",
        "code": {
          "coding": [
            {
              "code": "11502-2",
              "system": "http://loinc.org",
              "display": "Laboratory report"
            }
          ]
        },
        "subject": {
          "reference": "urn:uuid:965873a8-94e7-4156-bf48-eadaf857a433"
        }
      }
    },
    {
      "fullUrl": "urn:uuid:965873a8-94e7-4156-bf48-eadaf857a433",
      "resource": {
        "resourceType": "Patient",
        "id": "965873a8-94e7-4156-bf48-eadaf857a433",
        "meta": {
          "profile": [
            "http://hl7.eu/fhir/laboratory/StructureDefinition/Patient-eu-lab"
          ]
        },
        "identifier": [
          {
            "type": {
              "coding": [
                {
                  "code": "NI",
                  "system": "http://terminology.hl7.org/CodeSystem/v2-0203"
                }
              ]
            },
            "system": "http://ec.europa.eu/identifier/eci",
            "value": "8886-392978-7"
          },
          {
            "type": {
              "coding": [
                {
                  "code": "MR",
                  "system": "http://terminology.hl7.org/CodeSystem/v2-0203"
                }
              ]
            },
            "system": "http://local.setting.eu/identifier",
            "value": "0142f3a4-1e08-477d-9b76-ff76ec692696"
          }
        ],
        "name": [
          {
            "given": [
              "Obrad"
            ],
            "family": "Deškovič",
            "text": "Obrad Deškovič"
          }
        ],
        "address": [
          {
            "line": [
              "Turjaška 92"
            ],
            "use": "home",
            "type": "physical",
            "city": "Primskovo",
            "postalCode": "1276",
            "country": "Slovenia"
          }
        ],
        "telecom": [
          {
            "system": "phone",
            "value": "+386 070-174-527"
          }
        ],
        "gender": "male",
        "birthDate": "1940-08-25"
      }
    },
    {
      "fullUrl": "urn:uuid:1b355a24-0ffe-4428-9338-7d23939f40d3",
      "resource": {
        "resourceType": "ServiceRequest",
        "id": "1b355a24-0ffe-4428-9338-7d23939f40d3",
        "meta": {
          "profile": [
            "http://hl7.eu/fhir/laboratory/StructureDefinition/ServiceRequest-eu-lab"
          ]
        },
        "identifier": [
          {
            "system": "http://example.org",
            "value": "f6ad38b7-b534-453f-8ad5-2e3a4c291b2c"
          }
        ],
        "specimen": [
          {
            "reference": "urn:uuid:84cd8934-47fa-4d64-9804-40641992020e"
          },
          {
            "reference": "urn:uuid:4bea8fcf-98cb-4b09-82f4-4e8119be6144"
          },
          {
            "reference": "urn:uuid:579ce1d4-3c41-4857-bc9f-d31b151b1c0d"
          }
        ],
        "status": "active",
        "intent": "order",
        "code": {
          "coding": [
            {
              "code": "108252007",
              "system": "http://snomed.info/sct",
              "display": "Laboratory procedure"
            }
          ]
        },
        "subject": {
          "reference": "urn:uuid:965873a8-94e7-4156-bf48-eadaf857a433"
        },
        "requester": {
          "reference": "urn:uuid:8091ae89-9293-46d1-bbeb-e1a73419421f"
        }
      }
    },
    {
      "fullUrl": "urn:uuid:8091ae89-9293-46d1-bbeb-e1a73419421f",
      "resource": {
        "resourceType": "PractitionerRole",
        "id": "8091ae89-9293-46d1-bbeb-e1a73419421f",
        "meta": {
          "profile": [
            "http://hl7.eu/fhir/laboratory/StructureDefinition/PractitionerRole-eu-lab"
          ]
        },
        "organization": {
          "reference": "urn:uuid:490195cc-e605-4183-92e4-f65405a2cb5d"
        }
      }
    },
    {
      "fullUrl": "urn:uuid:490195cc-e605-4183-92e4-f65405a2cb5d",
      "resource": {
        "resourceType": "Organization",
        "id": "490195cc-e605-4183-92e4-f65405a2cb5d",
        "meta": {
          "profile": [
            "http://hl7.org/fhir/uv/ips/StructureDefinition/Organization-uv-ips"
          ]
        },
        "identifier": [
          {
            "assigner": {
              "display": "HL7 Europe"
            },
            "system": "urn:oid:2.16.840.1.113883.2.51.999",
            "value": "56363a80-afe9-4097-91fc-0d5a88739a47"
          }
        ],
        "address": [
          {
            "city": "Zagorje ob Savi",
            "postalCode": "1410",
            "country": "si"
          }
        ],
        "name": "Zdravstveni dom Zagorje"
      }
    },
    {
      "fullUrl": "urn:uuid:c9313402-8951-4974-a201-74bb4f4ea3d7",
      "resource": {
        "resourceType": "PractitionerRole",
        "id": "c9313402-8951-4974-a201-74bb4f4ea3d7",
        "meta": {
          "profile": [
            "http://hl7.eu/fhir/laboratory/StructureDefinition/PractitionerRole-eu-lab"
          ]
        },
        "practitioner": {
          "reference": "urn:uuid:202c3fa1-d17c-4dfc-a512-a1f7efe50ae5"
        }
      }
    },
    {
      "fullUrl": "urn:uuid:202c3fa1-d17c-4dfc-a512-a1f7efe50ae5",
      "resource": {
        "resourceType": "Practitioner",
        "id": "202c3fa1-d17c-4dfc-a512-a1f7efe50ae5",
        "meta": {
          "profile": [
            "http://hl7.eu/fhir/laboratory/StructureDefinition/Practitioner-eu-lab"
          ]
        },
        "identifier": [
          {
            "assigner": {
              "display": "HL7 Europe"
            },
            "system": "urn:oid:2.16.840.1.113883.2.51.999",
            "value": "5a81b7aa-9451-4c99-b467-01f98f0d2b4d"
          }
        ],
        "name": [
          {
            "prefix": [
              "dr"
            ],
            "given": [
              "Ex"
            ],
            "family": "Ample"
          }
        ],
        "address": [
          {
            "line": [
              "Boulevard du Jardin Botanique 32"
            ],
            "city": "Brussels",
            "postalCode": "1000"
          }
        ]
      }
    },
    {
      "fullUrl": "urn:uuid:84cd8934-47fa-4d64-9804-40641992020e",
      "resource": {
        "resourceType": "Specimen",
        "id": "84cd8934-47fa-4d64-9804-40641992020e",
        "meta": {
          "profile": [
            "http://hl7.eu/fhir/laboratory/StructureDefinition/Specimen-eu-lab"
          ]
        },
        "collection": {
          "collectedDateTime": "2024-11-18"
        },
        "status": "available",
        "type": {
          "coding": [
            {
              "code": "258580003",
              "system": "http://snomed.info/sct",
              "display": "Whole blood specimen (specimen)"
            }
          ]
        }
      }
    },
    {
      "fullUrl": "urn:uuid:4bea8fcf-98cb-4b09-82f4-4e8119be6144",
      "resource": {
        "resourceType": "Specimen",
        "id": "4bea8fcf-98cb-4b09-82f4-4e8119be6144",
        "meta": {
          "profile": [
            "http://hl7.eu/fhir/laboratory/StructureDefinition/Specimen-eu-lab"
          ]
        },
        "collection": {
          "collectedDateTime": "2024-11-18"
        },
        "status": "available",
        "type": {
          "coding": [
            {
              "code": "122592007",
              "system": "http://snomed.info/sct",
              "display": "Acellular blood (serum or plasma) specimen (specimen)"
            }
          ]
        }
      }
    },
    {
      "fullUrl": "urn:uuid:579ce1d4-3c41-4857-bc9f-d31b151b1c0d",
      "resource": {
        "resourceType": "Specimen",
        "id": "579ce1d4-3c41-4857-bc9f-d31b151b1c0d",
        "meta": {
          "profile": [
            "http://hl7.eu/fhir/laboratory/StructureDefinition/Specimen-eu-lab"
          ]
        },
        "collection": {
          "collectedDateTime": "2024-11-18"
        },
        "status": "available",
        "type": {
          "coding": [
            {
              "code": "119364003",
              "system": "http://snomed.info/sct",
              "display": "Serum specimen (specimen)"
            }
          ]
        }
      }
    },
    {
      "fullUrl": "urn:uuid:38b5188d-c604-49b3-9440-446cf6619d0a",
      "resource": {
        "resourceType": "Observation",
        "id": "38b5188d-c604-49b3-9440-446cf6619d0a",
        "meta": {
          "profile": [
            "http://hl7.eu/fhir/laboratory/StructureDefinition/Observation-resultslab-eu-lab"
          ]
        },
        "performer": [
          {
            "display": "The Central European Lab"
          }
        ],
        "category": [
          {
            "coding": [
              {
                "code": "laboratory",
                "system": "http://terminology.hl7.org/CodeSystem/observation-category"
              }
            ]
          }
        ],
        "code": {
          "coding": [
            {
              "code": "2339-0",
              "system": "http://loinc.org",
              "display": "Glucose [Mass/volume] in Blood"
            }
          ],
          "text": "Glucose [Mass/volume] in Blood"
        },
        "valueQuantity": {
          "system": "http://unitsofmeasure.org",
          "value": 85,
          "unit": "mg/dL",
          "code": "mg/dL"
        },
        "referenceRange": [
          {
            "low": {
              "value": 70,
              "code": "mg/dL",
              "system": "http://unitsofmeasure.org"
            }
          },
          {
            "high": {
              "value": 140,
              "code": "mg/dL",
              "system": "http://unitsofmeasure.org"
            }
          }
        ],
        "status": "final",
        "subject": {
          "reference": "urn:uuid:965873a8-94e7-4156-bf48-eadaf857a433"
        },
        "effectiveDateTime": "2024-11-18",
        "specimen": {
          "reference": "urn:uuid:84cd8934-47fa-4d64-9804-40641992020e"
        }
      }
    },
    {
      "fullUrl": "urn:uuid:095e0e0d-36aa-4b20-ad36-1f2fb72a4b31",
      "resource": {
        "resourceType": "Observation",
        "id": "095e0e0d-36aa-4b20-ad36-1f2fb72a4b31",
        "meta": {
          "profile": [
            "http://hl7.eu/fhir/laboratory/StructureDefinition/Observation-resultslab-eu-lab"
          ]
        },
        "performer": [
          {
            "display": "The Central European Lab"
          }
        ],
        "category": [
          {
            "coding": [
              {
                "code": "laboratory",
                "system": "http://terminology.hl7.org/CodeSystem/observation-category"
              }
            ]
          }
        ],
        "code": {
          "coding": [
            {
              "code": "6299-2",
              "system": "http://loinc.org",
              "display": "Urea nitrogen [Mass/volume] in Blood"
            }
          ],
          "text": "Urea nitrogen [Mass/volume] in Blood"
        },
        "valueQuantity": {
          "system": "http://unitsofmeasure.org",
          "value": 14.7,
          "unit": "mg/dL",
          "code": "mg/dL"
        },
        "referenceRange": [
          {
            "low": {
              "value": 7,
              "code": "mg/dL",
              "system": "http://unitsofmeasure.org"
            }
          },
          {
            "high": {
              "value": 50,
              "code": "mg/dL",
              "system": "http://unitsofmeasure.org"
            }
          }
        ],
        "status": "final",
        "subject": {
          "reference": "urn:uuid:965873a8-94e7-4156-bf48-eadaf857a433"
        },
        "effectiveDateTime": "2024-11-18",
        "specimen": {
          "reference": "urn:uuid:84cd8934-47fa-4d64-9804-40641992020e"
        }
      }
    },
    {
      "fullUrl": "urn:uuid:48d51cbe-85c6-4d21-9335-eb97fa60ce0a",
      "resource": {
        "resourceType": "Observation",
        "id": "48d51cbe-85c6-4d21-9335-eb97fa60ce0a",
        "meta": {
          "profile": [
            "http://hl7.eu/fhir/laboratory/StructureDefinition/Observation-resultslab-eu-lab"
          ]
        },
        "performer": [
          {
            "display": "The Central European Lab"
          }
        ],
        "category": [
          {
            "coding": [
              {
                "code": "laboratory",
                "system": "http://terminology.hl7.org/CodeSystem/observation-category"
              }
            ]
          }
        ],
        "code": {
          "coding": [
            {
              "code": "38483-4",
              "system": "http://loinc.org",
              "display": "Creatinine [Mass/volume] in Blood"
            }
          ],
          "text": "Creatinine [Mass/volume] in Blood"
        },
        "valueQuantity": {
          "system": "http://unitsofmeasure.org",
          "value": 3.3,
          "unit": "mg/dL",
          "code": "mg/dL"
        },
        "referenceRange": [
          {
            "low": {
              "value": 0.9,
              "code": "mg/dL",
              "system": "http://unitsofmeasure.org"
            }
          },
          {
            "high": {
              "value": 1.3,
              "code": "mg/dL",
              "system": "http://unitsofmeasure.org"
            }
          }
        ],
        "interpretation": [
          {
            "coding": [
              {
                "code": "H",
                "system": "http://terminology.hl7.org/CodeSystem/v3-ObservationInterpretation",
                "display": "High"
              }
            ]
          }
        ],
        "status": "final",
        "subject": {
          "reference": "urn:uuid:965873a8-94e7-4156-bf48-eadaf857a433"
        },
        "effectiveDateTime": "2024-11-18",
        "specimen": {
          "reference": "urn:uuid:84cd8934-47fa-4d64-9804-40641992020e"
        }
      }
    },
    {
      "fullUrl": "urn:uuid:342d7f95-fbf4-48d2-ba3d-c58b8f99c803",
      "resource": {
        "resourceType": "Observation",
        "id": "342d7f95-fbf4-48d2-ba3d-c58b8f99c803",
        "meta": {
          "profile": [
            "http://hl7.eu/fhir/laboratory/StructureDefinition/Observation-resultslab-eu-lab"
          ]
        },
        "performer": [
          {
            "display": "The Central European Lab"
          }
        ],
        "category": [
          {
            "coding": [
              {
                "code": "laboratory",
                "system": "http://terminology.hl7.org/CodeSystem/observation-category"
              }
            ]
          }
        ],
        "code": {
          "coding": [
            {
              "code": "49765-1",
              "system": "http://loinc.org",
              "display": "Calcium [Mass/volume] in Blood"
            }
          ],
          "text": "Calcium [Mass/volume] in Blood"
        },
        "valueQuantity": {
          "system": "http://unitsofmeasure.org",
          "value": 10,
          "unit": "mg/dL",
          "code": "mg/dL"
        },
        "referenceRange": [
          {
            "low": {
              "value": 8.5,
              "code": "mg/dL",
              "system": "http://unitsofmeasure.org"
            }
          },
          {
            "high": {
              "value": 10.4,
              "code": "mg/dL",
              "system": "http://unitsofmeasure.org"
            }
          }
        ],
        "status": "final",
        "subject": {
          "reference": "urn:uuid:965873a8-94e7-4156-bf48-eadaf857a433"
        },
        "effectiveDateTime": "2024-11-18",
        "specimen": {
          "reference": "urn:uuid:84cd8934-47fa-4d64-9804-40641992020e"
        }
      }
    },
    {
      "fullUrl": "urn:uuid:66a3d8ef-04da-430d-be8b-1ddc795160f4",
      "resource": {
        "resourceType": "Observation",
        "id": "66a3d8ef-04da-430d-be8b-1ddc795160f4",
        "meta": {
          "profile": [
            "http://hl7.eu/fhir/laboratory/StructureDefinition/Observation-resultslab-eu-lab"
          ]
        },
        "performer": [
          {
            "display": "The Central European Lab"
          }
        ],
        "category": [
          {
            "coding": [
              {
                "code": "laboratory",
                "system": "http://terminology.hl7.org/CodeSystem/observation-category"
              }
            ]
          }
        ],
        "code": {
          "coding": [
            {
              "code": "2947-0",
              "system": "http://loinc.org",
              "display": "Sodium [Moles/volume] in Blood"
            }
          ],
          "text": "Sodium [Moles/volume] in Blood"
        },
        "valueQuantity": {
          "system": "http://unitsofmeasure.org",
          "value": 143,
          "unit": "mmol/L",
          "code": "mmol/L"
        },
        "referenceRange": [
          {
            "low": {
              "value": 135,
              "code": "mmol/L",
              "system": "http://unitsofmeasure.org"
            }
          },
          {
            "high": {
              "value": 145,
              "code": "mmol/L",
              "system": "http://unitsofmeasure.org"
            }
          }
        ],
        "status": "final",
        "subject": {
          "reference": "urn:uuid:965873a8-94e7-4156-bf48-eadaf857a433"
        },
        "effectiveDateTime": "2024-11-18",
        "specimen": {
          "reference": "urn:uuid:84cd8934-47fa-4d64-9804-40641992020e"
        }
      }
    },
    {
      "fullUrl": "urn:uuid:fd622ba0-45da-4ad0-84db-0084986dd9cf",
      "resource": {
        "resourceType": "Observation",
        "id": "fd622ba0-45da-4ad0-84db-0084986dd9cf",
        "meta": {
          "profile": [
            "http://hl7.eu/fhir/laboratory/StructureDefinition/Observation-resultslab-eu-lab"
          ]
        },
        "performer": [
          {
            "display": "The Central European Lab"
          }
        ],
        "category": [
          {
            "coding": [
              {
                "code": "laboratory",
                "system": "http://terminology.hl7.org/CodeSystem/observation-category"
              }
            ]
          }
        ],
        "code": {
          "coding": [
            {
              "code": "6298-4",
              "system": "http://loinc.org",
              "display": "Potassium [Moles/volume] in Blood"
            }
          ],
          "text": "Potassium [Moles/volume] in Blood"
        },
        "valueQuantity": {
          "system": "http://unitsofmeasure.org",
          "value": 3.7,
          "unit": "mmol/L",
          "code": "mmol/L"
        },
        "referenceRange": [
          {
            "low": {
              "value": 3.5,
              "code": "mmol/L",
              "system": "http://unitsofmeasure.org"
            }
          },
          {
            "high": {
              "value": 5.1,
              "code": "mmol/L",
              "system": "http://unitsofmeasure.org"
            }
          }
        ],
        "status": "final",
        "subject": {
          "reference": "urn:uuid:965873a8-94e7-4156-bf48-eadaf857a433"
        },
        "effectiveDateTime": "2024-11-18",
        "specimen": {
          "reference": "urn:uuid:84cd8934-47fa-4d64-9804-40641992020e"
        }
      }
    },
    {
      "fullUrl": "urn:uuid:9d7e7b42-4c13-47c2-8b4f-f81e1e566c96",
      "resource": {
        "resourceType": "Observation",
        "id": "9d7e7b42-4c13-47c2-8b4f-f81e1e566c96",
        "meta": {
          "profile": [
            "http://hl7.eu/fhir/laboratory/StructureDefinition/Observation-resultslab-eu-lab"
          ]
        },
        "performer": [
          {
            "display": "The Central European Lab"
          }
        ],
        "category": [
          {
            "coding": [
              {
                "code": "laboratory",
                "system": "http://terminology.hl7.org/CodeSystem/observation-category"
              }
            ]
          }
        ],
        "code": {
          "coding": [
            {
              "code": "2069-3",
              "system": "http://loinc.org",
              "display": "Chloride [Moles/volume] in Blood"
            }
          ],
          "text": "Chloride [Moles/volume] in Blood"
        },
        "valueQuantity": {
          "system": "http://unitsofmeasure.org",
          "value": 107.5,
          "unit": "mmol/L",
          "code": "mmol/L"
        },
        "referenceRange": [
          {
            "low": {
              "value": 98,
              "code": "mmol/L",
              "system": "http://unitsofmeasure.org"
            }
          },
          {
            "high": {
              "value": 110,
              "code": "mmol/L",
              "system": "http://unitsofmeasure.org"
            }
          }
        ],
        "status": "final",
        "subject": {
          "reference": "urn:uuid:965873a8-94e7-4156-bf48-eadaf857a433"
        },
        "effectiveDateTime": "2024-11-18",
        "specimen": {
          "reference": "urn:uuid:84cd8934-47fa-4d64-9804-40641992020e"
        }
      }
    },
    {
      "fullUrl": "urn:uuid:3c94e43f-8e9e-4ac6-8fda-6661b2275560",
      "resource": {
        "resourceType": "Observation",
        "id": "3c94e43f-8e9e-4ac6-8fda-6661b2275560",
        "meta": {
          "profile": [
            "http://hl7.eu/fhir/laboratory/StructureDefinition/Observation-resultslab-eu-lab"
          ]
        },
        "performer": [
          {
            "display": "The Central European Lab"
          }
        ],
        "category": [
          {
            "coding": [
              {
                "code": "laboratory",
                "system": "http://terminology.hl7.org/CodeSystem/observation-category"
              }
            ]
          }
        ],
        "code": {
          "coding": [
            {
              "code": "20565-8",
              "system": "http://loinc.org",
              "display": "Carbon dioxide, total [Moles/volume] in Blood"
            }
          ],
          "text": "Carbon dioxide, total [Moles/volume] in Blood"
        },
        "valueQuantity": {
          "system": "http://unitsofmeasure.org",
          "value": 26.2,
          "unit": "mmol/L",
          "code": "mmol/L"
        },
        "referenceRange": [
          {
            "low": {
              "value": 24,
              "code": "mmol/L",
              "system": "http://unitsofmeasure.org"
            }
          },
          {
            "high": {
              "value": 29,
              "code": "mmol/L",
              "system": "http://unitsofmeasure.org"
            }
          }
        ],
        "status": "final",
        "subject": {
          "reference": "urn:uuid:965873a8-94e7-4156-bf48-eadaf857a433"
        },
        "effectiveDateTime": "2024-11-18",
        "specimen": {
          "reference": "urn:uuid:84cd8934-47fa-4d64-9804-40641992020e"
        }
      }
    },
    {
      "fullUrl": "urn:uuid:1fe13703-6dfb-468a-88bb-1416142e144e",
      "resource": {
        "resourceType": "Observation",
        "id": "1fe13703-6dfb-468a-88bb-1416142e144e",
        "meta": {
          "profile": [
            "http://hl7.eu/fhir/laboratory/StructureDefinition/Observation-resultslab-eu-lab"
          ]
        },
        "performer": [
          {
            "display": "The Central European Lab"
          }
        ],
        "category": [
          {
            "coding": [
              {
                "code": "laboratory",
                "system": "http://terminology.hl7.org/CodeSystem/observation-category"
              }
            ]
          }
        ],
        "code": {
          "coding": [
            {
              "code": "2885-2",
              "system": "http://loinc.org",
              "display": "Protein [Mass/volume] in Serum or Plasma"
            }
          ],
          "text": "Protein [Mass/volume] in Serum or Plasma"
        },
        "valueQuantity": {
          "system": "http://unitsofmeasure.org",
          "value": 68,
          "unit": "g/dL",
          "code": "g/dL"
        },
        "referenceRange": [
          {
            "low": {
              "value": 60,
              "code": "g/dL",
              "system": "http://unitsofmeasure.org"
            }
          },
          {
            "high": {
              "value": 80,
              "code": "g/dL",
              "system": "http://unitsofmeasure.org"
            }
          }
        ],
        "status": "final",
        "subject": {
          "reference": "urn:uuid:965873a8-94e7-4156-bf48-eadaf857a433"
        },
        "effectiveDateTime": "2024-11-18",
        "specimen": {
          "reference": "urn:uuid:4bea8fcf-98cb-4b09-82f4-4e8119be6144"
        }
      }
    },
    {
      "fullUrl": "urn:uuid:3f8f7cef-e5dd-4a86-8269-82ca88c0e19b",
      "resource": {
        "resourceType": "Observation",
        "id": "3f8f7cef-e5dd-4a86-8269-82ca88c0e19b",
        "meta": {
          "profile": [
            "http://hl7.eu/fhir/laboratory/StructureDefinition/Observation-resultslab-eu-lab"
          ]
        },
        "performer": [
          {
            "display": "The Central European Lab"
          }
        ],
        "category": [
          {
            "coding": [
              {
                "code": "laboratory",
                "system": "http://terminology.hl7.org/CodeSystem/observation-category"
              }
            ]
          }
        ],
        "code": {
          "coding": [
            {
              "code": "1751-7",
              "system": "http://loinc.org",
              "display": "Albumin [Mass/volume] in Serum or Plasma"
            }
          ],
          "text": "Albumin [Mass/volume] in Serum or Plasma"
        },
        "valueQuantity": {
          "system": "http://unitsofmeasure.org",
          "value": 4.9,
          "unit": "g/dL",
          "code": "g/dL"
        },
        "referenceRange": [
          {
            "low": {
              "value": 3.5,
              "code": "g/dL",
              "system": "http://unitsofmeasure.org"
            }
          },
          {
            "high": {
              "value": 5.5,
              "code": "g/dL",
              "system": "http://unitsofmeasure.org"
            }
          }
        ],
        "status": "final",
        "subject": {
          "reference": "urn:uuid:965873a8-94e7-4156-bf48-eadaf857a433"
        },
        "effectiveDateTime": "2024-11-18",
        "specimen": {
          "reference": "urn:uuid:4bea8fcf-98cb-4b09-82f4-4e8119be6144"
        }
      }
    },
    {
      "fullUrl": "urn:uuid:a8cd16c1-1738-489a-8784-9ba274055744",
      "resource": {
        "resourceType": "Observation",
        "id": "a8cd16c1-1738-489a-8784-9ba274055744",
        "meta": {
          "profile": [
            "http://hl7.eu/fhir/laboratory/StructureDefinition/Observation-resultslab-eu-lab"
          ]
        },
        "performer": [
          {
            "display": "The Central European Lab"
          }
        ],
        "category": [
          {
            "coding": [
              {
                "code": "laboratory",
                "system": "http://terminology.hl7.org/CodeSystem/observation-category"
              }
            ]
          }
        ],
        "code": {
          "coding": [
            {
              "code": "10834-0",
              "system": "http://loinc.org",
              "display": "Globulin [Mass/volume] in Serum by calculation"
            }
          ],
          "text": "Globulin [Mass/volume] in Serum by calculation"
        },
        "valueQuantity": {
          "system": "http://unitsofmeasure.org",
          "value": 3,
          "unit": "g/L",
          "code": "g/L"
        },
        "referenceRange": [
          {
            "low": {
              "value": 2,
              "code": "g/L",
              "system": "http://unitsofmeasure.org"
            }
          },
          {
            "high": {
              "value": 3.5,
              "code": "g/L",
              "system": "http://unitsofmeasure.org"
            }
          }
        ],
        "status": "final",
        "subject": {
          "reference": "urn:uuid:965873a8-94e7-4156-bf48-eadaf857a433"
        },
        "effectiveDateTime": "2024-11-18",
        "specimen": {
          "reference": "urn:uuid:579ce1d4-3c41-4857-bc9f-d31b151b1c0d"
        }
      }
    },
    {
      "fullUrl": "urn:uuid:21126113-bf8a-4acc-a8a6-64f77bfffcc1",
      "resource": {
        "resourceType": "Observation",
        "id": "21126113-bf8a-4acc-a8a6-64f77bfffcc1",
        "meta": {
          "profile": [
            "http://hl7.eu/fhir/laboratory/StructureDefinition/Observation-resultslab-eu-lab"
          ]
        },
        "performer": [
          {
            "display": "The Central European Lab"
          }
        ],
        "category": [
          {
            "coding": [
              {
                "code": "laboratory",
                "system": "http://terminology.hl7.org/CodeSystem/observation-category"
              }
            ]
          }
        ],
        "code": {
          "coding": [
            {
              "code": "1975-2",
              "system": "http://loinc.org",
              "display": "Bilirubin.total [Mass/volume] in Serum or Plasma"
            }
          ],
          "text": "Bilirubin.total [Mass/volume] in Serum or Plasma"
        },
        "valueQuantity": {
          "system": "http://unitsofmeasure.org",
          "value": 0.7,
          "unit": "mg/dL",
          "code": "mg/dL"
        },
        "referenceRange": [
          {
            "low": {
              "value": 0.3,
              "code": "mg/dL",
              "system": "http://unitsofmeasure.org"
            }
          },
          {
            "high": {
              "value": 1.2,
              "code": "mg/dL",
              "system": "http://unitsofmeasure.org"
            }
          }
        ],
        "status": "final",
        "subject": {
          "reference": "urn:uuid:965873a8-94e7-4156-bf48-eadaf857a433"
        },
        "effectiveDateTime": "2024-11-18",
        "specimen": {
          "reference": "urn:uuid:4bea8fcf-98cb-4b09-82f4-4e8119be6144"
        }
      }
    },
    {
      "fullUrl": "urn:uuid:62ad66fd-cd65-42bb-b38e-54f52b0ddc7f",
      "resource": {
        "resourceType": "Observation",
        "id": "62ad66fd-cd65-42bb-b38e-54f52b0ddc7f",
        "meta": {
          "profile": [
            "http://hl7.eu/fhir/laboratory/StructureDefinition/Observation-resultslab-eu-lab"
          ]
        },
        "performer": [
          {
            "display": "The Central European Lab"
          }
        ],
        "category": [
          {
            "coding": [
              {
                "code": "laboratory",
                "system": "http://terminology.hl7.org/CodeSystem/observation-category"
              }
            ]
          }
        ],
        "code": {
          "coding": [
            {
              "code": "6768-6",
              "system": "http://loinc.org",
              "display": "Alkaline phosphatase [Enzymatic activity/volume] in Serum or Plasma"
            }
          ],
          "text": "Alkaline phosphatase [Enzymatic activity/volume] in Serum or Plasma"
        },
        "valueQuantity": {
          "system": "http://unitsofmeasure.org",
          "value": 61.1,
          "unit": "U/L",
          "code": "U/L"
        },
        "referenceRange": [
          {
            "low": {
              "value": 39,
              "code": "U/L",
              "system": "http://unitsofmeasure.org"
            }
          },
          {
            "high": {
              "value": 150,
              "code": "U/L",
              "system": "http://unitsofmeasure.org"
            }
          }
        ],
        "status": "final",
        "subject": {
          "reference": "urn:uuid:965873a8-94e7-4156-bf48-eadaf857a433"
        },
        "effectiveDateTime": "2024-11-18",
        "specimen": {
          "reference": "urn:uuid:4bea8fcf-98cb-4b09-82f4-4e8119be6144"
        }
      }
    },
    {
      "fullUrl": "urn:uuid:a5f72c71-cfbf-4df7-8935-9bc3a2504901",
      "resource": {
        "resourceType": "Observation",
        "id": "a5f72c71-cfbf-4df7-8935-9bc3a2504901",
        "meta": {
          "profile": [
            "http://hl7.eu/fhir/laboratory/StructureDefinition/Observation-resultslab-eu-lab"
          ]
        },
        "performer": [
          {
            "display": "The Central European Lab"
          }
        ],
        "category": [
          {
            "coding": [
              {
                "code": "laboratory",
                "system": "http://terminology.hl7.org/CodeSystem/observation-category"
              }
            ]
          }
        ],
        "code": {
          "coding": [
            {
              "code": "1742-6",
              "system": "http://loinc.org",
              "display": "Alanine aminotransferase [Enzymatic activity/volume] in Serum or Plasma"
            }
          ],
          "text": "Alanine aminotransferase [Enzymatic activity/volume] in Serum or Plasma"
        },
        "valueQuantity": {
          "system": "http://unitsofmeasure.org",
          "value": 25.1,
          "unit": "U/L",
          "code": "U/L"
        },
        "referenceRange": [
          {
            "low": {
              "value": 10,
              "code": "U/L",
              "system": "http://unitsofmeasure.org"
            }
          },
          {
            "high": {
              "value": 50,
              "code": "U/L",
              "system": "http://unitsofmeasure.org"
            }
          }
        ],
        "status": "final",
        "subject": {
          "reference": "urn:uuid:965873a8-94e7-4156-bf48-eadaf857a433"
        },
        "effectiveDateTime": "2024-11-18",
        "specimen": {
          "reference": "urn:uuid:4bea8fcf-98cb-4b09-82f4-4e8119be6144"
        }
      }
    },
    {
      "fullUrl": "urn:uuid:4aa0726f-6fc9-4b5e-b881-cd0d318f0668",
      "resource": {
        "resourceType": "Observation",
        "id": "4aa0726f-6fc9-4b5e-b881-cd0d318f0668",
        "meta": {
          "profile": [
            "http://hl7.eu/fhir/laboratory/StructureDefinition/Observation-resultslab-eu-lab"
          ]
        },
        "performer": [
          {
            "display": "The Central European Lab"
          }
        ],
        "category": [
          {
            "coding": [
              {
                "code": "laboratory",
                "system": "http://terminology.hl7.org/CodeSystem/observation-category"
              }
            ]
          }
        ],
        "code": {
          "coding": [
            {
              "code": "1920-8",
              "system": "http://loinc.org",
              "display": "Aspartate aminotransferase [Enzymatic activity/volume] in Serum or Plasma"
            }
          ],
          "text": "Aspartate aminotransferase [Enzymatic activity/volume] in Serum or Plasma"
        },
        "valueQuantity": {
          "system": "http://unitsofmeasure.org",
          "value": 28.2,
          "unit": "U/L",
          "code": "U/L"
        },
        "referenceRange": [
          {
            "low": {
              "value": 15,
              "code": "U/L",
              "system": "http://unitsofmeasure.org"
            }
          },
          {
            "high": {
              "value": 49,
              "code": "U/L",
              "system": "http://unitsofmeasure.org"
            }
          }
        ],
        "status": "final",
        "subject": {
          "reference": "urn:uuid:965873a8-94e7-4156-bf48-eadaf857a433"
        },
        "effectiveDateTime": "2024-11-18",
        "specimen": {
          "reference": "urn:uuid:4bea8fcf-98cb-4b09-82f4-4e8119be6144"
        }
      }
    },
    {
      "fullUrl": "urn:uuid:0c197396-e4b2-447b-926d-bfb245f4dbfd",
      "resource": {
        "resourceType": "Observation",
        "id": "0c197396-e4b2-447b-926d-bfb245f4dbfd",
        "meta": {
          "profile": [
            "http://hl7.eu/fhir/laboratory/StructureDefinition/Observation-resultslab-eu-lab"
          ]
        },
        "performer": [
          {
            "display": "The Central European Lab"
          }
        ],
        "category": [
          {
            "coding": [
              {
                "code": "laboratory",
                "system": "http://terminology.hl7.org/CodeSystem/observation-category"
              }
            ]
          }
        ],
        "code": {
          "coding": [
            {
              "code": "2093-3",
              "system": "http://loinc.org",
              "display": "Cholesterol [Mass/volume] in Serum or Plasma"
            }
          ],
          "text": "Cholesterol [Mass/volume] in Serum or Plasma"
        },
        "valueQuantity": {
          "system": "http://unitsofmeasure.org",
          "value": 169.9,
          "unit": "mg/dL",
          "code": "mg/dL"
        },
        "referenceRange": [
          {
            "low": {
              "value": 125,
              "code": "mg/dL",
              "system": "http://unitsofmeasure.org"
            }
          },
          {
            "high": {
              "value": 200,
              "code": "mg/dL",
              "system": "http://unitsofmeasure.org"
            }
          }
        ],
        "status": "final",
        "subject": {
          "reference": "urn:uuid:965873a8-94e7-4156-bf48-eadaf857a433"
        },
        "effectiveDateTime": "2024-11-18",
        "specimen": {
          "reference": "urn:uuid:4bea8fcf-98cb-4b09-82f4-4e8119be6144"
        }
      }
    },
    {
      "fullUrl": "urn:uuid:400956c1-56a5-4bcf-89d0-3539a5ec428d",
      "resource": {
        "resourceType": "Observation",
        "id": "400956c1-56a5-4bcf-89d0-3539a5ec428d",
        "meta": {
          "profile": [
            "http://hl7.eu/fhir/laboratory/StructureDefinition/Observation-resultslab-eu-lab"
          ]
        },
        "performer": [
          {
            "display": "The Central European Lab"
          }
        ],
        "category": [
          {
            "coding": [
              {
                "code": "laboratory",
                "system": "http://terminology.hl7.org/CodeSystem/observation-category"
              }
            ]
          }
        ],
        "code": {
          "coding": [
            {
              "code": "2571-8",
              "system": "http://loinc.org",
              "display": "Triglyceride [Mass/volume] in Serum or Plasma"
            }
          ],
          "text": "Triglyceride [Mass/volume] in Serum or Plasma"
        },
        "valueQuantity": {
          "system": "http://unitsofmeasure.org",
          "value": 184.6,
          "unit": "mg/dL",
          "code": "mg/dL"
        },
        "referenceRange": [
          {
            "low": {
              "value": 65,
              "code": "mg/dL",
              "system": "http://unitsofmeasure.org"
            }
          },
          {
            "high": {
              "value": 150,
              "code": "mg/dL",
              "system": "http://unitsofmeasure.org"
            }
          }
        ],
        "interpretation": [
          {
            "coding": [
              {
                "code": "H",
                "system": "http://terminology.hl7.org/CodeSystem/v3-ObservationInterpretation",
                "display": "High"
              }
            ]
          }
        ],
        "status": "final",
        "subject": {
          "reference": "urn:uuid:965873a8-94e7-4156-bf48-eadaf857a433"
        },
        "effectiveDateTime": "2024-11-18",
        "specimen": {
          "reference": "urn:uuid:4bea8fcf-98cb-4b09-82f4-4e8119be6144"
        }
      }
    },
    {
      "fullUrl": "urn:uuid:cc6b749e-a899-4c4c-8f88-fc94bf00b1bf",
      "resource": {
        "resourceType": "Observation",
        "id": "cc6b749e-a899-4c4c-8f88-fc94bf00b1bf",
        "meta": {
          "profile": [
            "http://hl7.eu/fhir/laboratory/StructureDefinition/Observation-resultslab-eu-lab"
          ]
        },
        "performer": [
          {
            "display": "The Central European Lab"
          }
        ],
        "category": [
          {
            "coding": [
              {
                "code": "laboratory",
                "system": "http://terminology.hl7.org/CodeSystem/observation-category"
              }
            ]
          }
        ],
        "code": {
          "coding": [
            {
              "code": "18262-6",
              "system": "http://loinc.org",
              "display": "Cholesterol in LDL [Mass/volume] in Serum or Plasma by Direct assay"
            }
          ],
          "text": "Cholesterol in LDL [Mass/volume] in Serum or Plasma by Direct assay"
        },
        "valueQuantity": {
          "system": "http://unitsofmeasure.org",
          "value": 102.2,
          "unit": "mg/dL",
          "code": "mg/dL"
        },
        "referenceRange": [
          {
            "low": {
              "value": 0,
              "code": "mg/dL",
              "system": "http://unitsofmeasure.org"
            }
          },
          {
            "high": {
              "value": 130,
              "code": "mg/dL",
              "system": "http://unitsofmeasure.org"
            }
          }
        ],
        "status": "final",
        "subject": {
          "reference": "urn:uuid:965873a8-94e7-4156-bf48-eadaf857a433"
        },
        "effectiveDateTime": "2024-11-18",
        "specimen": {
          "reference": "urn:uuid:4bea8fcf-98cb-4b09-82f4-4e8119be6144"
        }
      }
    },
    {
      "fullUrl": "urn:uuid:8d0e7c7d-6312-4fe2-8a03-3d8d308beb52",
      "resource": {
        "resourceType": "Observation",
        "id": "8d0e7c7d-6312-4fe2-8a03-3d8d308beb52",
        "meta": {
          "profile": [
            "http://hl7.eu/fhir/laboratory/StructureDefinition/Observation-resultslab-eu-lab"
          ]
        },
        "performer": [
          {
            "display": "The Central European Lab"
          }
        ],
        "category": [
          {
            "coding": [
              {
                "code": "laboratory",
                "system": "http://terminology.hl7.org/CodeSystem/observation-category"
              }
            ]
          }
        ],
        "code": {
          "coding": [
            {
              "code": "2085-9",
              "system": "http://loinc.org",
              "display": "Cholesterol in HDL [Mass/volume] in Serum or Plasma"
            }
          ],
          "text": "Cholesterol in HDL [Mass/volume] in Serum or Plasma"
        },
        "valueQuantity": {
          "system": "http://unitsofmeasure.org",
          "value": 67.2,
          "unit": "mg/dL",
          "code": "mg/dL"
        },
        "referenceRange": [
          {
            "low": {
              "value": 40,
              "code": "mg/dL",
              "system": "http://unitsofmeasure.org"
            }
          },
          {
            "high": {
              "value": 100,
              "code": "mg/dL",
              "system": "http://unitsofmeasure.org"
            }
          }
        ],
        "status": "final",
        "subject": {
          "reference": "urn:uuid:965873a8-94e7-4156-bf48-eadaf857a433"
        },
        "effectiveDateTime": "2024-11-18",
        "specimen": {
          "reference": "urn:uuid:4bea8fcf-98cb-4b09-82f4-4e8119be6144"
        }
      }
    }
  ],
  "type": "document",
  "timestamp": "2024-11-19T18:39:21Z"
}
