<Bundle xmlns="http://hl7.org/fhir">
   <id value="Instance-Bundle-6214da54-ae16-4dc8-a08a-ff2906d56833"/>
   <meta>
      <profile value="http://hl7.eu/fhir/laboratory/StructureDefinition/Bundle-eu-lab"/>
   </meta>
   <identifier>
      <system value="urn:oid:2.16.840.1.113883.2.51.999"/>
      <value value="1b46e464-6db2-4347-a33f-95363b112647"/>
      <assigner>
         <display value="HL7 Europe"/>
      </assigner>
   </identifier>
   <type value="document"/>
   <timestamp value="2024-11-19T18:43:06Z"/>
   <entry>
      <fullUrl value="urn:uuid:f8299e80-c92a-4f5a-b985-347af0802667"/>
      <resource>
         <Composition>
            <id value="f8299e80-c92a-4f5a-b985-347af0802667"/>
            <meta>
               <profile value="http://hl7.eu/fhir/laboratory/StructureDefinition/Composition-eu-lab"/>
            </meta>
            <identifier>
               <system value="urn:oid:2.16.840.1.113883.2.51.999"/>
               <value value="a8291dfb-5e8e-4cf1-91a9-0da36a3354c9"/>
               <assigner>
                  <display value="HL7 Europe"/>
               </assigner>
            </identifier>
            <status value="final"/>
            <type>
               <text value="Laboratory Report"/>
            </type>
            <category>
               <coding>
                  <system value="http://loinc.org"/>
                  <code value="26436-6"/>
                  <display value="Laboratory studies (set)"/>
               </coding>
            </category>
            <subject>
               <reference value="urn:uuid:debb81b9-8de6-4b84-9a3f-e729c9f51c45"/>
            </subject>
            <date value="2024-11-19T18:43:06Z"/>
            <author>
               <reference value="urn:uuid:587d7677-d442-47fb-b3d9-0136f332db50"/>
            </author>
            <title value="Laboratory Report"/>
            <confidentiality value="N"/>
            <section>
               <title value="Laboratory Report"/>
               <code>
                  <coding>
                     <system value="http://loinc.org"/>
                     <code value="26436-6"/>
                     <display value="Laboratory studies (set)"/>
                  </coding>
                  <text value="Laboratory studies"/>
               </code>
               <section>
                  <title value="Hematology"/>
                  <code>
                     <coding>
                        <system value="http://loinc.org"/>
                        <code value="18723-7"/>
                        <display value="Hematology studies (set)"/>
                     </coding>
                     <text value="Hematology"/>
                  </code>
                  <text>
                     <status value="generated"/>
                     <div xmlns="http://www.w3.org/1999/xhtml">
                        <h3 id="section-1">Hematology</h3>
                        <table class="hl7__eu__lab__report">
                           <thead>
                              <tr>
                                 <th>Test</th>
                                 <th>18 Nov 2024</th>
                                 <th>Reference Range</th>
                                 <th>Unit</th>
                              </tr>
                           </thead>
                           <tbody>
                              <tr>
                                 <td>Leukocytes [#/volume] in Blood by Automated count</td>
                                 <td>3.8</td>
                                 <td>3.4 - 10.6</td>
                                 <td>10*3/uL</td>
                              </tr>
                              <tr>
                                 <td>Erythrocytes [#/volume] in Blood by Automated count</td>
                                 <td>5.0</td>
                                 <td>4.5 - 5.2</td>
                                 <td>10*6/uL</td>
                              </tr>
                              <tr>
                                 <td>Hemoglobin [Mass/volume] in Blood</td>
                                 <td>
                                    <strong>11.5 L</strong>
                                 </td>
                                 <td>12 - 16</td>
                                 <td>g/dL</td>
                              </tr>
                              <tr>
                                 <td>Hematocrit [Volume Fraction] of Blood by Automated count</td>
                                 <td>46.2</td>
                                 <td>36 - 48</td>
                                 <td>%</td>
                              </tr>
                              <tr>
                                 <td>MCV [Entitic volume] by Automated count</td>
                                 <td>89.1</td>
                                 <td>82 - 98</td>
                                 <td>fL</td>
                              </tr>
                              <tr>
                                 <td>MCH [Entitic mass] by Automated count</td>
                                 <td>30.3</td>
                                 <td>27 - 34</td>
                                 <td>pg</td>
                              </tr>
                              <tr>
                                 <td>MCHC [Mass/volume] by Automated count</td>
                                 <td>33.9</td>
                                 <td>31 - 35</td>
                                 <td>g/dL</td>
                              </tr>
                              <tr>
                                 <td>Erythrocyte distribution width [Ratio] by Automated count</td>
                                 <td>14.4</td>
                                 <td>11.6 - 16.5</td>
                                 <td>%</td>
                              </tr>
                              <tr>
                                 <td>Platelets [#/volume] in Blood by Automated count</td>
                                 <td>
                                    <strong>134.8 L</strong>
                                 </td>
                                 <td>150 - 450</td>
                                 <td>10*3/uL</td>
                              </tr>
                              <tr>
                                 <td>Neutrophils/100 leukocytes in Blood by Automated count</td>
                                 <td>
                                    <strong>23.7 L</strong>
                                 </td>
                                 <td>40 - 70</td>
                                 <td>%</td>
                              </tr>
                              <tr>
                                 <td>Lymphocytes/100 leukocytes in Blood by Automated count</td>
                                 <td>20.8</td>
                                 <td>20 - 40</td>
                                 <td>%</td>
                              </tr>
                              <tr>
                                 <td>Monocytes/100 leukocytes in Blood by Automated count</td>
                                 <td>9.1</td>
                                 <td>2 - 11</td>
                                 <td>%</td>
                              </tr>
                              <tr>
                                 <td>Eosinophils/100 leukocytes in Blood by Automated count</td>
                                 <td>5.0</td>
                                 <td>0 - 7</td>
                                 <td>%</td>
                              </tr>
                              <tr>
                                 <td>Basophils/100 leukocytes in Blood by Automated count</td>
                                 <td>
                                    <strong>3.4 H</strong>
                                 </td>
                                 <td>0 - 1</td>
                                 <td>%</td>
                              </tr>
                              <tr>
                                 <td>Neutrophils [#/volume] in Blood by Automated count</td>
                                 <td>
                                    <strong>1.6 L</strong>
                                 </td>
                                 <td>2 - 7.7</td>
                                 <td>10*3/uL</td>
                              </tr>
                              <tr>
                                 <td>Lymphocytes [#/volume] in Blood by Automated count</td>
                                 <td>1.2</td>
                                 <td>0.7 - 3.4</td>
                                 <td>10*3/uL</td>
                              </tr>
                              <tr>
                                 <td>Monocytes [#/volume] in Blood by Automated count</td>
                                 <td>0.7</td>
                                 <td>0.1 - 0.9</td>
                                 <td>10*3/uL</td>
                              </tr>
                              <tr>
                                 <td>Eosinophils [#/volume] in Blood by Automated count</td>
                                 <td>0.4</td>
                                 <td>0 - 0.7</td>
                                 <td>10*3/uL</td>
                              </tr>
                              <tr>
                                 <td>Basophils [#/volume] in Blood by Automated count</td>
                                 <td>0.2</td>
                                 <td>0.1 - 0.3</td>
                                 <td>10*3/uL</td>
                              </tr>
                              <tr>
                                 <td>Leukocytes [#/volume] in Blood by Automated count</td>
                                 <td>3.5</td>
                                 <td>3.5 - 10.5</td>
                                 <td>10*3/uL</td>
                              </tr>
                              <tr>
                                 <td>Erythrocytes [#/volume] in Blood by Automated count</td>
                                 <td>5.1</td>
                                 <td>4.5 - 5.5</td>
                                 <td>10*6/uL</td>
                              </tr>
                              <tr>
                                 <td>Hemoglobin [Mass/volume] in Blood</td>
                                 <td>
                                    <strong>11.2 L</strong>
                                 </td>
                                 <td>12.1 - 15.5</td>
                                 <td>g/dL</td>
                              </tr>
                              <tr>
                                 <td>Hematocrit [Volume Fraction] of Blood by Automated count</td>
                                 <td>45.7</td>
                                 <td>35 - 52</td>
                                 <td>%</td>
                              </tr>
                              <tr>
                                 <td>MCV [Entitic volume] by Automated count</td>
                                 <td>83.6</td>
                                 <td>82 - 98</td>
                                 <td>fL</td>
                              </tr>
                              <tr>
                                 <td>MCH [Entitic mass] by Automated count</td>
                                 <td>29.5</td>
                                 <td>27 - 34</td>
                                 <td>pg</td>
                              </tr>
                              <tr>
                                 <td>MCHC [Mass/volume] by Automated count</td>
                                 <td>33.5</td>
                                 <td>31 - 35</td>
                                 <td>g/dL</td>
                              </tr>
                              <tr>
                                 <td>Erythrocyte distribution width [Ratio] by Automated count</td>
                                 <td>15.2</td>
                                 <td>11.5 - 16.5</td>
                                 <td>%</td>
                              </tr>
                              <tr>
                                 <td>Platelets [#/volume] in Blood by Automated count</td>
                                 <td>
                                    <strong>131.7 L</strong>
                                 </td>
                                 <td>150 - 400</td>
                                 <td>10*3/uL</td>
                              </tr>
                              <tr>
                                 <td>Neutrophils/100 leukocytes in Blood by Automated count</td>
                                 <td>41.7</td>
                                 <td>40 - 74.3</td>
                                 <td>%</td>
                              </tr>
                              <tr>
                                 <td>Lymphocytes/100 leukocytes in Blood by Automated count</td>
                                 <td>21.5</td>
                                 <td>18 - 48</td>
                                 <td>%</td>
                              </tr>
                              <tr>
                                 <td>Monocytes/100 leukocytes in Blood by Automated count</td>
                                 <td>9.2</td>
                                 <td>2 - 11</td>
                                 <td>%</td>
                              </tr>
                              <tr>
                                 <td>Eosinophils/100 leukocytes in Blood by Automated count</td>
                                 <td>4.1</td>
                                 <td>0 - 7</td>
                                 <td>%</td>
                              </tr>
                              <tr>
                                 <td>Basophils/100 leukocytes in Blood by Automated count</td>
                                 <td>2.6</td>
                                 <td>0.5 - 3</td>
                                 <td>%</td>
                              </tr>
                              <tr>
                                 <td>Neutrophils [#/volume] in Blood by Automated count</td>
                                 <td>2.2</td>
                                 <td>2 - 7.7</td>
                                 <td>10*3/uL</td>
                              </tr>
                              <tr>
                                 <td>Lymphocytes [#/volume] in Blood by Automated count</td>
                                 <td>1.2</td>
                                 <td>0.7 - 3.4</td>
                                 <td>10*3/uL</td>
                              </tr>
                              <tr>
                                 <td>Monocytes [#/volume] in Blood by Automated count</td>
                                 <td>
                                    <strong>1.1 H</strong>
                                 </td>
                                 <td>0.7 - 0.9</td>
                                 <td>10*3/uL</td>
                              </tr>
                              <tr>
                                 <td>Eosinophils [#/volume] in Blood by Automated count</td>
                                 <td>0.4</td>
                                 <td>0 - 0.7</td>
                                 <td>10*3/uL</td>
                              </tr>
                              <tr>
                                 <td>Basophils [#/volume] in Blood by Automated count</td>
                                 <td>0.3</td>
                                 <td>0 - 0.3</td>
                                 <td>10*3/uL</td>
                              </tr>
                           </tbody>
                        </table>
                     </div>
                  </text>
                  <entry>
                     <reference value="urn:uuid:0aac565b-2dd2-4be0-bc23-372c459d0414"/>
                  </entry>
                  <entry>
                     <reference value="urn:uuid:720158c0-cbca-47cd-98c8-6b1e42dae12c"/>
                  </entry>
                  <entry>
                     <reference value="urn:uuid:1e37bb94-06d3-4aec-afeb-9829691e490f"/>
                  </entry>
                  <entry>
                     <reference value="urn:uuid:5beb241e-cb99-4b26-b321-7d0fe0b2861f"/>
                  </entry>
                  <entry>
                     <reference value="urn:uuid:42d98d4b-ed3a-46d7-b711-5afd299cb46a"/>
                  </entry>
                  <entry>
                     <reference value="urn:uuid:bce5a495-045b-4ffc-afcf-55faee0ee414"/>
                  </entry>
                  <entry>
                     <reference value="urn:uuid:381ae684-1fda-4143-a1d2-9ec49305d35a"/>
                  </entry>
                  <entry>
                     <reference value="urn:uuid:763fc27b-bb7e-4224-ab80-7d5a834f1da7"/>
                  </entry>
                  <entry>
                     <reference value="urn:uuid:00b09ade-baa1-4b33-af7f-87d62a37bce9"/>
                  </entry>
                  <entry>
                     <reference value="urn:uuid:8e5fd062-f1b2-4418-9e05-ae3fe90815fa"/>
                  </entry>
                  <entry>
                     <reference value="urn:uuid:fc4e9f37-6e86-4d48-aeb3-4b4a9834b599"/>
                  </entry>
                  <entry>
                     <reference value="urn:uuid:5bc9a380-60a5-4559-9969-d628f575d935"/>
                  </entry>
                  <entry>
                     <reference value="urn:uuid:3e343d0c-c676-4c80-bac5-5845f53b7a35"/>
                  </entry>
                  <entry>
                     <reference value="urn:uuid:40c9be55-ef94-412a-88f4-5b898fb7703b"/>
                  </entry>
                  <entry>
                     <reference value="urn:uuid:441843a7-f0b5-47bd-a9c4-00499f43ed6f"/>
                  </entry>
                  <entry>
                     <reference value="urn:uuid:17151a25-7854-4dd0-bd6e-096f8ea479a4"/>
                  </entry>
                  <entry>
                     <reference value="urn:uuid:07d3a716-59bc-4de2-95fa-72d51367aeba"/>
                  </entry>
                  <entry>
                     <reference value="urn:uuid:dc19a67c-7e45-475e-a3de-89b8698bf3cd"/>
                  </entry>
                  <entry>
                     <reference value="urn:uuid:dba4d539-7a79-43e3-b140-aa79b566b1a6"/>
                  </entry>
                  <entry>
                     <reference value="urn:uuid:f1a3b8d5-8c59-4d43-802d-1df57a2fcae4"/>
                  </entry>
                  <entry>
                     <reference value="urn:uuid:b00c2daa-ff39-45ef-8c51-003d3bbbeb89"/>
                  </entry>
                  <entry>
                     <reference value="urn:uuid:f77850f4-4f1e-4c0a-9f83-115ef72931f8"/>
                  </entry>
                  <entry>
                     <reference value="urn:uuid:adaf3ea1-301c-4ac2-917d-335aab17baba"/>
                  </entry>
                  <entry>
                     <reference value="urn:uuid:929cea84-dbe5-4049-a376-ba3be4ae4311"/>
                  </entry>
                  <entry>
                     <reference value="urn:uuid:b08da06e-f65f-426a-925e-729d8005e9f1"/>
                  </entry>
                  <entry>
                     <reference value="urn:uuid:51a5bc47-8872-475f-81c5-b74a2419b381"/>
                  </entry>
                  <entry>
                     <reference value="urn:uuid:e386bfca-134d-4fe9-ab00-3c4c076d34d6"/>
                  </entry>
                  <entry>
                     <reference value="urn:uuid:e5eb6311-fefa-4641-9a39-db876feec0cd"/>
                  </entry>
                  <entry>
                     <reference value="urn:uuid:3a7b3bf2-9015-4f48-a0f6-226bbe69ffc3"/>
                  </entry>
                  <entry>
                     <reference value="urn:uuid:e6a6d188-4a98-4e8b-a101-67ca0817dbf5"/>
                  </entry>
                  <entry>
                     <reference value="urn:uuid:730ce422-b770-43e2-b831-27001e743a9a"/>
                  </entry>
                  <entry>
                     <reference value="urn:uuid:aed2f538-4c4c-4fc4-94ae-b3d647f9e6c8"/>
                  </entry>
                  <entry>
                     <reference value="urn:uuid:21909b0e-5088-49be-9afa-ef592ba84143"/>
                  </entry>
                  <entry>
                     <reference value="urn:uuid:1beb645c-8043-4a18-800f-a7e8c2e11569"/>
                  </entry>
                  <entry>
                     <reference value="urn:uuid:b82c4e32-a0c7-4895-84c2-50298c14373c"/>
                  </entry>
                  <entry>
                     <reference value="urn:uuid:7b2ebcb5-5836-4de6-a6be-3a55bae7f4d0"/>
                  </entry>
                  <entry>
                     <reference value="urn:uuid:a4ec47db-ee16-40de-ace4-85664fdb1703"/>
                  </entry>
                  <entry>
                     <reference value="urn:uuid:be6e0405-5b8c-4073-8805-3c9d2be11a1b"/>
                  </entry>
               </section>
               <section>
                  <title value="Chemistry"/>
                  <code>
                     <coding>
                        <system value="http://loinc.org"/>
                        <code value="18719-5"/>
                        <display value="Chemistry studies (set)"/>
                     </coding>
                     <text value="Chemistry"/>
                  </code>
                  <text>
                     <status value="generated"/>
                     <div xmlns="http://www.w3.org/1999/xhtml">
                        <h3 id="section-2">Chemistry</h3>
                        <table class="hl7__eu__lab__report">
                           <thead>
                              <tr>
                                 <th>Test</th>
                                 <th>18 Nov 2024</th>
                                 <th>Reference Range</th>
                                 <th>Unit</th>
                              </tr>
                           </thead>
                           <tbody>
                              <tr>
                                 <td>Oxygen saturation in Arterial blood</td>
                                 <td>
                                    <strong>81.1 L</strong>
                                 </td>
                                 <td>95 - 100</td>
                                 <td>%</td>
                              </tr>
                              <tr>
                                 <td>Glucose [Mass/volume] in Serum or Plasma</td>
                                 <td>89.6</td>
                                 <td>70 - 99</td>
                                 <td>mg/dL</td>
                              </tr>
                              <tr>
                                 <td>Urea nitrogen [Mass/volume] in Serum or Plasma</td>
                                 <td>7.2</td>
                                 <td>7 - 20</td>
                                 <td>mg/dL</td>
                              </tr>
                              <tr>
                                 <td>Creatinine [Mass/volume] in Serum or Plasma</td>
                                 <td>
                                    <strong>2.6 H</strong>
                                 </td>
                                 <td>0.6 - 1.1</td>
                                 <td>mg/dL</td>
                              </tr>
                              <tr>
                                 <td>Calcium [Mass/volume] in Serum or Plasma</td>
                                 <td>10.0</td>
                                 <td>8.5 - 10.4</td>
                                 <td>mg/dL</td>
                              </tr>
                              <tr>
                                 <td>Sodium [Moles/volume] in Serum or Plasma</td>
                                 <td>136.9</td>
                                 <td>135 - 145</td>
                                 <td>mmol/L</td>
                              </tr>
                              <tr>
                                 <td>Potassium [Moles/volume] in Serum or Plasma</td>
                                 <td>4.6</td>
                                 <td>3.5 - 5.1</td>
                                 <td>mmol/L</td>
                              </tr>
                              <tr>
                                 <td>Chloride [Moles/volume] in Serum or Plasma</td>
                                 <td>108.0</td>
                                 <td>98 - 110</td>
                                 <td>mmol/L</td>
                              </tr>
                              <tr>
                                 <td>Carbon dioxide, total [Moles/volume] in Serum or Plasma</td>
                                 <td>
                                    <strong>20.5 L</strong>
                                 </td>
                                 <td>22 - 29</td>
                                 <td>mmol/L</td>
                              </tr>
                              <tr>
                                 <td>Protein [Mass/volume] in Serum or Plasma</td>
                                 <td>6.0</td>
                                 <td>6 - 8.3</td>
                                 <td>g/dL</td>
                              </tr>
                              <tr>
                                 <td>Albumin [Mass/volume] in Serum or Plasma</td>
                                 <td>3.6</td>
                                 <td>3.4 - 5</td>
                                 <td>g/dL</td>
                              </tr>
                              <tr>
                                 <td>Bilirubin.total [Mass/volume] in Serum or Plasma</td>
                                 <td>
                                    <strong>8.3 H</strong>
                                 </td>
                                 <td>0.3 - 1.2</td>
                                 <td>mg/dL</td>
                              </tr>
                              <tr>
                                 <td>Alkaline phosphatase [Enzymatic activity/volume] in Serum or Plasma</td>
                                 <td>79.3</td>
                                 <td>53 - 117</td>
                                 <td>U/L</td>
                              </tr>
                              <tr>
                                 <td>Alanine aminotransferase [Enzymatic activity/volume] in Serum or Plasma</td>
                                 <td>23.9</td>
                                 <td>7 - 55</td>
                                 <td>U/L</td>
                              </tr>
                              <tr>
                                 <td>Aspartate aminotransferase [Enzymatic activity/volume] in Serum or Plasma</td>
                                 <td>27.1</td>
                                 <td>10 - 33</td>
                                 <td>U/L</td>
                              </tr>
                              <tr>
                                 <td>Oxygen saturation in Arterial blood</td>
                                 <td>
                                    <strong>80.3 L</strong>
                                 </td>
                                 <td>95 - 100</td>
                                 <td>%</td>
                              </tr>
                              <tr>
                                 <td>Glucose [Mass/volume] in Serum or Plasma</td>
                                 <td>89.6</td>
                                 <td>70 - 99</td>
                                 <td>mg/dL</td>
                              </tr>
                              <tr>
                                 <td>Urea nitrogen [Mass/volume] in Serum or Plasma</td>
                                 <td>7.2</td>
                                 <td>7 - 20</td>
                                 <td>mg/dL</td>
                              </tr>
                              <tr>
                                 <td>Creatinine [Mass/volume] in Serum or Plasma</td>
                                 <td>
                                    <strong>2.8 H</strong>
                                 </td>
                                 <td>0.6 - 1.1</td>
                                 <td>mg/dL</td>
                              </tr>
                              <tr>
                                 <td>Calcium [Mass/volume] in Serum or Plasma</td>
                                 <td>10.0</td>
                                 <td>8.5 - 10.4</td>
                                 <td>mg/dL</td>
                              </tr>
                              <tr>
                                 <td>Sodium [Moles/volume] in Serum or Plasma</td>
                                 <td>136.9</td>
                                 <td>135 - 145</td>
                                 <td>mmol/L</td>
                              </tr>
                              <tr>
                                 <td>Potassium [Moles/volume] in Serum or Plasma</td>
                                 <td>4.6</td>
                                 <td>3.5 - 5.1</td>
                                 <td>mmol/L</td>
                              </tr>
                              <tr>
                                 <td>Chloride [Moles/volume] in Serum or Plasma</td>
                                 <td>108.0</td>
                                 <td>98 - 110</td>
                                 <td>mmol/L</td>
                              </tr>
                              <tr>
                                 <td>Carbon dioxide, total [Moles/volume] in Serum or Plasma</td>
                                 <td>
                                    <strong>20.5 L</strong>
                                 </td>
                                 <td>22 - 29</td>
                                 <td>mmol/L</td>
                              </tr>
                              <tr>
                                 <td>Protein [Mass/volume] in Serum or Plasma</td>
                                 <td>7.2</td>
                                 <td>6 - 8.3</td>
                                 <td>g/dL</td>
                              </tr>
                              <tr>
                                 <td>Albumin [Mass/volume] in Serum or Plasma</td>
                                 <td>4.8</td>
                                 <td>3.5 - 5.5</td>
                                 <td>g/dL</td>
                              </tr>
                              <tr>
                                 <td>Bilirubin.total [Mass/volume] in Serum or Plasma</td>
                                 <td>
                                    <strong>13.3 H</strong>
                                 </td>
                                 <td>0.3 - 1.2</td>
                                 <td>mg/dL</td>
                              </tr>
                              <tr>
                                 <td>Alkaline phosphatase [Enzymatic activity/volume] in Serum or Plasma</td>
                                 <td>84.4</td>
                                 <td>44 - 136</td>
                                 <td>U/L</td>
                              </tr>
                              <tr>
                                 <td>Alanine aminotransferase [Enzymatic activity/volume] in Serum or Plasma</td>
                                 <td>17.8</td>
                                 <td>7 - 55</td>
                                 <td>U/L</td>
                              </tr>
                              <tr>
                                 <td>Aspartate aminotransferase [Enzymatic activity/volume] in Serum or Plasma</td>
                                 <td>
                                    <strong>8.3 L</strong>
                                 </td>
                                 <td>10 - 40</td>
                                 <td>U/L</td>
                              </tr>
                              <tr>
                                 <td>Ferritin [Mass/volume] in Serum or Plasma</td>
                                 <td>
                                    <strong>637.6 H</strong>
                                 </td>
                                 <td>10 - 400</td>
                                 <td>ug/L</td>
                              </tr>
                              <tr>
                                 <td>Troponin I.cardiac [Mass/volume] in Serum or Plasma by High sensitivity method</td>
                                 <td>4.1</td>
                                 <td>0 - 19.9</td>
                                 <td>pg/mL</td>
                              </tr>
                              <tr>
                                 <td>Lactate dehydrogenase [Enzymatic activity/volume] in Serum or Plasma by Lactate to pyruvate reaction</td>
                                 <td>293.1</td>
                                 <td>124 - 333</td>
                                 <td>U/L</td>
                              </tr>
                              <tr>
                                 <td>Creatine kinase [Enzymatic activity/volume] in Serum or Plasma</td>
                                 <td>41.9</td>
                                 <td>30 - 130</td>
                                 <td>U/L</td>
                              </tr>
                              <tr>
                                 <td>C reactive protein [Mass/volume] in Serum or Plasma</td>
                                 <td>
                                    <strong>11.9 H</strong>
                                 </td>
                                 <td>0 - 10</td>
                                 <td>mg/L</td>
                              </tr>
                              <tr>
                                 <td>Procalcitonin [Mass/volume] in Serum or Plasma</td>
                                 <td>0.1</td>
                                 <td>0 - 0.5</td>
                                 <td>ng/mL</td>
                              </tr>
                           </tbody>
                        </table>
                     </div>
                  </text>
                  <entry>
                     <reference value="urn:uuid:69c37dc0-a9f7-4a2e-bf64-3dfb04f91c8c"/>
                  </entry>
                  <entry>
                     <reference value="urn:uuid:89b91a6c-b465-4843-ae1c-95197d7daacb"/>
                  </entry>
                  <entry>
                     <reference value="urn:uuid:f7f821cf-1df9-4b3e-a1f8-687ad0f67037"/>
                  </entry>
                  <entry>
                     <reference value="urn:uuid:9a8401f3-9277-4328-9be1-c55065081a2b"/>
                  </entry>
                  <entry>
                     <reference value="urn:uuid:ef640169-58f9-43a1-8249-4d08674b95e1"/>
                  </entry>
                  <entry>
                     <reference value="urn:uuid:aa42b0ba-380d-417c-8336-316a51e97dff"/>
                  </entry>
                  <entry>
                     <reference value="urn:uuid:46d2b2e8-e9a2-44c9-a410-5d5cd3c85688"/>
                  </entry>
                  <entry>
                     <reference value="urn:uuid:a2502e6c-faf7-4c24-8ce9-3c8d056599f7"/>
                  </entry>
                  <entry>
                     <reference value="urn:uuid:462b29f2-8dd2-48ff-8b54-143f0be551ec"/>
                  </entry>
                  <entry>
                     <reference value="urn:uuid:d88d416e-4002-478d-aea3-03cb45420433"/>
                  </entry>
                  <entry>
                     <reference value="urn:uuid:8c2e4d21-d345-43d0-ad9f-f63a95840f01"/>
                  </entry>
                  <entry>
                     <reference value="urn:uuid:2241422b-1bf5-473d-8ebc-57d00ea78776"/>
                  </entry>
                  <entry>
                     <reference value="urn:uuid:540ec794-d226-4192-933c-8d45d66535d7"/>
                  </entry>
                  <entry>
                     <reference value="urn:uuid:7a4f0757-a288-4730-af2b-29c61d27af9f"/>
                  </entry>
                  <entry>
                     <reference value="urn:uuid:c208506d-e61e-4406-b235-eea687892591"/>
                  </entry>
                  <entry>
                     <reference value="urn:uuid:432d7fcd-4b74-44dc-9d37-5f11726cbf95"/>
                  </entry>
                  <entry>
                     <reference value="urn:uuid:19e1b867-2885-49fc-9a97-60047b169cd2"/>
                  </entry>
                  <entry>
                     <reference value="urn:uuid:48877c99-e777-4a75-a374-a7c874e09e58"/>
                  </entry>
                  <entry>
                     <reference value="urn:uuid:6ec16495-b560-4f85-adfe-04bfc2e369eb"/>
                  </entry>
                  <entry>
                     <reference value="urn:uuid:fd6f6a38-01c6-4126-b6ea-53cacd44c9f2"/>
                  </entry>
                  <entry>
                     <reference value="urn:uuid:8f02044c-4209-4b13-b0ae-3d3d525fb975"/>
                  </entry>
                  <entry>
                     <reference value="urn:uuid:42d406fc-9825-4b35-a3b9-5ee480ecd81d"/>
                  </entry>
                  <entry>
                     <reference value="urn:uuid:9fccbed3-6681-4d27-a7bb-f1bc71272dfb"/>
                  </entry>
                  <entry>
                     <reference value="urn:uuid:9cefa0fe-8fa7-4ea8-ba1e-8746ac45cab5"/>
                  </entry>
                  <entry>
                     <reference value="urn:uuid:55edd702-3dc4-4b6a-8c44-12b5f896d790"/>
                  </entry>
                  <entry>
                     <reference value="urn:uuid:dbce2efa-4b48-4636-bcb0-a4ae6dec58dd"/>
                  </entry>
                  <entry>
                     <reference value="urn:uuid:c83756e9-5dd5-4c81-acda-0ff3c905763a"/>
                  </entry>
                  <entry>
                     <reference value="urn:uuid:fa869636-ee38-4b0e-9e6a-2fa483ae16e2"/>
                  </entry>
                  <entry>
                     <reference value="urn:uuid:f27f19aa-28c1-4af8-87f5-adb5a4f0f960"/>
                  </entry>
                  <entry>
                     <reference value="urn:uuid:decccbe5-277f-497c-a2d0-e2372a0e3996"/>
                  </entry>
                  <entry>
                     <reference value="urn:uuid:5c40df17-9e5b-4c02-981e-eaff7b83f133"/>
                  </entry>
                  <entry>
                     <reference value="urn:uuid:fc4335d6-63c4-4762-8597-0aaccc330806"/>
                  </entry>
                  <entry>
                     <reference value="urn:uuid:512057c7-1c3c-46b9-abcc-8d08d0a5b834"/>
                  </entry>
                  <entry>
                     <reference value="urn:uuid:1750ceed-4a7f-4847-923c-33d482816e1e"/>
                  </entry>
                  <entry>
                     <reference value="urn:uuid:d898baab-4d10-4e90-be26-03b01e3bd03d"/>
                  </entry>
                  <entry>
                     <reference value="urn:uuid:83769257-b050-46cf-b5b8-5dc1a9d9279d"/>
                  </entry>
               </section>
               <section>
                  <title value="Coagulation"/>
                  <code>
                     <coding>
                        <system value="http://loinc.org"/>
                        <code value="18720-3"/>
                        <display value="Coagulation studies (set)"/>
                     </coding>
                     <text value="Coagulation"/>
                  </code>
                  <text>
                     <status value="generated"/>
                     <div xmlns="http://www.w3.org/1999/xhtml">
                        <h3 id="section-3">Coagulation</h3>
                        <table class="hl7__eu__lab__report">
                           <thead>
                              <tr>
                                 <th>Test</th>
                                 <th>18 Nov 2024</th>
                                 <th>Reference Range</th>
                                 <th>Unit</th>
                              </tr>
                           </thead>
                           <tbody>
                              <tr>
                                 <td>Fibrin D-dimer FEU [Mass/volume] in Platelet poor plasma</td>
                                 <td>0.5</td>
                                 <td>0 - 0.5</td>
                                 <td>ug/mL</td>
                              </tr>
                              <tr>
                                 <td>Prothrombin time (PT)</td>
                                 <td>
                                    <strong>10.3 L</strong>
                                 </td>
                                 <td>11 - 13.5</td>
                                 <td>s</td>
                              </tr>
                              <tr>
                                 <td>INR in Platelet poor plasma by Coagulation assay</td>
                                 <td>1.2</td>
                                 <td>0.9 - 3</td>
                                 <td>{INR}</td>
                              </tr>
                           </tbody>
                        </table>
                     </div>
                  </text>
                  <entry>
                     <reference value="urn:uuid:f177bcd8-0998-403a-9e47-d909f8164e06"/>
                  </entry>
                  <entry>
                     <reference value="urn:uuid:a37c68e3-f587-40f4-b117-b68dd722934c"/>
                  </entry>
                  <entry>
                     <reference value="urn:uuid:9685084c-754e-437b-ad4c-26c7618ef3e7"/>
                  </entry>
               </section>
            </section>
         </Composition>
      </resource>
   </entry>
   <entry>
      <fullUrl value="urn:uuid:4fb329b9-a242-426a-9922-2625f6c4ac8a"/>
      <resource>
         <DiagnosticReport>
            <id value="4fb329b9-a242-426a-9922-2625f6c4ac8a"/>
            <meta>
               <profile value="http://hl7.eu/fhir/laboratory/StructureDefinition/DiagnosticReport-eu-lab"/>
            </meta>
            <extension url="http://hl7.org/fhir/5.0/StructureDefinition/extension-DiagnosticReport.composition">
               <valueReference>
                  <reference value="urn:uuid:f8299e80-c92a-4f5a-b985-347af0802667"/>
               </valueReference>
            </extension>
            <identifier>
               <system value="urn:oid:2.16.840.1.113883.2.51.999"/>
               <value value="01ccd36c-454e-4b3b-8b97-655ba5f895d2"/>
               <assigner>
                  <display value="HL7 Europe"/>
               </assigner>
            </identifier>
            <status value="registered"/>
            <category>
               <coding>
                  <system value="http://loinc.org"/>
                  <code value="18719-5"/>
                  <display value="Chemistry studies (set)"/>
               </coding>
            </category>
            <code>
               <coding>
                  <system value="http://loinc.org"/>
                  <code value="11502-2"/>
                  <display value="Laboratory report"/>
               </coding>
            </code>
            <subject>
               <reference value="urn:uuid:debb81b9-8de6-4b84-9a3f-e729c9f51c45"/>
            </subject>
            <specimen>
               <reference value="urn:uuid:71558956-12f2-4b3b-99cd-7236bfe9e287"/>
            </specimen>
            <specimen>
               <reference value="urn:uuid:4d6800a3-19ff-4638-b3b7-352bdf385c42"/>
            </specimen>
            <specimen>
               <reference value="urn:uuid:6dd34182-7866-4bd8-8224-3ac90f4d0d5c"/>
            </specimen>
            <specimen>
               <reference value="urn:uuid:4eeabcfa-cf03-4e9f-be01-64dd9fa96d5b"/>
            </specimen>
            <specimen>
               <reference value="urn:uuid:e6f0dccd-3b4b-4e63-aac5-e2ae9de89622"/>
            </specimen>
            <result>
               <reference value="urn:uuid:69c37dc0-a9f7-4a2e-bf64-3dfb04f91c8c"/>
            </result>
            <result>
               <reference value="urn:uuid:0aac565b-2dd2-4be0-bc23-372c459d0414"/>
            </result>
            <result>
               <reference value="urn:uuid:720158c0-cbca-47cd-98c8-6b1e42dae12c"/>
            </result>
            <result>
               <reference value="urn:uuid:1e37bb94-06d3-4aec-afeb-9829691e490f"/>
            </result>
            <result>
               <reference value="urn:uuid:5beb241e-cb99-4b26-b321-7d0fe0b2861f"/>
            </result>
            <result>
               <reference value="urn:uuid:42d98d4b-ed3a-46d7-b711-5afd299cb46a"/>
            </result>
            <result>
               <reference value="urn:uuid:bce5a495-045b-4ffc-afcf-55faee0ee414"/>
            </result>
            <result>
               <reference value="urn:uuid:381ae684-1fda-4143-a1d2-9ec49305d35a"/>
            </result>
            <result>
               <reference value="urn:uuid:763fc27b-bb7e-4224-ab80-7d5a834f1da7"/>
            </result>
            <result>
               <reference value="urn:uuid:00b09ade-baa1-4b33-af7f-87d62a37bce9"/>
            </result>
            <result>
               <reference value="urn:uuid:8e5fd062-f1b2-4418-9e05-ae3fe90815fa"/>
            </result>
            <result>
               <reference value="urn:uuid:fc4e9f37-6e86-4d48-aeb3-4b4a9834b599"/>
            </result>
            <result>
               <reference value="urn:uuid:5bc9a380-60a5-4559-9969-d628f575d935"/>
            </result>
            <result>
               <reference value="urn:uuid:3e343d0c-c676-4c80-bac5-5845f53b7a35"/>
            </result>
            <result>
               <reference value="urn:uuid:40c9be55-ef94-412a-88f4-5b898fb7703b"/>
            </result>
            <result>
               <reference value="urn:uuid:441843a7-f0b5-47bd-a9c4-00499f43ed6f"/>
            </result>
            <result>
               <reference value="urn:uuid:17151a25-7854-4dd0-bd6e-096f8ea479a4"/>
            </result>
            <result>
               <reference value="urn:uuid:07d3a716-59bc-4de2-95fa-72d51367aeba"/>
            </result>
            <result>
               <reference value="urn:uuid:dc19a67c-7e45-475e-a3de-89b8698bf3cd"/>
            </result>
            <result>
               <reference value="urn:uuid:dba4d539-7a79-43e3-b140-aa79b566b1a6"/>
            </result>
            <result>
               <reference value="urn:uuid:89b91a6c-b465-4843-ae1c-95197d7daacb"/>
            </result>
            <result>
               <reference value="urn:uuid:f7f821cf-1df9-4b3e-a1f8-687ad0f67037"/>
            </result>
            <result>
               <reference value="urn:uuid:9a8401f3-9277-4328-9be1-c55065081a2b"/>
            </result>
            <result>
               <reference value="urn:uuid:ef640169-58f9-43a1-8249-4d08674b95e1"/>
            </result>
            <result>
               <reference value="urn:uuid:aa42b0ba-380d-417c-8336-316a51e97dff"/>
            </result>
            <result>
               <reference value="urn:uuid:46d2b2e8-e9a2-44c9-a410-5d5cd3c85688"/>
            </result>
            <result>
               <reference value="urn:uuid:a2502e6c-faf7-4c24-8ce9-3c8d056599f7"/>
            </result>
            <result>
               <reference value="urn:uuid:462b29f2-8dd2-48ff-8b54-143f0be551ec"/>
            </result>
            <result>
               <reference value="urn:uuid:d88d416e-4002-478d-aea3-03cb45420433"/>
            </result>
            <result>
               <reference value="urn:uuid:8c2e4d21-d345-43d0-ad9f-f63a95840f01"/>
            </result>
            <result>
               <reference value="urn:uuid:2241422b-1bf5-473d-8ebc-57d00ea78776"/>
            </result>
            <result>
               <reference value="urn:uuid:540ec794-d226-4192-933c-8d45d66535d7"/>
            </result>
            <result>
               <reference value="urn:uuid:7a4f0757-a288-4730-af2b-29c61d27af9f"/>
            </result>
            <result>
               <reference value="urn:uuid:c208506d-e61e-4406-b235-eea687892591"/>
            </result>
            <result>
               <reference value="urn:uuid:432d7fcd-4b74-44dc-9d37-5f11726cbf95"/>
            </result>
            <result>
               <reference value="urn:uuid:f1a3b8d5-8c59-4d43-802d-1df57a2fcae4"/>
            </result>
            <result>
               <reference value="urn:uuid:b00c2daa-ff39-45ef-8c51-003d3bbbeb89"/>
            </result>
            <result>
               <reference value="urn:uuid:f77850f4-4f1e-4c0a-9f83-115ef72931f8"/>
            </result>
            <result>
               <reference value="urn:uuid:adaf3ea1-301c-4ac2-917d-335aab17baba"/>
            </result>
            <result>
               <reference value="urn:uuid:929cea84-dbe5-4049-a376-ba3be4ae4311"/>
            </result>
            <result>
               <reference value="urn:uuid:b08da06e-f65f-426a-925e-729d8005e9f1"/>
            </result>
            <result>
               <reference value="urn:uuid:51a5bc47-8872-475f-81c5-b74a2419b381"/>
            </result>
            <result>
               <reference value="urn:uuid:e386bfca-134d-4fe9-ab00-3c4c076d34d6"/>
            </result>
            <result>
               <reference value="urn:uuid:e5eb6311-fefa-4641-9a39-db876feec0cd"/>
            </result>
            <result>
               <reference value="urn:uuid:3a7b3bf2-9015-4f48-a0f6-226bbe69ffc3"/>
            </result>
            <result>
               <reference value="urn:uuid:e6a6d188-4a98-4e8b-a101-67ca0817dbf5"/>
            </result>
            <result>
               <reference value="urn:uuid:730ce422-b770-43e2-b831-27001e743a9a"/>
            </result>
            <result>
               <reference value="urn:uuid:aed2f538-4c4c-4fc4-94ae-b3d647f9e6c8"/>
            </result>
            <result>
               <reference value="urn:uuid:21909b0e-5088-49be-9afa-ef592ba84143"/>
            </result>
            <result>
               <reference value="urn:uuid:1beb645c-8043-4a18-800f-a7e8c2e11569"/>
            </result>
            <result>
               <reference value="urn:uuid:b82c4e32-a0c7-4895-84c2-50298c14373c"/>
            </result>
            <result>
               <reference value="urn:uuid:7b2ebcb5-5836-4de6-a6be-3a55bae7f4d0"/>
            </result>
            <result>
               <reference value="urn:uuid:a4ec47db-ee16-40de-ace4-85664fdb1703"/>
            </result>
            <result>
               <reference value="urn:uuid:be6e0405-5b8c-4073-8805-3c9d2be11a1b"/>
            </result>
            <result>
               <reference value="urn:uuid:19e1b867-2885-49fc-9a97-60047b169cd2"/>
            </result>
            <result>
               <reference value="urn:uuid:48877c99-e777-4a75-a374-a7c874e09e58"/>
            </result>
            <result>
               <reference value="urn:uuid:6ec16495-b560-4f85-adfe-04bfc2e369eb"/>
            </result>
            <result>
               <reference value="urn:uuid:fd6f6a38-01c6-4126-b6ea-53cacd44c9f2"/>
            </result>
            <result>
               <reference value="urn:uuid:8f02044c-4209-4b13-b0ae-3d3d525fb975"/>
            </result>
            <result>
               <reference value="urn:uuid:42d406fc-9825-4b35-a3b9-5ee480ecd81d"/>
            </result>
            <result>
               <reference value="urn:uuid:9fccbed3-6681-4d27-a7bb-f1bc71272dfb"/>
            </result>
            <result>
               <reference value="urn:uuid:9cefa0fe-8fa7-4ea8-ba1e-8746ac45cab5"/>
            </result>
            <result>
               <reference value="urn:uuid:55edd702-3dc4-4b6a-8c44-12b5f896d790"/>
            </result>
            <result>
               <reference value="urn:uuid:dbce2efa-4b48-4636-bcb0-a4ae6dec58dd"/>
            </result>
            <result>
               <reference value="urn:uuid:c83756e9-5dd5-4c81-acda-0ff3c905763a"/>
            </result>
            <result>
               <reference value="urn:uuid:fa869636-ee38-4b0e-9e6a-2fa483ae16e2"/>
            </result>
            <result>
               <reference value="urn:uuid:f27f19aa-28c1-4af8-87f5-adb5a4f0f960"/>
            </result>
            <result>
               <reference value="urn:uuid:decccbe5-277f-497c-a2d0-e2372a0e3996"/>
            </result>
            <result>
               <reference value="urn:uuid:f177bcd8-0998-403a-9e47-d909f8164e06"/>
            </result>
            <result>
               <reference value="urn:uuid:5c40df17-9e5b-4c02-981e-eaff7b83f133"/>
            </result>
            <result>
               <reference value="urn:uuid:fc4335d6-63c4-4762-8597-0aaccc330806"/>
            </result>
            <result>
               <reference value="urn:uuid:512057c7-1c3c-46b9-abcc-8d08d0a5b834"/>
            </result>
            <result>
               <reference value="urn:uuid:1750ceed-4a7f-4847-923c-33d482816e1e"/>
            </result>
            <result>
               <reference value="urn:uuid:d898baab-4d10-4e90-be26-03b01e3bd03d"/>
            </result>
            <result>
               <reference value="urn:uuid:a37c68e3-f587-40f4-b117-b68dd722934c"/>
            </result>
            <result>
               <reference value="urn:uuid:9685084c-754e-437b-ad4c-26c7618ef3e7"/>
            </result>
            <result>
               <reference value="urn:uuid:83769257-b050-46cf-b5b8-5dc1a9d9279d"/>
            </result>
         </DiagnosticReport>
      </resource>
   </entry>
   <entry>
      <fullUrl value="urn:uuid:debb81b9-8de6-4b84-9a3f-e729c9f51c45"/>
      <resource>
         <Patient>
            <id value="debb81b9-8de6-4b84-9a3f-e729c9f51c45"/>
            <meta>
               <profile value="http://hl7.eu/fhir/laboratory/StructureDefinition/Patient-eu-lab"/>
            </meta>
            <identifier>
               <type>
                  <coding>
                     <system value="http://terminology.hl7.org/CodeSystem/v2-0203"/>
                     <code value="NI"/>
                  </coding>
               </type>
               <system value="http://ec.europa.eu/identifier/eci"/>
               <value value="9160-934285-1"/>
            </identifier>
            <identifier>
               <type>
                  <coding>
                     <system value="http://terminology.hl7.org/CodeSystem/v2-0203"/>
                     <code value="MR"/>
                  </coding>
               </type>
               <system value="http://local.setting.eu/identifier"/>
               <value value="0bb30c42-2a23-4575-8de5-ec3cc58e2ee7"/>
            </identifier>
            <name>
               <text value="Didiane de Launay"/>
               <family value="de Launay"/>
               <given value="Didiane"/>
            </name>
            <telecom>
               <system value="phone"/>
               <value value="+351 21 217 476 3337"/>
            </telecom>
            <gender value="female"/>
            <birthDate value="1966-09-01"/>
            <address>
               <use value="home"/>
               <type value="physical"/>
               <line value="Plano Integrado 95"/>
               <city value="Arcena"/>
               <postalCode value="2615-243"/>
               <country value="Portugal"/>
            </address>
         </Patient>
      </resource>
   </entry>
   <entry>
      <fullUrl value="urn:uuid:e9d3315c-6f31-4d13-8a6e-d7e0daa6d81e"/>
      <resource>
         <ServiceRequest>
            <id value="e9d3315c-6f31-4d13-8a6e-d7e0daa6d81e"/>
            <meta>
               <profile value="http://hl7.eu/fhir/laboratory/StructureDefinition/ServiceRequest-eu-lab"/>
            </meta>
            <identifier>
               <system value="http://example.org"/>
               <value value="1da8c935-71af-48e1-9fc0-28f57dbfcf10"/>
            </identifier>
            <status value="active"/>
            <intent value="order"/>
            <code>
               <coding>
                  <system value="http://snomed.info/sct"/>
                  <code value="108252007"/>
                  <display value="Laboratory procedure"/>
               </coding>
            </code>
            <subject>
               <reference value="urn:uuid:debb81b9-8de6-4b84-9a3f-e729c9f51c45"/>
            </subject>
            <requester>
               <reference value="urn:uuid:c705101d-e2e9-4ab1-aaba-3250171423bc"/>
            </requester>
            <specimen>
               <reference value="urn:uuid:71558956-12f2-4b3b-99cd-7236bfe9e287"/>
            </specimen>
            <specimen>
               <reference value="urn:uuid:4d6800a3-19ff-4638-b3b7-352bdf385c42"/>
            </specimen>
            <specimen>
               <reference value="urn:uuid:6dd34182-7866-4bd8-8224-3ac90f4d0d5c"/>
            </specimen>
            <specimen>
               <reference value="urn:uuid:4eeabcfa-cf03-4e9f-be01-64dd9fa96d5b"/>
            </specimen>
            <specimen>
               <reference value="urn:uuid:e6f0dccd-3b4b-4e63-aac5-e2ae9de89622"/>
            </specimen>
         </ServiceRequest>
      </resource>
   </entry>
   <entry>
      <fullUrl value="urn:uuid:c705101d-e2e9-4ab1-aaba-3250171423bc"/>
      <resource>
         <PractitionerRole>
            <id value="c705101d-e2e9-4ab1-aaba-3250171423bc"/>
            <meta>
               <profile value="http://hl7.eu/fhir/laboratory/StructureDefinition/PractitionerRole-eu-lab"/>
            </meta>
            <organization>
               <reference value="urn:uuid:196e3fda-d31a-4ab7-8f95-c65523ca7d41"/>
            </organization>
         </PractitionerRole>
      </resource>
   </entry>
   <entry>
      <fullUrl value="urn:uuid:196e3fda-d31a-4ab7-8f95-c65523ca7d41"/>
      <resource>
         <Organization>
            <id value="196e3fda-d31a-4ab7-8f95-c65523ca7d41"/>
            <meta>
               <profile value="http://hl7.org/fhir/uv/ips/StructureDefinition/Organization-uv-ips"/>
            </meta>
            <identifier>
               <system value="urn:oid:2.16.840.1.113883.2.51.999"/>
               <value value="12413aea-d5cd-437d-a712-656cf51fd1dc"/>
               <assigner>
                  <display value="HL7 Europe"/>
               </assigner>
            </identifier>
            <name value="Centro de Sade de Amoreira"/>
            <address>
               <line value="Rua da Mina nan"/>
               <city value="bidos"/>
               <postalCode value="2510-425"/>
               <country value="pt"/>
            </address>
         </Organization>
      </resource>
   </entry>
   <entry>
      <fullUrl value="urn:uuid:587d7677-d442-47fb-b3d9-0136f332db50"/>
      <resource>
         <PractitionerRole>
            <id value="587d7677-d442-47fb-b3d9-0136f332db50"/>
            <meta>
               <profile value="http://hl7.eu/fhir/laboratory/StructureDefinition/PractitionerRole-eu-lab"/>
            </meta>
            <practitioner>
               <reference value="urn:uuid:9651e03c-193d-41ae-a623-75a5d793e720"/>
            </practitioner>
         </PractitionerRole>
      </resource>
   </entry>
   <entry>
      <fullUrl value="urn:uuid:9651e03c-193d-41ae-a623-75a5d793e720"/>
      <resource>
         <Practitioner>
            <id value="9651e03c-193d-41ae-a623-75a5d793e720"/>
            <meta>
               <profile value="http://hl7.eu/fhir/laboratory/StructureDefinition/Practitioner-eu-lab"/>
            </meta>
            <identifier>
               <system value="urn:oid:2.16.840.1.113883.2.51.999"/>
               <value value="a7353a26-333d-487d-be5d-5fc597fa15fd"/>
               <assigner>
                  <display value="HL7 Europe"/>
               </assigner>
            </identifier>
            <name>
               <family value="Ample"/>
               <given value="Ex"/>
               <prefix value="dr"/>
            </name>
            <address>
               <line value="Boulevard du Jardin Botanique 32"/>
               <city value="Brussels"/>
               <postalCode value="1000"/>
            </address>
         </Practitioner>
      </resource>
   </entry>
   <entry>
      <fullUrl value="urn:uuid:71558956-12f2-4b3b-99cd-7236bfe9e287"/>
      <resource>
         <Specimen>
            <id value="71558956-12f2-4b3b-99cd-7236bfe9e287"/>
            <meta>
               <profile value="http://hl7.eu/fhir/laboratory/StructureDefinition/Specimen-eu-lab"/>
            </meta>
            <status value="available"/>
            <type>
               <coding>
                  <system value="http://snomed.info/sct"/>
                  <code value="122552005"/>
                  <display value="Arterial blood specimen (specimen)"/>
               </coding>
            </type>
            <collection>
               <collectedDateTime value="2024-11-18"/>
            </collection>
         </Specimen>
      </resource>
   </entry>
   <entry>
      <fullUrl value="urn:uuid:4d6800a3-19ff-4638-b3b7-352bdf385c42"/>
      <resource>
         <Specimen>
            <id value="4d6800a3-19ff-4638-b3b7-352bdf385c42"/>
            <meta>
               <profile value="http://hl7.eu/fhir/laboratory/StructureDefinition/Specimen-eu-lab"/>
            </meta>
            <status value="available"/>
            <type>
               <coding>
                  <system value="http://snomed.info/sct"/>
                  <code value="258580003"/>
                  <display value="Whole blood specimen (specimen)"/>
               </coding>
            </type>
            <collection>
               <collectedDateTime value="2024-11-18"/>
            </collection>
         </Specimen>
      </resource>
   </entry>
   <entry>
      <fullUrl value="urn:uuid:6dd34182-7866-4bd8-8224-3ac90f4d0d5c"/>
      <resource>
         <Specimen>
            <id value="6dd34182-7866-4bd8-8224-3ac90f4d0d5c"/>
            <meta>
               <profile value="http://hl7.eu/fhir/laboratory/StructureDefinition/Specimen-eu-lab"/>
            </meta>
            <status value="available"/>
            <type>
               <coding>
                  <system value="http://snomed.info/sct"/>
                  <code value="258580003"/>
                  <display value="Whole blood specimen (specimen)"/>
               </coding>
            </type>
            <collection>
               <collectedDateTime value="2024-11-18"/>
            </collection>
         </Specimen>
      </resource>
   </entry>
   <entry>
      <fullUrl value="urn:uuid:4eeabcfa-cf03-4e9f-be01-64dd9fa96d5b"/>
      <resource>
         <Specimen>
            <id value="4eeabcfa-cf03-4e9f-be01-64dd9fa96d5b"/>
            <meta>
               <profile value="http://hl7.eu/fhir/laboratory/StructureDefinition/Specimen-eu-lab"/>
            </meta>
            <status value="available"/>
            <type>
               <coding>
                  <system value="http://snomed.info/sct"/>
                  <code value="122592007"/>
                  <display value="Acellular blood (serum or plasma) specimen (specimen)"/>
               </coding>
            </type>
            <collection>
               <collectedDateTime value="2024-11-18"/>
            </collection>
         </Specimen>
      </resource>
   </entry>
   <entry>
      <fullUrl value="urn:uuid:e6f0dccd-3b4b-4e63-aac5-e2ae9de89622"/>
      <resource>
         <Specimen>
            <id value="e6f0dccd-3b4b-4e63-aac5-e2ae9de89622"/>
            <meta>
               <profile value="http://hl7.eu/fhir/laboratory/StructureDefinition/Specimen-eu-lab"/>
            </meta>
            <status value="available"/>
            <type>
               <coding>
                  <system value="http://snomed.info/sct"/>
                  <code value="119362004"/>
                  <display value="Platelet poor plasma specimen (specimen) "/>
               </coding>
            </type>
            <collection>
               <collectedDateTime value="2024-11-18"/>
            </collection>
         </Specimen>
      </resource>
   </entry>
   <entry>
      <fullUrl value="urn:uuid:69c37dc0-a9f7-4a2e-bf64-3dfb04f91c8c"/>
      <resource>
         <Observation>
            <id value="69c37dc0-a9f7-4a2e-bf64-3dfb04f91c8c"/>
            <meta>
               <profile value="http://hl7.eu/fhir/laboratory/StructureDefinition/Observation-resultslab-eu-lab"/>
            </meta>
            <status value="final"/>
            <category>
               <coding>
                  <system value="http://terminology.hl7.org/CodeSystem/observation-category"/>
                  <code value="laboratory"/>
               </coding>
            </category>
            <code>
               <coding>
                  <system value="http://loinc.org"/>
                  <code value="2708-6"/>
                  <display value="Oxygen saturation in Arterial blood"/>
               </coding>
               <text value="Oxygen saturation in Arterial blood"/>
            </code>
            <subject>
               <reference value="urn:uuid:debb81b9-8de6-4b84-9a3f-e729c9f51c45"/>
            </subject>
            <effectiveDateTime value="2024-11-18"/>
            <performer>
               <display value="The Central European Lab"/>
            </performer>
            <valueQuantity>
               <value value="81.1"/>
               <unit value="%"/>
               <system value="http://unitsofmeasure.org"/>
               <code value="%"/>
            </valueQuantity>
            <interpretation>
               <coding>
                  <system value="http://terminology.hl7.org/CodeSystem/v3-ObservationInterpretation"/>
                  <code value="L"/>
                  <display value="Low"/>
               </coding>
            </interpretation>
            <specimen>
               <reference value="urn:uuid:71558956-12f2-4b3b-99cd-7236bfe9e287"/>
            </specimen>
            <referenceRange>
               <low>
                  <value value="95"/>
                  <system value="http://unitsofmeasure.org"/>
                  <code value="%"/>
               </low>
            </referenceRange>
            <referenceRange>
               <high>
                  <value value="100"/>
                  <system value="http://unitsofmeasure.org"/>
                  <code value="%"/>
               </high>
            </referenceRange>
         </Observation>
      </resource>
   </entry>
   <entry>
      <fullUrl value="urn:uuid:0aac565b-2dd2-4be0-bc23-372c459d0414"/>
      <resource>
         <Observation>
            <id value="0aac565b-2dd2-4be0-bc23-372c459d0414"/>
            <meta>
               <profile value="http://hl7.eu/fhir/laboratory/StructureDefinition/Observation-resultslab-eu-lab"/>
            </meta>
            <status value="final"/>
            <category>
               <coding>
                  <system value="http://terminology.hl7.org/CodeSystem/observation-category"/>
                  <code value="laboratory"/>
               </coding>
            </category>
            <code>
               <coding>
                  <system value="http://loinc.org"/>
                  <code value="6690-2"/>
                  <display value="Leukocytes [#/volume] in Blood by Automated count"/>
               </coding>
               <text value="Leukocytes [#/volume] in Blood by Automated count"/>
            </code>
            <subject>
               <reference value="urn:uuid:debb81b9-8de6-4b84-9a3f-e729c9f51c45"/>
            </subject>
            <effectiveDateTime value="2024-11-18"/>
            <performer>
               <display value="The Central European Lab"/>
            </performer>
            <valueQuantity>
               <value value="3.8"/>
               <unit value="10*3/uL"/>
               <system value="http://unitsofmeasure.org"/>
               <code value="10*3/uL"/>
            </valueQuantity>
            <specimen>
               <reference value="urn:uuid:4d6800a3-19ff-4638-b3b7-352bdf385c42"/>
            </specimen>
            <referenceRange>
               <low>
                  <value value="3.4"/>
                  <system value="http://unitsofmeasure.org"/>
                  <code value="10*3/uL"/>
               </low>
            </referenceRange>
            <referenceRange>
               <high>
                  <value value="10.6"/>
                  <system value="http://unitsofmeasure.org"/>
                  <code value="10*3/uL"/>
               </high>
            </referenceRange>
         </Observation>
      </resource>
   </entry>
   <entry>
      <fullUrl value="urn:uuid:720158c0-cbca-47cd-98c8-6b1e42dae12c"/>
      <resource>
         <Observation>
            <id value="720158c0-cbca-47cd-98c8-6b1e42dae12c"/>
            <meta>
               <profile value="http://hl7.eu/fhir/laboratory/StructureDefinition/Observation-resultslab-eu-lab"/>
            </meta>
            <status value="final"/>
            <category>
               <coding>
                  <system value="http://terminology.hl7.org/CodeSystem/observation-category"/>
                  <code value="laboratory"/>
               </coding>
            </category>
            <code>
               <coding>
                  <system value="http://loinc.org"/>
                  <code value="789-8"/>
                  <display value="Erythrocytes [#/volume] in Blood by Automated count"/>
               </coding>
               <text value="Erythrocytes [#/volume] in Blood by Automated count"/>
            </code>
            <subject>
               <reference value="urn:uuid:debb81b9-8de6-4b84-9a3f-e729c9f51c45"/>
            </subject>
            <effectiveDateTime value="2024-11-18"/>
            <performer>
               <display value="The Central European Lab"/>
            </performer>
            <valueQuantity>
               <value value="5"/>
               <unit value="10*6/uL"/>
               <system value="http://unitsofmeasure.org"/>
               <code value="10*6/uL"/>
            </valueQuantity>
            <specimen>
               <reference value="urn:uuid:4d6800a3-19ff-4638-b3b7-352bdf385c42"/>
            </specimen>
            <referenceRange>
               <low>
                  <value value="4.5"/>
                  <system value="http://unitsofmeasure.org"/>
                  <code value="10*6/uL"/>
               </low>
            </referenceRange>
            <referenceRange>
               <high>
                  <value value="5.2"/>
                  <system value="http://unitsofmeasure.org"/>
                  <code value="10*6/uL"/>
               </high>
            </referenceRange>
         </Observation>
      </resource>
   </entry>
   <entry>
      <fullUrl value="urn:uuid:1e37bb94-06d3-4aec-afeb-9829691e490f"/>
      <resource>
         <Observation>
            <id value="1e37bb94-06d3-4aec-afeb-9829691e490f"/>
            <meta>
               <profile value="http://hl7.eu/fhir/laboratory/StructureDefinition/Observation-resultslab-eu-lab"/>
            </meta>
            <status value="final"/>
            <category>
               <coding>
                  <system value="http://terminology.hl7.org/CodeSystem/observation-category"/>
                  <code value="laboratory"/>
               </coding>
            </category>
            <code>
               <coding>
                  <system value="http://loinc.org"/>
                  <code value="718-7"/>
                  <display value="Hemoglobin [Mass/volume] in Blood"/>
               </coding>
               <text value="Hemoglobin [Mass/volume] in Blood"/>
            </code>
            <subject>
               <reference value="urn:uuid:debb81b9-8de6-4b84-9a3f-e729c9f51c45"/>
            </subject>
            <effectiveDateTime value="2024-11-18"/>
            <performer>
               <display value="The Central European Lab"/>
            </performer>
            <valueQuantity>
               <value value="11.5"/>
               <unit value="g/dL"/>
               <system value="http://unitsofmeasure.org"/>
               <code value="g/dL"/>
            </valueQuantity>
            <interpretation>
               <coding>
                  <system value="http://terminology.hl7.org/CodeSystem/v3-ObservationInterpretation"/>
                  <code value="L"/>
                  <display value="Low"/>
               </coding>
            </interpretation>
            <specimen>
               <reference value="urn:uuid:4d6800a3-19ff-4638-b3b7-352bdf385c42"/>
            </specimen>
            <referenceRange>
               <low>
                  <value value="12"/>
                  <system value="http://unitsofmeasure.org"/>
                  <code value="g/dL"/>
               </low>
            </referenceRange>
            <referenceRange>
               <high>
                  <value value="16"/>
                  <system value="http://unitsofmeasure.org"/>
                  <code value="g/dL"/>
               </high>
            </referenceRange>
         </Observation>
      </resource>
   </entry>
   <entry>
      <fullUrl value="urn:uuid:5beb241e-cb99-4b26-b321-7d0fe0b2861f"/>
      <resource>
         <Observation>
            <id value="5beb241e-cb99-4b26-b321-7d0fe0b2861f"/>
            <meta>
               <profile value="http://hl7.eu/fhir/laboratory/StructureDefinition/Observation-resultslab-eu-lab"/>
            </meta>
            <status value="final"/>
            <category>
               <coding>
                  <system value="http://terminology.hl7.org/CodeSystem/observation-category"/>
                  <code value="laboratory"/>
               </coding>
            </category>
            <code>
               <coding>
                  <system value="http://loinc.org"/>
                  <code value="4544-3"/>
                  <display value="Hematocrit [Volume Fraction] of Blood by Automated count"/>
               </coding>
               <text value="Hematocrit [Volume Fraction] of Blood by Automated count"/>
            </code>
            <subject>
               <reference value="urn:uuid:debb81b9-8de6-4b84-9a3f-e729c9f51c45"/>
            </subject>
            <effectiveDateTime value="2024-11-18"/>
            <performer>
               <display value="The Central European Lab"/>
            </performer>
            <valueQuantity>
               <value value="46.2"/>
               <unit value="%"/>
               <system value="http://unitsofmeasure.org"/>
               <code value="%"/>
            </valueQuantity>
            <specimen>
               <reference value="urn:uuid:4d6800a3-19ff-4638-b3b7-352bdf385c42"/>
            </specimen>
            <referenceRange>
               <low>
                  <value value="36"/>
                  <system value="http://unitsofmeasure.org"/>
                  <code value="%"/>
               </low>
            </referenceRange>
            <referenceRange>
               <high>
                  <value value="48"/>
                  <system value="http://unitsofmeasure.org"/>
                  <code value="%"/>
               </high>
            </referenceRange>
         </Observation>
      </resource>
   </entry>
   <entry>
      <fullUrl value="urn:uuid:42d98d4b-ed3a-46d7-b711-5afd299cb46a"/>
      <resource>
         <Observation>
            <id value="42d98d4b-ed3a-46d7-b711-5afd299cb46a"/>
            <meta>
               <profile value="http://hl7.eu/fhir/laboratory/StructureDefinition/Observation-resultslab-eu-lab"/>
            </meta>
            <status value="final"/>
            <category>
               <coding>
                  <system value="http://terminology.hl7.org/CodeSystem/observation-category"/>
                  <code value="laboratory"/>
               </coding>
            </category>
            <code>
               <coding>
                  <system value="http://loinc.org"/>
                  <code value="787-2"/>
                  <display value="MCV [Entitic volume] by Automated count"/>
               </coding>
               <text value="MCV [Entitic volume] by Automated count"/>
            </code>
            <subject>
               <reference value="urn:uuid:debb81b9-8de6-4b84-9a3f-e729c9f51c45"/>
            </subject>
            <effectiveDateTime value="2024-11-18"/>
            <performer>
               <display value="The Central European Lab"/>
            </performer>
            <valueQuantity>
               <value value="89.1"/>
               <unit value="fL"/>
               <system value="http://unitsofmeasure.org"/>
               <code value="fL"/>
            </valueQuantity>
            <specimen>
               <reference value="urn:uuid:6dd34182-7866-4bd8-8224-3ac90f4d0d5c"/>
            </specimen>
            <referenceRange>
               <low>
                  <value value="82"/>
                  <system value="http://unitsofmeasure.org"/>
                  <code value="fL"/>
               </low>
            </referenceRange>
            <referenceRange>
               <high>
                  <value value="98"/>
                  <system value="http://unitsofmeasure.org"/>
                  <code value="fL"/>
               </high>
            </referenceRange>
         </Observation>
      </resource>
   </entry>
   <entry>
      <fullUrl value="urn:uuid:bce5a495-045b-4ffc-afcf-55faee0ee414"/>
      <resource>
         <Observation>
            <id value="bce5a495-045b-4ffc-afcf-55faee0ee414"/>
            <meta>
               <profile value="http://hl7.eu/fhir/laboratory/StructureDefinition/Observation-resultslab-eu-lab"/>
            </meta>
            <status value="final"/>
            <category>
               <coding>
                  <system value="http://terminology.hl7.org/CodeSystem/observation-category"/>
                  <code value="laboratory"/>
               </coding>
            </category>
            <code>
               <coding>
                  <system value="http://loinc.org"/>
                  <code value="785-6"/>
                  <display value="MCH [Entitic mass] by Automated count"/>
               </coding>
               <text value="MCH [Entitic mass] by Automated count"/>
            </code>
            <subject>
               <reference value="urn:uuid:debb81b9-8de6-4b84-9a3f-e729c9f51c45"/>
            </subject>
            <effectiveDateTime value="2024-11-18"/>
            <performer>
               <display value="The Central European Lab"/>
            </performer>
            <valueQuantity>
               <value value="30.3"/>
               <unit value="pg"/>
               <system value="http://unitsofmeasure.org"/>
               <code value="pg"/>
            </valueQuantity>
            <specimen>
               <reference value="urn:uuid:6dd34182-7866-4bd8-8224-3ac90f4d0d5c"/>
            </specimen>
            <referenceRange>
               <low>
                  <value value="27"/>
                  <system value="http://unitsofmeasure.org"/>
                  <code value="pg"/>
               </low>
            </referenceRange>
            <referenceRange>
               <high>
                  <value value="34"/>
                  <system value="http://unitsofmeasure.org"/>
                  <code value="pg"/>
               </high>
            </referenceRange>
         </Observation>
      </resource>
   </entry>
   <entry>
      <fullUrl value="urn:uuid:381ae684-1fda-4143-a1d2-9ec49305d35a"/>
      <resource>
         <Observation>
            <id value="381ae684-1fda-4143-a1d2-9ec49305d35a"/>
            <meta>
               <profile value="http://hl7.eu/fhir/laboratory/StructureDefinition/Observation-resultslab-eu-lab"/>
            </meta>
            <status value="final"/>
            <category>
               <coding>
                  <system value="http://terminology.hl7.org/CodeSystem/observation-category"/>
                  <code value="laboratory"/>
               </coding>
            </category>
            <code>
               <coding>
                  <system value="http://loinc.org"/>
                  <code value="786-4"/>
                  <display value="MCHC [Mass/volume] by Automated count"/>
               </coding>
               <text value="MCHC [Mass/volume] by Automated count"/>
            </code>
            <subject>
               <reference value="urn:uuid:debb81b9-8de6-4b84-9a3f-e729c9f51c45"/>
            </subject>
            <effectiveDateTime value="2024-11-18"/>
            <performer>
               <display value="The Central European Lab"/>
            </performer>
            <valueQuantity>
               <value value="33.9"/>
               <unit value="g/dL"/>
               <system value="http://unitsofmeasure.org"/>
               <code value="g/dL"/>
            </valueQuantity>
            <specimen>
               <reference value="urn:uuid:6dd34182-7866-4bd8-8224-3ac90f4d0d5c"/>
            </specimen>
            <referenceRange>
               <low>
                  <value value="31"/>
                  <system value="http://unitsofmeasure.org"/>
                  <code value="g/dL"/>
               </low>
            </referenceRange>
            <referenceRange>
               <high>
                  <value value="35"/>
                  <system value="http://unitsofmeasure.org"/>
                  <code value="g/dL"/>
               </high>
            </referenceRange>
         </Observation>
      </resource>
   </entry>
   <entry>
      <fullUrl value="urn:uuid:763fc27b-bb7e-4224-ab80-7d5a834f1da7"/>
      <resource>
         <Observation>
            <id value="763fc27b-bb7e-4224-ab80-7d5a834f1da7"/>
            <meta>
               <profile value="http://hl7.eu/fhir/laboratory/StructureDefinition/Observation-resultslab-eu-lab"/>
            </meta>
            <status value="final"/>
            <category>
               <coding>
                  <system value="http://terminology.hl7.org/CodeSystem/observation-category"/>
                  <code value="laboratory"/>
               </coding>
            </category>
            <code>
               <coding>
                  <system value="http://loinc.org"/>
                  <code value="788-0"/>
                  <display value="Erythrocyte distribution width [Ratio] by Automated count"/>
               </coding>
               <text value="Erythrocyte distribution width [Ratio] by Automated count"/>
            </code>
            <subject>
               <reference value="urn:uuid:debb81b9-8de6-4b84-9a3f-e729c9f51c45"/>
            </subject>
            <effectiveDateTime value="2024-11-18"/>
            <performer>
               <display value="The Central European Lab"/>
            </performer>
            <valueQuantity>
               <value value="14.4"/>
               <unit value="%"/>
               <system value="http://unitsofmeasure.org"/>
               <code value="%"/>
            </valueQuantity>
            <specimen>
               <reference value="urn:uuid:6dd34182-7866-4bd8-8224-3ac90f4d0d5c"/>
            </specimen>
            <referenceRange>
               <low>
                  <value value="11.6"/>
                  <system value="http://unitsofmeasure.org"/>
                  <code value="%"/>
               </low>
            </referenceRange>
            <referenceRange>
               <high>
                  <value value="16.5"/>
                  <system value="http://unitsofmeasure.org"/>
                  <code value="%"/>
               </high>
            </referenceRange>
         </Observation>
      </resource>
   </entry>
   <entry>
      <fullUrl value="urn:uuid:00b09ade-baa1-4b33-af7f-87d62a37bce9"/>
      <resource>
         <Observation>
            <id value="00b09ade-baa1-4b33-af7f-87d62a37bce9"/>
            <meta>
               <profile value="http://hl7.eu/fhir/laboratory/StructureDefinition/Observation-resultslab-eu-lab"/>
            </meta>
            <status value="final"/>
            <category>
               <coding>
                  <system value="http://terminology.hl7.org/CodeSystem/observation-category"/>
                  <code value="laboratory"/>
               </coding>
            </category>
            <code>
               <coding>
                  <system value="http://loinc.org"/>
                  <code value="777-3"/>
                  <display value="Platelets [#/volume] in Blood by Automated count"/>
               </coding>
               <text value="Platelets [#/volume] in Blood by Automated count"/>
            </code>
            <subject>
               <reference value="urn:uuid:debb81b9-8de6-4b84-9a3f-e729c9f51c45"/>
            </subject>
            <effectiveDateTime value="2024-11-18"/>
            <performer>
               <display value="The Central European Lab"/>
            </performer>
            <valueQuantity>
               <value value="134.8"/>
               <unit value="10*3/uL"/>
               <system value="http://unitsofmeasure.org"/>
               <code value="10*3/uL"/>
            </valueQuantity>
            <interpretation>
               <coding>
                  <system value="http://terminology.hl7.org/CodeSystem/v3-ObservationInterpretation"/>
                  <code value="L"/>
                  <display value="Low"/>
               </coding>
            </interpretation>
            <specimen>
               <reference value="urn:uuid:4d6800a3-19ff-4638-b3b7-352bdf385c42"/>
            </specimen>
            <referenceRange>
               <low>
                  <value value="150"/>
                  <system value="http://unitsofmeasure.org"/>
                  <code value="10*3/uL"/>
               </low>
            </referenceRange>
            <referenceRange>
               <high>
                  <value value="450"/>
                  <system value="http://unitsofmeasure.org"/>
                  <code value="10*3/uL"/>
               </high>
            </referenceRange>
         </Observation>
      </resource>
   </entry>
   <entry>
      <fullUrl value="urn:uuid:8e5fd062-f1b2-4418-9e05-ae3fe90815fa"/>
      <resource>
         <Observation>
            <id value="8e5fd062-f1b2-4418-9e05-ae3fe90815fa"/>
            <meta>
               <profile value="http://hl7.eu/fhir/laboratory/StructureDefinition/Observation-resultslab-eu-lab"/>
            </meta>
            <status value="final"/>
            <category>
               <coding>
                  <system value="http://terminology.hl7.org/CodeSystem/observation-category"/>
                  <code value="laboratory"/>
               </coding>
            </category>
            <code>
               <coding>
                  <system value="http://loinc.org"/>
                  <code value="770-8"/>
                  <display value="Neutrophils/100 leukocytes in Blood by Automated count"/>
               </coding>
               <text value="Neutrophils/100 leukocytes in Blood by Automated count"/>
            </code>
            <subject>
               <reference value="urn:uuid:debb81b9-8de6-4b84-9a3f-e729c9f51c45"/>
            </subject>
            <effectiveDateTime value="2024-11-18"/>
            <performer>
               <display value="The Central European Lab"/>
            </performer>
            <valueQuantity>
               <value value="23.7"/>
               <unit value="%"/>
               <system value="http://unitsofmeasure.org"/>
               <code value="%"/>
            </valueQuantity>
            <interpretation>
               <coding>
                  <system value="http://terminology.hl7.org/CodeSystem/v3-ObservationInterpretation"/>
                  <code value="L"/>
                  <display value="Low"/>
               </coding>
            </interpretation>
            <specimen>
               <reference value="urn:uuid:4d6800a3-19ff-4638-b3b7-352bdf385c42"/>
            </specimen>
            <referenceRange>
               <low>
                  <value value="40"/>
                  <system value="http://unitsofmeasure.org"/>
                  <code value="%"/>
               </low>
            </referenceRange>
            <referenceRange>
               <high>
                  <value value="70"/>
                  <system value="http://unitsofmeasure.org"/>
                  <code value="%"/>
               </high>
            </referenceRange>
         </Observation>
      </resource>
   </entry>
   <entry>
      <fullUrl value="urn:uuid:fc4e9f37-6e86-4d48-aeb3-4b4a9834b599"/>
      <resource>
         <Observation>
            <id value="fc4e9f37-6e86-4d48-aeb3-4b4a9834b599"/>
            <meta>
               <profile value="http://hl7.eu/fhir/laboratory/StructureDefinition/Observation-resultslab-eu-lab"/>
            </meta>
            <status value="final"/>
            <category>
               <coding>
                  <system value="http://terminology.hl7.org/CodeSystem/observation-category"/>
                  <code value="laboratory"/>
               </coding>
            </category>
            <code>
               <coding>
                  <system value="http://loinc.org"/>
                  <code value="736-9"/>
                  <display value="Lymphocytes/100 leukocytes in Blood by Automated count"/>
               </coding>
               <text value="Lymphocytes/100 leukocytes in Blood by Automated count"/>
            </code>
            <subject>
               <reference value="urn:uuid:debb81b9-8de6-4b84-9a3f-e729c9f51c45"/>
            </subject>
            <effectiveDateTime value="2024-11-18"/>
            <performer>
               <display value="The Central European Lab"/>
            </performer>
            <valueQuantity>
               <value value="20.8"/>
               <unit value="%"/>
               <system value="http://unitsofmeasure.org"/>
               <code value="%"/>
            </valueQuantity>
            <specimen>
               <reference value="urn:uuid:4d6800a3-19ff-4638-b3b7-352bdf385c42"/>
            </specimen>
            <referenceRange>
               <low>
                  <value value="20"/>
                  <system value="http://unitsofmeasure.org"/>
                  <code value="%"/>
               </low>
            </referenceRange>
            <referenceRange>
               <high>
                  <value value="40"/>
                  <system value="http://unitsofmeasure.org"/>
                  <code value="%"/>
               </high>
            </referenceRange>
         </Observation>
      </resource>
   </entry>
   <entry>
      <fullUrl value="urn:uuid:5bc9a380-60a5-4559-9969-d628f575d935"/>
      <resource>
         <Observation>
            <id value="5bc9a380-60a5-4559-9969-d628f575d935"/>
            <meta>
               <profile value="http://hl7.eu/fhir/laboratory/StructureDefinition/Observation-resultslab-eu-lab"/>
            </meta>
            <status value="final"/>
            <category>
               <coding>
                  <system value="http://terminology.hl7.org/CodeSystem/observation-category"/>
                  <code value="laboratory"/>
               </coding>
            </category>
            <code>
               <coding>
                  <system value="http://loinc.org"/>
                  <code value="5905-5"/>
                  <display value="Monocytes/100 leukocytes in Blood by Automated count"/>
               </coding>
               <text value="Monocytes/100 leukocytes in Blood by Automated count"/>
            </code>
            <subject>
               <reference value="urn:uuid:debb81b9-8de6-4b84-9a3f-e729c9f51c45"/>
            </subject>
            <effectiveDateTime value="2024-11-18"/>
            <performer>
               <display value="The Central European Lab"/>
            </performer>
            <valueQuantity>
               <value value="9.1"/>
               <unit value="%"/>
               <system value="http://unitsofmeasure.org"/>
               <code value="%"/>
            </valueQuantity>
            <specimen>
               <reference value="urn:uuid:4d6800a3-19ff-4638-b3b7-352bdf385c42"/>
            </specimen>
            <referenceRange>
               <low>
                  <value value="2"/>
                  <system value="http://unitsofmeasure.org"/>
                  <code value="%"/>
               </low>
            </referenceRange>
            <referenceRange>
               <high>
                  <value value="11"/>
                  <system value="http://unitsofmeasure.org"/>
                  <code value="%"/>
               </high>
            </referenceRange>
         </Observation>
      </resource>
   </entry>
   <entry>
      <fullUrl value="urn:uuid:3e343d0c-c676-4c80-bac5-5845f53b7a35"/>
      <resource>
         <Observation>
            <id value="3e343d0c-c676-4c80-bac5-5845f53b7a35"/>
            <meta>
               <profile value="http://hl7.eu/fhir/laboratory/StructureDefinition/Observation-resultslab-eu-lab"/>
            </meta>
            <status value="final"/>
            <category>
               <coding>
                  <system value="http://terminology.hl7.org/CodeSystem/observation-category"/>
                  <code value="laboratory"/>
               </coding>
            </category>
            <code>
               <coding>
                  <system value="http://loinc.org"/>
                  <code value="713-8"/>
                  <display value="Eosinophils/100 leukocytes in Blood by Automated count"/>
               </coding>
               <text value="Eosinophils/100 leukocytes in Blood by Automated count"/>
            </code>
            <subject>
               <reference value="urn:uuid:debb81b9-8de6-4b84-9a3f-e729c9f51c45"/>
            </subject>
            <effectiveDateTime value="2024-11-18"/>
            <performer>
               <display value="The Central European Lab"/>
            </performer>
            <valueQuantity>
               <value value="5"/>
               <unit value="%"/>
               <system value="http://unitsofmeasure.org"/>
               <code value="%"/>
            </valueQuantity>
            <specimen>
               <reference value="urn:uuid:4d6800a3-19ff-4638-b3b7-352bdf385c42"/>
            </specimen>
            <referenceRange>
               <low>
                  <value value="0"/>
                  <system value="http://unitsofmeasure.org"/>
                  <code value="%"/>
               </low>
            </referenceRange>
            <referenceRange>
               <high>
                  <value value="7"/>
                  <system value="http://unitsofmeasure.org"/>
                  <code value="%"/>
               </high>
            </referenceRange>
         </Observation>
      </resource>
   </entry>
   <entry>
      <fullUrl value="urn:uuid:40c9be55-ef94-412a-88f4-5b898fb7703b"/>
      <resource>
         <Observation>
            <id value="40c9be55-ef94-412a-88f4-5b898fb7703b"/>
            <meta>
               <profile value="http://hl7.eu/fhir/laboratory/StructureDefinition/Observation-resultslab-eu-lab"/>
            </meta>
            <status value="final"/>
            <category>
               <coding>
                  <system value="http://terminology.hl7.org/CodeSystem/observation-category"/>
                  <code value="laboratory"/>
               </coding>
            </category>
            <code>
               <coding>
                  <system value="http://loinc.org"/>
                  <code value="706-2"/>
                  <display value="Basophils/100 leukocytes in Blood by Automated count"/>
               </coding>
               <text value="Basophils/100 leukocytes in Blood by Automated count"/>
            </code>
            <subject>
               <reference value="urn:uuid:debb81b9-8de6-4b84-9a3f-e729c9f51c45"/>
            </subject>
            <effectiveDateTime value="2024-11-18"/>
            <performer>
               <display value="The Central European Lab"/>
            </performer>
            <valueQuantity>
               <value value="3.4"/>
               <unit value="%"/>
               <system value="http://unitsofmeasure.org"/>
               <code value="%"/>
            </valueQuantity>
            <interpretation>
               <coding>
                  <system value="http://terminology.hl7.org/CodeSystem/v3-ObservationInterpretation"/>
                  <code value="H"/>
                  <display value="High"/>
               </coding>
            </interpretation>
            <specimen>
               <reference value="urn:uuid:4d6800a3-19ff-4638-b3b7-352bdf385c42"/>
            </specimen>
            <referenceRange>
               <low>
                  <value value="0"/>
                  <system value="http://unitsofmeasure.org"/>
                  <code value="%"/>
               </low>
            </referenceRange>
            <referenceRange>
               <high>
                  <value value="1"/>
                  <system value="http://unitsofmeasure.org"/>
                  <code value="%"/>
               </high>
            </referenceRange>
         </Observation>
      </resource>
   </entry>
   <entry>
      <fullUrl value="urn:uuid:441843a7-f0b5-47bd-a9c4-00499f43ed6f"/>
      <resource>
         <Observation>
            <id value="441843a7-f0b5-47bd-a9c4-00499f43ed6f"/>
            <meta>
               <profile value="http://hl7.eu/fhir/laboratory/StructureDefinition/Observation-resultslab-eu-lab"/>
            </meta>
            <status value="final"/>
            <category>
               <coding>
                  <system value="http://terminology.hl7.org/CodeSystem/observation-category"/>
                  <code value="laboratory"/>
               </coding>
            </category>
            <code>
               <coding>
                  <system value="http://loinc.org"/>
                  <code value="751-8"/>
                  <display value="Neutrophils [#/volume] in Blood by Automated count"/>
               </coding>
               <text value="Neutrophils [#/volume] in Blood by Automated count"/>
            </code>
            <subject>
               <reference value="urn:uuid:debb81b9-8de6-4b84-9a3f-e729c9f51c45"/>
            </subject>
            <effectiveDateTime value="2024-11-18"/>
            <performer>
               <display value="The Central European Lab"/>
            </performer>
            <valueQuantity>
               <value value="1.6"/>
               <unit value="10*3/uL"/>
               <system value="http://unitsofmeasure.org"/>
               <code value="10*3/uL"/>
            </valueQuantity>
            <interpretation>
               <coding>
                  <system value="http://terminology.hl7.org/CodeSystem/v3-ObservationInterpretation"/>
                  <code value="L"/>
                  <display value="Low"/>
               </coding>
            </interpretation>
            <specimen>
               <reference value="urn:uuid:4d6800a3-19ff-4638-b3b7-352bdf385c42"/>
            </specimen>
            <referenceRange>
               <low>
                  <value value="2"/>
                  <system value="http://unitsofmeasure.org"/>
                  <code value="10*3/uL"/>
               </low>
            </referenceRange>
            <referenceRange>
               <high>
                  <value value="7.7"/>
                  <system value="http://unitsofmeasure.org"/>
                  <code value="10*3/uL"/>
               </high>
            </referenceRange>
         </Observation>
      </resource>
   </entry>
   <entry>
      <fullUrl value="urn:uuid:17151a25-7854-4dd0-bd6e-096f8ea479a4"/>
      <resource>
         <Observation>
            <id value="17151a25-7854-4dd0-bd6e-096f8ea479a4"/>
            <meta>
               <profile value="http://hl7.eu/fhir/laboratory/StructureDefinition/Observation-resultslab-eu-lab"/>
            </meta>
            <status value="final"/>
            <category>
               <coding>
                  <system value="http://terminology.hl7.org/CodeSystem/observation-category"/>
                  <code value="laboratory"/>
               </coding>
            </category>
            <code>
               <coding>
                  <system value="http://loinc.org"/>
                  <code value="731-0"/>
                  <display value="Lymphocytes [#/volume] in Blood by Automated count"/>
               </coding>
               <text value="Lymphocytes [#/volume] in Blood by Automated count"/>
            </code>
            <subject>
               <reference value="urn:uuid:debb81b9-8de6-4b84-9a3f-e729c9f51c45"/>
            </subject>
            <effectiveDateTime value="2024-11-18"/>
            <performer>
               <display value="The Central European Lab"/>
            </performer>
            <valueQuantity>
               <value value="1.2"/>
               <unit value="10*3/uL"/>
               <system value="http://unitsofmeasure.org"/>
               <code value="10*3/uL"/>
            </valueQuantity>
            <specimen>
               <reference value="urn:uuid:4d6800a3-19ff-4638-b3b7-352bdf385c42"/>
            </specimen>
            <referenceRange>
               <low>
                  <value value="0.7"/>
                  <system value="http://unitsofmeasure.org"/>
                  <code value="10*3/uL"/>
               </low>
            </referenceRange>
            <referenceRange>
               <high>
                  <value value="3.4"/>
                  <system value="http://unitsofmeasure.org"/>
                  <code value="10*3/uL"/>
               </high>
            </referenceRange>
         </Observation>
      </resource>
   </entry>
   <entry>
      <fullUrl value="urn:uuid:07d3a716-59bc-4de2-95fa-72d51367aeba"/>
      <resource>
         <Observation>
            <id value="07d3a716-59bc-4de2-95fa-72d51367aeba"/>
            <meta>
               <profile value="http://hl7.eu/fhir/laboratory/StructureDefinition/Observation-resultslab-eu-lab"/>
            </meta>
            <status value="final"/>
            <category>
               <coding>
                  <system value="http://terminology.hl7.org/CodeSystem/observation-category"/>
                  <code value="laboratory"/>
               </coding>
            </category>
            <code>
               <coding>
                  <system value="http://loinc.org"/>
                  <code value="742-7"/>
                  <display value="Monocytes [#/volume] in Blood by Automated count"/>
               </coding>
               <text value="Monocytes [#/volume] in Blood by Automated count"/>
            </code>
            <subject>
               <reference value="urn:uuid:debb81b9-8de6-4b84-9a3f-e729c9f51c45"/>
            </subject>
            <effectiveDateTime value="2024-11-18"/>
            <performer>
               <display value="The Central European Lab"/>
            </performer>
            <valueQuantity>
               <value value="0.7"/>
               <unit value="10*3/uL"/>
               <system value="http://unitsofmeasure.org"/>
               <code value="10*3/uL"/>
            </valueQuantity>
            <specimen>
               <reference value="urn:uuid:4d6800a3-19ff-4638-b3b7-352bdf385c42"/>
            </specimen>
            <referenceRange>
               <low>
                  <value value="0.1"/>
                  <system value="http://unitsofmeasure.org"/>
                  <code value="10*3/uL"/>
               </low>
            </referenceRange>
            <referenceRange>
               <high>
                  <value value="0.9"/>
                  <system value="http://unitsofmeasure.org"/>
                  <code value="10*3/uL"/>
               </high>
            </referenceRange>
         </Observation>
      </resource>
   </entry>
   <entry>
      <fullUrl value="urn:uuid:dc19a67c-7e45-475e-a3de-89b8698bf3cd"/>
      <resource>
         <Observation>
            <id value="dc19a67c-7e45-475e-a3de-89b8698bf3cd"/>
            <meta>
               <profile value="http://hl7.eu/fhir/laboratory/StructureDefinition/Observation-resultslab-eu-lab"/>
            </meta>
            <status value="final"/>
            <category>
               <coding>
                  <system value="http://terminology.hl7.org/CodeSystem/observation-category"/>
                  <code value="laboratory"/>
               </coding>
            </category>
            <code>
               <coding>
                  <system value="http://loinc.org"/>
                  <code value="711-2"/>
                  <display value="Eosinophils [#/volume] in Blood by Automated count"/>
               </coding>
               <text value="Eosinophils [#/volume] in Blood by Automated count"/>
            </code>
            <subject>
               <reference value="urn:uuid:debb81b9-8de6-4b84-9a3f-e729c9f51c45"/>
            </subject>
            <effectiveDateTime value="2024-11-18"/>
            <performer>
               <display value="The Central European Lab"/>
            </performer>
            <valueQuantity>
               <value value="0.4"/>
               <unit value="10*3/uL"/>
               <system value="http://unitsofmeasure.org"/>
               <code value="10*3/uL"/>
            </valueQuantity>
            <specimen>
               <reference value="urn:uuid:4d6800a3-19ff-4638-b3b7-352bdf385c42"/>
            </specimen>
            <referenceRange>
               <low>
                  <value value="0"/>
                  <system value="http://unitsofmeasure.org"/>
                  <code value="10*3/uL"/>
               </low>
            </referenceRange>
            <referenceRange>
               <high>
                  <value value="0.7"/>
                  <system value="http://unitsofmeasure.org"/>
                  <code value="10*3/uL"/>
               </high>
            </referenceRange>
         </Observation>
      </resource>
   </entry>
   <entry>
      <fullUrl value="urn:uuid:dba4d539-7a79-43e3-b140-aa79b566b1a6"/>
      <resource>
         <Observation>
            <id value="dba4d539-7a79-43e3-b140-aa79b566b1a6"/>
            <meta>
               <profile value="http://hl7.eu/fhir/laboratory/StructureDefinition/Observation-resultslab-eu-lab"/>
            </meta>
            <status value="final"/>
            <category>
               <coding>
                  <system value="http://terminology.hl7.org/CodeSystem/observation-category"/>
                  <code value="laboratory"/>
               </coding>
            </category>
            <code>
               <coding>
                  <system value="http://loinc.org"/>
                  <code value="704-7"/>
                  <display value="Basophils [#/volume] in Blood by Automated count"/>
               </coding>
               <text value="Basophils [#/volume] in Blood by Automated count"/>
            </code>
            <subject>
               <reference value="urn:uuid:debb81b9-8de6-4b84-9a3f-e729c9f51c45"/>
            </subject>
            <effectiveDateTime value="2024-11-18"/>
            <performer>
               <display value="The Central European Lab"/>
            </performer>
            <valueQuantity>
               <value value="0.2"/>
               <unit value="10*3/uL"/>
               <system value="http://unitsofmeasure.org"/>
               <code value="10*3/uL"/>
            </valueQuantity>
            <specimen>
               <reference value="urn:uuid:4d6800a3-19ff-4638-b3b7-352bdf385c42"/>
            </specimen>
            <referenceRange>
               <low>
                  <value value="0.1"/>
                  <system value="http://unitsofmeasure.org"/>
                  <code value="10*3/uL"/>
               </low>
            </referenceRange>
            <referenceRange>
               <high>
                  <value value="0.3"/>
                  <system value="http://unitsofmeasure.org"/>
                  <code value="10*3/uL"/>
               </high>
            </referenceRange>
         </Observation>
      </resource>
   </entry>
   <entry>
      <fullUrl value="urn:uuid:89b91a6c-b465-4843-ae1c-95197d7daacb"/>
      <resource>
         <Observation>
            <id value="89b91a6c-b465-4843-ae1c-95197d7daacb"/>
            <meta>
               <profile value="http://hl7.eu/fhir/laboratory/StructureDefinition/Observation-resultslab-eu-lab"/>
            </meta>
            <status value="final"/>
            <category>
               <coding>
                  <system value="http://terminology.hl7.org/CodeSystem/observation-category"/>
                  <code value="laboratory"/>
               </coding>
            </category>
            <code>
               <coding>
                  <system value="http://loinc.org"/>
                  <code value="2345-7"/>
                  <display value="Glucose [Mass/volume] in Serum or Plasma"/>
               </coding>
               <text value="Glucose [Mass/volume] in Serum or Plasma"/>
            </code>
            <subject>
               <reference value="urn:uuid:debb81b9-8de6-4b84-9a3f-e729c9f51c45"/>
            </subject>
            <effectiveDateTime value="2024-11-18"/>
            <performer>
               <display value="The Central European Lab"/>
            </performer>
            <valueQuantity>
               <value value="89.6"/>
               <unit value="mg/dL"/>
               <system value="http://unitsofmeasure.org"/>
               <code value="mg/dL"/>
            </valueQuantity>
            <specimen>
               <reference value="urn:uuid:4eeabcfa-cf03-4e9f-be01-64dd9fa96d5b"/>
            </specimen>
            <referenceRange>
               <low>
                  <value value="70"/>
                  <system value="http://unitsofmeasure.org"/>
                  <code value="mg/dL"/>
               </low>
            </referenceRange>
            <referenceRange>
               <high>
                  <value value="99"/>
                  <system value="http://unitsofmeasure.org"/>
                  <code value="mg/dL"/>
               </high>
            </referenceRange>
         </Observation>
      </resource>
   </entry>
   <entry>
      <fullUrl value="urn:uuid:f7f821cf-1df9-4b3e-a1f8-687ad0f67037"/>
      <resource>
         <Observation>
            <id value="f7f821cf-1df9-4b3e-a1f8-687ad0f67037"/>
            <meta>
               <profile value="http://hl7.eu/fhir/laboratory/StructureDefinition/Observation-resultslab-eu-lab"/>
            </meta>
            <status value="final"/>
            <category>
               <coding>
                  <system value="http://terminology.hl7.org/CodeSystem/observation-category"/>
                  <code value="laboratory"/>
               </coding>
            </category>
            <code>
               <coding>
                  <system value="http://loinc.org"/>
                  <code value="3094-0"/>
                  <display value="Urea nitrogen [Mass/volume] in Serum or Plasma"/>
               </coding>
               <text value="Urea nitrogen [Mass/volume] in Serum or Plasma"/>
            </code>
            <subject>
               <reference value="urn:uuid:debb81b9-8de6-4b84-9a3f-e729c9f51c45"/>
            </subject>
            <effectiveDateTime value="2024-11-18"/>
            <performer>
               <display value="The Central European Lab"/>
            </performer>
            <valueQuantity>
               <value value="7.2"/>
               <unit value="mg/dL"/>
               <system value="http://unitsofmeasure.org"/>
               <code value="mg/dL"/>
            </valueQuantity>
            <specimen>
               <reference value="urn:uuid:4eeabcfa-cf03-4e9f-be01-64dd9fa96d5b"/>
            </specimen>
            <referenceRange>
               <low>
                  <value value="7"/>
                  <system value="http://unitsofmeasure.org"/>
                  <code value="mg/dL"/>
               </low>
            </referenceRange>
            <referenceRange>
               <high>
                  <value value="20"/>
                  <system value="http://unitsofmeasure.org"/>
                  <code value="mg/dL"/>
               </high>
            </referenceRange>
         </Observation>
      </resource>
   </entry>
   <entry>
      <fullUrl value="urn:uuid:9a8401f3-9277-4328-9be1-c55065081a2b"/>
      <resource>
         <Observation>
            <id value="9a8401f3-9277-4328-9be1-c55065081a2b"/>
            <meta>
               <profile value="http://hl7.eu/fhir/laboratory/StructureDefinition/Observation-resultslab-eu-lab"/>
            </meta>
            <status value="final"/>
            <category>
               <coding>
                  <system value="http://terminology.hl7.org/CodeSystem/observation-category"/>
                  <code value="laboratory"/>
               </coding>
            </category>
            <code>
               <coding>
                  <system value="http://loinc.org"/>
                  <code value="2160-0"/>
                  <display value="Creatinine [Mass/volume] in Serum or Plasma"/>
               </coding>
               <text value="Creatinine [Mass/volume] in Serum or Plasma"/>
            </code>
            <subject>
               <reference value="urn:uuid:debb81b9-8de6-4b84-9a3f-e729c9f51c45"/>
            </subject>
            <effectiveDateTime value="2024-11-18"/>
            <performer>
               <display value="The Central European Lab"/>
            </performer>
            <valueQuantity>
               <value value="2.6"/>
               <unit value="mg/dL"/>
               <system value="http://unitsofmeasure.org"/>
               <code value="mg/dL"/>
            </valueQuantity>
            <interpretation>
               <coding>
                  <system value="http://terminology.hl7.org/CodeSystem/v3-ObservationInterpretation"/>
                  <code value="H"/>
                  <display value="High"/>
               </coding>
            </interpretation>
            <specimen>
               <reference value="urn:uuid:4eeabcfa-cf03-4e9f-be01-64dd9fa96d5b"/>
            </specimen>
            <referenceRange>
               <low>
                  <value value="0.6"/>
                  <system value="http://unitsofmeasure.org"/>
                  <code value="mg/dL"/>
               </low>
            </referenceRange>
            <referenceRange>
               <high>
                  <value value="1.1"/>
                  <system value="http://unitsofmeasure.org"/>
                  <code value="mg/dL"/>
               </high>
            </referenceRange>
         </Observation>
      </resource>
   </entry>
   <entry>
      <fullUrl value="urn:uuid:ef640169-58f9-43a1-8249-4d08674b95e1"/>
      <resource>
         <Observation>
            <id value="ef640169-58f9-43a1-8249-4d08674b95e1"/>
            <meta>
               <profile value="http://hl7.eu/fhir/laboratory/StructureDefinition/Observation-resultslab-eu-lab"/>
            </meta>
            <status value="final"/>
            <category>
               <coding>
                  <system value="http://terminology.hl7.org/CodeSystem/observation-category"/>
                  <code value="laboratory"/>
               </coding>
            </category>
            <code>
               <coding>
                  <system value="http://loinc.org"/>
                  <code value="17861-6"/>
                  <display value="Calcium [Mass/volume] in Serum or Plasma"/>
               </coding>
               <text value="Calcium [Mass/volume] in Serum or Plasma"/>
            </code>
            <subject>
               <reference value="urn:uuid:debb81b9-8de6-4b84-9a3f-e729c9f51c45"/>
            </subject>
            <effectiveDateTime value="2024-11-18"/>
            <performer>
               <display value="The Central European Lab"/>
            </performer>
            <valueQuantity>
               <value value="10"/>
               <unit value="mg/dL"/>
               <system value="http://unitsofmeasure.org"/>
               <code value="mg/dL"/>
            </valueQuantity>
            <specimen>
               <reference value="urn:uuid:4eeabcfa-cf03-4e9f-be01-64dd9fa96d5b"/>
            </specimen>
            <referenceRange>
               <low>
                  <value value="8.5"/>
                  <system value="http://unitsofmeasure.org"/>
                  <code value="mg/dL"/>
               </low>
            </referenceRange>
            <referenceRange>
               <high>
                  <value value="10.4"/>
                  <system value="http://unitsofmeasure.org"/>
                  <code value="mg/dL"/>
               </high>
            </referenceRange>
         </Observation>
      </resource>
   </entry>
   <entry>
      <fullUrl value="urn:uuid:aa42b0ba-380d-417c-8336-316a51e97dff"/>
      <resource>
         <Observation>
            <id value="aa42b0ba-380d-417c-8336-316a51e97dff"/>
            <meta>
               <profile value="http://hl7.eu/fhir/laboratory/StructureDefinition/Observation-resultslab-eu-lab"/>
            </meta>
            <status value="final"/>
            <category>
               <coding>
                  <system value="http://terminology.hl7.org/CodeSystem/observation-category"/>
                  <code value="laboratory"/>
               </coding>
            </category>
            <code>
               <coding>
                  <system value="http://loinc.org"/>
                  <code value="2951-2"/>
                  <display value="Sodium [Moles/volume] in Serum or Plasma"/>
               </coding>
               <text value="Sodium [Moles/volume] in Serum or Plasma"/>
            </code>
            <subject>
               <reference value="urn:uuid:debb81b9-8de6-4b84-9a3f-e729c9f51c45"/>
            </subject>
            <effectiveDateTime value="2024-11-18"/>
            <performer>
               <display value="The Central European Lab"/>
            </performer>
            <valueQuantity>
               <value value="136.9"/>
               <unit value="mmol/L"/>
               <system value="http://unitsofmeasure.org"/>
               <code value="mmol/L"/>
            </valueQuantity>
            <specimen>
               <reference value="urn:uuid:4eeabcfa-cf03-4e9f-be01-64dd9fa96d5b"/>
            </specimen>
            <referenceRange>
               <low>
                  <value value="135"/>
                  <system value="http://unitsofmeasure.org"/>
                  <code value="mmol/L"/>
               </low>
            </referenceRange>
            <referenceRange>
               <high>
                  <value value="145"/>
                  <system value="http://unitsofmeasure.org"/>
                  <code value="mmol/L"/>
               </high>
            </referenceRange>
         </Observation>
      </resource>
   </entry>
   <entry>
      <fullUrl value="urn:uuid:46d2b2e8-e9a2-44c9-a410-5d5cd3c85688"/>
      <resource>
         <Observation>
            <id value="46d2b2e8-e9a2-44c9-a410-5d5cd3c85688"/>
            <meta>
               <profile value="http://hl7.eu/fhir/laboratory/StructureDefinition/Observation-resultslab-eu-lab"/>
            </meta>
            <status value="final"/>
            <category>
               <coding>
                  <system value="http://terminology.hl7.org/CodeSystem/observation-category"/>
                  <code value="laboratory"/>
               </coding>
            </category>
            <code>
               <coding>
                  <system value="http://loinc.org"/>
                  <code value="2823-3"/>
                  <display value="Potassium [Moles/volume] in Serum or Plasma"/>
               </coding>
               <text value="Potassium [Moles/volume] in Serum or Plasma"/>
            </code>
            <subject>
               <reference value="urn:uuid:debb81b9-8de6-4b84-9a3f-e729c9f51c45"/>
            </subject>
            <effectiveDateTime value="2024-11-18"/>
            <performer>
               <display value="The Central European Lab"/>
            </performer>
            <valueQuantity>
               <value value="4.6"/>
               <unit value="mmol/L"/>
               <system value="http://unitsofmeasure.org"/>
               <code value="mmol/L"/>
            </valueQuantity>
            <specimen>
               <reference value="urn:uuid:4eeabcfa-cf03-4e9f-be01-64dd9fa96d5b"/>
            </specimen>
            <referenceRange>
               <low>
                  <value value="3.5"/>
                  <system value="http://unitsofmeasure.org"/>
                  <code value="mmol/L"/>
               </low>
            </referenceRange>
            <referenceRange>
               <high>
                  <value value="5.1"/>
                  <system value="http://unitsofmeasure.org"/>
                  <code value="mmol/L"/>
               </high>
            </referenceRange>
         </Observation>
      </resource>
   </entry>
   <entry>
      <fullUrl value="urn:uuid:a2502e6c-faf7-4c24-8ce9-3c8d056599f7"/>
      <resource>
         <Observation>
            <id value="a2502e6c-faf7-4c24-8ce9-3c8d056599f7"/>
            <meta>
               <profile value="http://hl7.eu/fhir/laboratory/StructureDefinition/Observation-resultslab-eu-lab"/>
            </meta>
            <status value="final"/>
            <category>
               <coding>
                  <system value="http://terminology.hl7.org/CodeSystem/observation-category"/>
                  <code value="laboratory"/>
               </coding>
            </category>
            <code>
               <coding>
                  <system value="http://loinc.org"/>
                  <code value="2075-0"/>
                  <display value="Chloride [Moles/volume] in Serum or Plasma"/>
               </coding>
               <text value="Chloride [Moles/volume] in Serum or Plasma"/>
            </code>
            <subject>
               <reference value="urn:uuid:debb81b9-8de6-4b84-9a3f-e729c9f51c45"/>
            </subject>
            <effectiveDateTime value="2024-11-18"/>
            <performer>
               <display value="The Central European Lab"/>
            </performer>
            <valueQuantity>
               <value value="108"/>
               <unit value="mmol/L"/>
               <system value="http://unitsofmeasure.org"/>
               <code value="mmol/L"/>
            </valueQuantity>
            <specimen>
               <reference value="urn:uuid:4eeabcfa-cf03-4e9f-be01-64dd9fa96d5b"/>
            </specimen>
            <referenceRange>
               <low>
                  <value value="98"/>
                  <system value="http://unitsofmeasure.org"/>
                  <code value="mmol/L"/>
               </low>
            </referenceRange>
            <referenceRange>
               <high>
                  <value value="110"/>
                  <system value="http://unitsofmeasure.org"/>
                  <code value="mmol/L"/>
               </high>
            </referenceRange>
         </Observation>
      </resource>
   </entry>
   <entry>
      <fullUrl value="urn:uuid:462b29f2-8dd2-48ff-8b54-143f0be551ec"/>
      <resource>
         <Observation>
            <id value="462b29f2-8dd2-48ff-8b54-143f0be551ec"/>
            <meta>
               <profile value="http://hl7.eu/fhir/laboratory/StructureDefinition/Observation-resultslab-eu-lab"/>
            </meta>
            <status value="final"/>
            <category>
               <coding>
                  <system value="http://terminology.hl7.org/CodeSystem/observation-category"/>
                  <code value="laboratory"/>
               </coding>
            </category>
            <code>
               <coding>
                  <system value="http://loinc.org"/>
                  <code value="2028-9"/>
                  <display value="Carbon dioxide, total [Moles/volume] in Serum or Plasma"/>
               </coding>
               <text value="Carbon dioxide, total [Moles/volume] in Serum or Plasma"/>
            </code>
            <subject>
               <reference value="urn:uuid:debb81b9-8de6-4b84-9a3f-e729c9f51c45"/>
            </subject>
            <effectiveDateTime value="2024-11-18"/>
            <performer>
               <display value="The Central European Lab"/>
            </performer>
            <valueQuantity>
               <value value="20.5"/>
               <unit value="mmol/L"/>
               <system value="http://unitsofmeasure.org"/>
               <code value="mmol/L"/>
            </valueQuantity>
            <interpretation>
               <coding>
                  <system value="http://terminology.hl7.org/CodeSystem/v3-ObservationInterpretation"/>
                  <code value="L"/>
                  <display value="Low"/>
               </coding>
            </interpretation>
            <specimen>
               <reference value="urn:uuid:4eeabcfa-cf03-4e9f-be01-64dd9fa96d5b"/>
            </specimen>
            <referenceRange>
               <low>
                  <value value="22"/>
                  <system value="http://unitsofmeasure.org"/>
                  <code value="mmol/L"/>
               </low>
            </referenceRange>
            <referenceRange>
               <high>
                  <value value="29"/>
                  <system value="http://unitsofmeasure.org"/>
                  <code value="mmol/L"/>
               </high>
            </referenceRange>
         </Observation>
      </resource>
   </entry>
   <entry>
      <fullUrl value="urn:uuid:d88d416e-4002-478d-aea3-03cb45420433"/>
      <resource>
         <Observation>
            <id value="d88d416e-4002-478d-aea3-03cb45420433"/>
            <meta>
               <profile value="http://hl7.eu/fhir/laboratory/StructureDefinition/Observation-resultslab-eu-lab"/>
            </meta>
            <status value="final"/>
            <category>
               <coding>
                  <system value="http://terminology.hl7.org/CodeSystem/observation-category"/>
                  <code value="laboratory"/>
               </coding>
            </category>
            <code>
               <coding>
                  <system value="http://loinc.org"/>
                  <code value="2885-2"/>
                  <display value="Protein [Mass/volume] in Serum or Plasma"/>
               </coding>
               <text value="Protein [Mass/volume] in Serum or Plasma"/>
            </code>
            <subject>
               <reference value="urn:uuid:debb81b9-8de6-4b84-9a3f-e729c9f51c45"/>
            </subject>
            <effectiveDateTime value="2024-11-18"/>
            <performer>
               <display value="The Central European Lab"/>
            </performer>
            <valueQuantity>
               <value value="6"/>
               <unit value="g/dL"/>
               <system value="http://unitsofmeasure.org"/>
               <code value="g/dL"/>
            </valueQuantity>
            <specimen>
               <reference value="urn:uuid:4eeabcfa-cf03-4e9f-be01-64dd9fa96d5b"/>
            </specimen>
            <referenceRange>
               <low>
                  <value value="6"/>
                  <system value="http://unitsofmeasure.org"/>
                  <code value="g/dL"/>
               </low>
            </referenceRange>
            <referenceRange>
               <high>
                  <value value="8.3"/>
                  <system value="http://unitsofmeasure.org"/>
                  <code value="g/dL"/>
               </high>
            </referenceRange>
         </Observation>
      </resource>
   </entry>
   <entry>
      <fullUrl value="urn:uuid:8c2e4d21-d345-43d0-ad9f-f63a95840f01"/>
      <resource>
         <Observation>
            <id value="8c2e4d21-d345-43d0-ad9f-f63a95840f01"/>
            <meta>
               <profile value="http://hl7.eu/fhir/laboratory/StructureDefinition/Observation-resultslab-eu-lab"/>
            </meta>
            <status value="final"/>
            <category>
               <coding>
                  <system value="http://terminology.hl7.org/CodeSystem/observation-category"/>
                  <code value="laboratory"/>
               </coding>
            </category>
            <code>
               <coding>
                  <system value="http://loinc.org"/>
                  <code value="1751-7"/>
                  <display value="Albumin [Mass/volume] in Serum or Plasma"/>
               </coding>
               <text value="Albumin [Mass/volume] in Serum or Plasma"/>
            </code>
            <subject>
               <reference value="urn:uuid:debb81b9-8de6-4b84-9a3f-e729c9f51c45"/>
            </subject>
            <effectiveDateTime value="2024-11-18"/>
            <performer>
               <display value="The Central European Lab"/>
            </performer>
            <valueQuantity>
               <value value="3.6"/>
               <unit value="g/dL"/>
               <system value="http://unitsofmeasure.org"/>
               <code value="g/dL"/>
            </valueQuantity>
            <specimen>
               <reference value="urn:uuid:4eeabcfa-cf03-4e9f-be01-64dd9fa96d5b"/>
            </specimen>
            <referenceRange>
               <low>
                  <value value="3.4"/>
                  <system value="http://unitsofmeasure.org"/>
                  <code value="g/dL"/>
               </low>
            </referenceRange>
            <referenceRange>
               <high>
                  <value value="5"/>
                  <system value="http://unitsofmeasure.org"/>
                  <code value="g/dL"/>
               </high>
            </referenceRange>
         </Observation>
      </resource>
   </entry>
   <entry>
      <fullUrl value="urn:uuid:2241422b-1bf5-473d-8ebc-57d00ea78776"/>
      <resource>
         <Observation>
            <id value="2241422b-1bf5-473d-8ebc-57d00ea78776"/>
            <meta>
               <profile value="http://hl7.eu/fhir/laboratory/StructureDefinition/Observation-resultslab-eu-lab"/>
            </meta>
            <status value="final"/>
            <category>
               <coding>
                  <system value="http://terminology.hl7.org/CodeSystem/observation-category"/>
                  <code value="laboratory"/>
               </coding>
            </category>
            <code>
               <coding>
                  <system value="http://loinc.org"/>
                  <code value="1975-2"/>
                  <display value="Bilirubin.total [Mass/volume] in Serum or Plasma"/>
               </coding>
               <text value="Bilirubin.total [Mass/volume] in Serum or Plasma"/>
            </code>
            <subject>
               <reference value="urn:uuid:debb81b9-8de6-4b84-9a3f-e729c9f51c45"/>
            </subject>
            <effectiveDateTime value="2024-11-18"/>
            <performer>
               <display value="The Central European Lab"/>
            </performer>
            <valueQuantity>
               <value value="8.3"/>
               <unit value="mg/dL"/>
               <system value="http://unitsofmeasure.org"/>
               <code value="mg/dL"/>
            </valueQuantity>
            <interpretation>
               <coding>
                  <system value="http://terminology.hl7.org/CodeSystem/v3-ObservationInterpretation"/>
                  <code value="H"/>
                  <display value="High"/>
               </coding>
            </interpretation>
            <specimen>
               <reference value="urn:uuid:4eeabcfa-cf03-4e9f-be01-64dd9fa96d5b"/>
            </specimen>
            <referenceRange>
               <low>
                  <value value="0.3"/>
                  <system value="http://unitsofmeasure.org"/>
                  <code value="mg/dL"/>
               </low>
            </referenceRange>
            <referenceRange>
               <high>
                  <value value="1.2"/>
                  <system value="http://unitsofmeasure.org"/>
                  <code value="mg/dL"/>
               </high>
            </referenceRange>
         </Observation>
      </resource>
   </entry>
   <entry>
      <fullUrl value="urn:uuid:540ec794-d226-4192-933c-8d45d66535d7"/>
      <resource>
         <Observation>
            <id value="540ec794-d226-4192-933c-8d45d66535d7"/>
            <meta>
               <profile value="http://hl7.eu/fhir/laboratory/StructureDefinition/Observation-resultslab-eu-lab"/>
            </meta>
            <status value="final"/>
            <category>
               <coding>
                  <system value="http://terminology.hl7.org/CodeSystem/observation-category"/>
                  <code value="laboratory"/>
               </coding>
            </category>
            <code>
               <coding>
                  <system value="http://loinc.org"/>
                  <code value="6768-6"/>
                  <display value="Alkaline phosphatase [Enzymatic activity/volume] in Serum or Plasma"/>
               </coding>
               <text value="Alkaline phosphatase [Enzymatic activity/volume] in Serum or Plasma"/>
            </code>
            <subject>
               <reference value="urn:uuid:debb81b9-8de6-4b84-9a3f-e729c9f51c45"/>
            </subject>
            <effectiveDateTime value="2024-11-18"/>
            <performer>
               <display value="The Central European Lab"/>
            </performer>
            <valueQuantity>
               <value value="79.3"/>
               <unit value="U/L"/>
               <system value="http://unitsofmeasure.org"/>
               <code value="U/L"/>
            </valueQuantity>
            <specimen>
               <reference value="urn:uuid:4eeabcfa-cf03-4e9f-be01-64dd9fa96d5b"/>
            </specimen>
            <referenceRange>
               <low>
                  <value value="53"/>
                  <system value="http://unitsofmeasure.org"/>
                  <code value="U/L"/>
               </low>
            </referenceRange>
            <referenceRange>
               <high>
                  <value value="117"/>
                  <system value="http://unitsofmeasure.org"/>
                  <code value="U/L"/>
               </high>
            </referenceRange>
         </Observation>
      </resource>
   </entry>
   <entry>
      <fullUrl value="urn:uuid:7a4f0757-a288-4730-af2b-29c61d27af9f"/>
      <resource>
         <Observation>
            <id value="7a4f0757-a288-4730-af2b-29c61d27af9f"/>
            <meta>
               <profile value="http://hl7.eu/fhir/laboratory/StructureDefinition/Observation-resultslab-eu-lab"/>
            </meta>
            <status value="final"/>
            <category>
               <coding>
                  <system value="http://terminology.hl7.org/CodeSystem/observation-category"/>
                  <code value="laboratory"/>
               </coding>
            </category>
            <code>
               <coding>
                  <system value="http://loinc.org"/>
                  <code value="1742-6"/>
                  <display value="Alanine aminotransferase [Enzymatic activity/volume] in Serum or Plasma"/>
               </coding>
               <text value="Alanine aminotransferase [Enzymatic activity/volume] in Serum or Plasma"/>
            </code>
            <subject>
               <reference value="urn:uuid:debb81b9-8de6-4b84-9a3f-e729c9f51c45"/>
            </subject>
            <effectiveDateTime value="2024-11-18"/>
            <performer>
               <display value="The Central European Lab"/>
            </performer>
            <valueQuantity>
               <value value="23.9"/>
               <unit value="U/L"/>
               <system value="http://unitsofmeasure.org"/>
               <code value="U/L"/>
            </valueQuantity>
            <specimen>
               <reference value="urn:uuid:4eeabcfa-cf03-4e9f-be01-64dd9fa96d5b"/>
            </specimen>
            <referenceRange>
               <low>
                  <value value="7"/>
                  <system value="http://unitsofmeasure.org"/>
                  <code value="U/L"/>
               </low>
            </referenceRange>
            <referenceRange>
               <high>
                  <value value="55"/>
                  <system value="http://unitsofmeasure.org"/>
                  <code value="U/L"/>
               </high>
            </referenceRange>
         </Observation>
      </resource>
   </entry>
   <entry>
      <fullUrl value="urn:uuid:c208506d-e61e-4406-b235-eea687892591"/>
      <resource>
         <Observation>
            <id value="c208506d-e61e-4406-b235-eea687892591"/>
            <meta>
               <profile value="http://hl7.eu/fhir/laboratory/StructureDefinition/Observation-resultslab-eu-lab"/>
            </meta>
            <status value="final"/>
            <category>
               <coding>
                  <system value="http://terminology.hl7.org/CodeSystem/observation-category"/>
                  <code value="laboratory"/>
               </coding>
            </category>
            <code>
               <coding>
                  <system value="http://loinc.org"/>
                  <code value="1920-8"/>
                  <display value="Aspartate aminotransferase [Enzymatic activity/volume] in Serum or Plasma"/>
               </coding>
               <text value="Aspartate aminotransferase [Enzymatic activity/volume] in Serum or Plasma"/>
            </code>
            <subject>
               <reference value="urn:uuid:debb81b9-8de6-4b84-9a3f-e729c9f51c45"/>
            </subject>
            <effectiveDateTime value="2024-11-18"/>
            <performer>
               <display value="The Central European Lab"/>
            </performer>
            <valueQuantity>
               <value value="27.1"/>
               <unit value="U/L"/>
               <system value="http://unitsofmeasure.org"/>
               <code value="U/L"/>
            </valueQuantity>
            <specimen>
               <reference value="urn:uuid:4eeabcfa-cf03-4e9f-be01-64dd9fa96d5b"/>
            </specimen>
            <referenceRange>
               <low>
                  <value value="10"/>
                  <system value="http://unitsofmeasure.org"/>
                  <code value="U/L"/>
               </low>
            </referenceRange>
            <referenceRange>
               <high>
                  <value value="33"/>
                  <system value="http://unitsofmeasure.org"/>
                  <code value="U/L"/>
               </high>
            </referenceRange>
         </Observation>
      </resource>
   </entry>
   <entry>
      <fullUrl value="urn:uuid:432d7fcd-4b74-44dc-9d37-5f11726cbf95"/>
      <resource>
         <Observation>
            <id value="432d7fcd-4b74-44dc-9d37-5f11726cbf95"/>
            <meta>
               <profile value="http://hl7.eu/fhir/laboratory/StructureDefinition/Observation-resultslab-eu-lab"/>
            </meta>
            <status value="final"/>
            <category>
               <coding>
                  <system value="http://terminology.hl7.org/CodeSystem/observation-category"/>
                  <code value="laboratory"/>
               </coding>
            </category>
            <code>
               <coding>
                  <system value="http://loinc.org"/>
                  <code value="2708-6"/>
                  <display value="Oxygen saturation in Arterial blood"/>
               </coding>
               <text value="Oxygen saturation in Arterial blood"/>
            </code>
            <subject>
               <reference value="urn:uuid:debb81b9-8de6-4b84-9a3f-e729c9f51c45"/>
            </subject>
            <effectiveDateTime value="2024-11-18"/>
            <performer>
               <display value="The Central European Lab"/>
            </performer>
            <valueQuantity>
               <value value="80.3"/>
               <unit value="%"/>
               <system value="http://unitsofmeasure.org"/>
               <code value="%"/>
            </valueQuantity>
            <interpretation>
               <coding>
                  <system value="http://terminology.hl7.org/CodeSystem/v3-ObservationInterpretation"/>
                  <code value="L"/>
                  <display value="Low"/>
               </coding>
            </interpretation>
            <specimen>
               <reference value="urn:uuid:71558956-12f2-4b3b-99cd-7236bfe9e287"/>
            </specimen>
            <referenceRange>
               <low>
                  <value value="95"/>
                  <system value="http://unitsofmeasure.org"/>
                  <code value="%"/>
               </low>
            </referenceRange>
            <referenceRange>
               <high>
                  <value value="100"/>
                  <system value="http://unitsofmeasure.org"/>
                  <code value="%"/>
               </high>
            </referenceRange>
         </Observation>
      </resource>
   </entry>
   <entry>
      <fullUrl value="urn:uuid:f1a3b8d5-8c59-4d43-802d-1df57a2fcae4"/>
      <resource>
         <Observation>
            <id value="f1a3b8d5-8c59-4d43-802d-1df57a2fcae4"/>
            <meta>
               <profile value="http://hl7.eu/fhir/laboratory/StructureDefinition/Observation-resultslab-eu-lab"/>
            </meta>
            <status value="final"/>
            <category>
               <coding>
                  <system value="http://terminology.hl7.org/CodeSystem/observation-category"/>
                  <code value="laboratory"/>
               </coding>
            </category>
            <code>
               <coding>
                  <system value="http://loinc.org"/>
                  <code value="6690-2"/>
                  <display value="Leukocytes [#/volume] in Blood by Automated count"/>
               </coding>
               <text value="Leukocytes [#/volume] in Blood by Automated count"/>
            </code>
            <subject>
               <reference value="urn:uuid:debb81b9-8de6-4b84-9a3f-e729c9f51c45"/>
            </subject>
            <effectiveDateTime value="2024-11-18"/>
            <performer>
               <display value="The Central European Lab"/>
            </performer>
            <valueQuantity>
               <value value="3.5"/>
               <unit value="10*3/uL"/>
               <system value="http://unitsofmeasure.org"/>
               <code value="10*3/uL"/>
            </valueQuantity>
            <specimen>
               <reference value="urn:uuid:4d6800a3-19ff-4638-b3b7-352bdf385c42"/>
            </specimen>
            <referenceRange>
               <low>
                  <value value="3.5"/>
                  <system value="http://unitsofmeasure.org"/>
                  <code value="10*3/uL"/>
               </low>
            </referenceRange>
            <referenceRange>
               <high>
                  <value value="10.5"/>
                  <system value="http://unitsofmeasure.org"/>
                  <code value="10*3/uL"/>
               </high>
            </referenceRange>
         </Observation>
      </resource>
   </entry>
   <entry>
      <fullUrl value="urn:uuid:b00c2daa-ff39-45ef-8c51-003d3bbbeb89"/>
      <resource>
         <Observation>
            <id value="b00c2daa-ff39-45ef-8c51-003d3bbbeb89"/>
            <meta>
               <profile value="http://hl7.eu/fhir/laboratory/StructureDefinition/Observation-resultslab-eu-lab"/>
            </meta>
            <status value="final"/>
            <category>
               <coding>
                  <system value="http://terminology.hl7.org/CodeSystem/observation-category"/>
                  <code value="laboratory"/>
               </coding>
            </category>
            <code>
               <coding>
                  <system value="http://loinc.org"/>
                  <code value="789-8"/>
                  <display value="Erythrocytes [#/volume] in Blood by Automated count"/>
               </coding>
               <text value="Erythrocytes [#/volume] in Blood by Automated count"/>
            </code>
            <subject>
               <reference value="urn:uuid:debb81b9-8de6-4b84-9a3f-e729c9f51c45"/>
            </subject>
            <effectiveDateTime value="2024-11-18"/>
            <performer>
               <display value="The Central European Lab"/>
            </performer>
            <valueQuantity>
               <value value="5.1"/>
               <unit value="10*6/uL"/>
               <system value="http://unitsofmeasure.org"/>
               <code value="10*6/uL"/>
            </valueQuantity>
            <specimen>
               <reference value="urn:uuid:4d6800a3-19ff-4638-b3b7-352bdf385c42"/>
            </specimen>
            <referenceRange>
               <low>
                  <value value="4.5"/>
                  <system value="http://unitsofmeasure.org"/>
                  <code value="10*6/uL"/>
               </low>
            </referenceRange>
            <referenceRange>
               <high>
                  <value value="5.5"/>
                  <system value="http://unitsofmeasure.org"/>
                  <code value="10*6/uL"/>
               </high>
            </referenceRange>
         </Observation>
      </resource>
   </entry>
   <entry>
      <fullUrl value="urn:uuid:f77850f4-4f1e-4c0a-9f83-115ef72931f8"/>
      <resource>
         <Observation>
            <id value="f77850f4-4f1e-4c0a-9f83-115ef72931f8"/>
            <meta>
               <profile value="http://hl7.eu/fhir/laboratory/StructureDefinition/Observation-resultslab-eu-lab"/>
            </meta>
            <status value="final"/>
            <category>
               <coding>
                  <system value="http://terminology.hl7.org/CodeSystem/observation-category"/>
                  <code value="laboratory"/>
               </coding>
            </category>
            <code>
               <coding>
                  <system value="http://loinc.org"/>
                  <code value="718-7"/>
                  <display value="Hemoglobin [Mass/volume] in Blood"/>
               </coding>
               <text value="Hemoglobin [Mass/volume] in Blood"/>
            </code>
            <subject>
               <reference value="urn:uuid:debb81b9-8de6-4b84-9a3f-e729c9f51c45"/>
            </subject>
            <effectiveDateTime value="2024-11-18"/>
            <performer>
               <display value="The Central European Lab"/>
            </performer>
            <valueQuantity>
               <value value="11.2"/>
               <unit value="g/dL"/>
               <system value="http://unitsofmeasure.org"/>
               <code value="g/dL"/>
            </valueQuantity>
            <interpretation>
               <coding>
                  <system value="http://terminology.hl7.org/CodeSystem/v3-ObservationInterpretation"/>
                  <code value="L"/>
                  <display value="Low"/>
               </coding>
            </interpretation>
            <specimen>
               <reference value="urn:uuid:4d6800a3-19ff-4638-b3b7-352bdf385c42"/>
            </specimen>
            <referenceRange>
               <low>
                  <value value="12.1"/>
                  <system value="http://unitsofmeasure.org"/>
                  <code value="g/dL"/>
               </low>
            </referenceRange>
            <referenceRange>
               <high>
                  <value value="15.5"/>
                  <system value="http://unitsofmeasure.org"/>
                  <code value="g/dL"/>
               </high>
            </referenceRange>
         </Observation>
      </resource>
   </entry>
   <entry>
      <fullUrl value="urn:uuid:adaf3ea1-301c-4ac2-917d-335aab17baba"/>
      <resource>
         <Observation>
            <id value="adaf3ea1-301c-4ac2-917d-335aab17baba"/>
            <meta>
               <profile value="http://hl7.eu/fhir/laboratory/StructureDefinition/Observation-resultslab-eu-lab"/>
            </meta>
            <status value="final"/>
            <category>
               <coding>
                  <system value="http://terminology.hl7.org/CodeSystem/observation-category"/>
                  <code value="laboratory"/>
               </coding>
            </category>
            <code>
               <coding>
                  <system value="http://loinc.org"/>
                  <code value="4544-3"/>
                  <display value="Hematocrit [Volume Fraction] of Blood by Automated count"/>
               </coding>
               <text value="Hematocrit [Volume Fraction] of Blood by Automated count"/>
            </code>
            <subject>
               <reference value="urn:uuid:debb81b9-8de6-4b84-9a3f-e729c9f51c45"/>
            </subject>
            <effectiveDateTime value="2024-11-18"/>
            <performer>
               <display value="The Central European Lab"/>
            </performer>
            <valueQuantity>
               <value value="45.7"/>
               <unit value="%"/>
               <system value="http://unitsofmeasure.org"/>
               <code value="%"/>
            </valueQuantity>
            <specimen>
               <reference value="urn:uuid:4d6800a3-19ff-4638-b3b7-352bdf385c42"/>
            </specimen>
            <referenceRange>
               <low>
                  <value value="35"/>
                  <system value="http://unitsofmeasure.org"/>
                  <code value="%"/>
               </low>
            </referenceRange>
            <referenceRange>
               <high>
                  <value value="52"/>
                  <system value="http://unitsofmeasure.org"/>
                  <code value="%"/>
               </high>
            </referenceRange>
         </Observation>
      </resource>
   </entry>
   <entry>
      <fullUrl value="urn:uuid:929cea84-dbe5-4049-a376-ba3be4ae4311"/>
      <resource>
         <Observation>
            <id value="929cea84-dbe5-4049-a376-ba3be4ae4311"/>
            <meta>
               <profile value="http://hl7.eu/fhir/laboratory/StructureDefinition/Observation-resultslab-eu-lab"/>
            </meta>
            <status value="final"/>
            <category>
               <coding>
                  <system value="http://terminology.hl7.org/CodeSystem/observation-category"/>
                  <code value="laboratory"/>
               </coding>
            </category>
            <code>
               <coding>
                  <system value="http://loinc.org"/>
                  <code value="787-2"/>
                  <display value="MCV [Entitic volume] by Automated count"/>
               </coding>
               <text value="MCV [Entitic volume] by Automated count"/>
            </code>
            <subject>
               <reference value="urn:uuid:debb81b9-8de6-4b84-9a3f-e729c9f51c45"/>
            </subject>
            <effectiveDateTime value="2024-11-18"/>
            <performer>
               <display value="The Central European Lab"/>
            </performer>
            <valueQuantity>
               <value value="83.6"/>
               <unit value="fL"/>
               <system value="http://unitsofmeasure.org"/>
               <code value="fL"/>
            </valueQuantity>
            <specimen>
               <reference value="urn:uuid:6dd34182-7866-4bd8-8224-3ac90f4d0d5c"/>
            </specimen>
            <referenceRange>
               <low>
                  <value value="82"/>
                  <system value="http://unitsofmeasure.org"/>
                  <code value="fL"/>
               </low>
            </referenceRange>
            <referenceRange>
               <high>
                  <value value="98"/>
                  <system value="http://unitsofmeasure.org"/>
                  <code value="fL"/>
               </high>
            </referenceRange>
         </Observation>
      </resource>
   </entry>
   <entry>
      <fullUrl value="urn:uuid:b08da06e-f65f-426a-925e-729d8005e9f1"/>
      <resource>
         <Observation>
            <id value="b08da06e-f65f-426a-925e-729d8005e9f1"/>
            <meta>
               <profile value="http://hl7.eu/fhir/laboratory/StructureDefinition/Observation-resultslab-eu-lab"/>
            </meta>
            <status value="final"/>
            <category>
               <coding>
                  <system value="http://terminology.hl7.org/CodeSystem/observation-category"/>
                  <code value="laboratory"/>
               </coding>
            </category>
            <code>
               <coding>
                  <system value="http://loinc.org"/>
                  <code value="785-6"/>
                  <display value="MCH [Entitic mass] by Automated count"/>
               </coding>
               <text value="MCH [Entitic mass] by Automated count"/>
            </code>
            <subject>
               <reference value="urn:uuid:debb81b9-8de6-4b84-9a3f-e729c9f51c45"/>
            </subject>
            <effectiveDateTime value="2024-11-18"/>
            <performer>
               <display value="The Central European Lab"/>
            </performer>
            <valueQuantity>
               <value value="29.5"/>
               <unit value="pg"/>
               <system value="http://unitsofmeasure.org"/>
               <code value="pg"/>
            </valueQuantity>
            <specimen>
               <reference value="urn:uuid:6dd34182-7866-4bd8-8224-3ac90f4d0d5c"/>
            </specimen>
            <referenceRange>
               <low>
                  <value value="27"/>
                  <system value="http://unitsofmeasure.org"/>
                  <code value="pg"/>
               </low>
            </referenceRange>
            <referenceRange>
               <high>
                  <value value="34"/>
                  <system value="http://unitsofmeasure.org"/>
                  <code value="pg"/>
               </high>
            </referenceRange>
         </Observation>
      </resource>
   </entry>
   <entry>
      <fullUrl value="urn:uuid:51a5bc47-8872-475f-81c5-b74a2419b381"/>
      <resource>
         <Observation>
            <id value="51a5bc47-8872-475f-81c5-b74a2419b381"/>
            <meta>
               <profile value="http://hl7.eu/fhir/laboratory/StructureDefinition/Observation-resultslab-eu-lab"/>
            </meta>
            <status value="final"/>
            <category>
               <coding>
                  <system value="http://terminology.hl7.org/CodeSystem/observation-category"/>
                  <code value="laboratory"/>
               </coding>
            </category>
            <code>
               <coding>
                  <system value="http://loinc.org"/>
                  <code value="786-4"/>
                  <display value="MCHC [Mass/volume] by Automated count"/>
               </coding>
               <text value="MCHC [Mass/volume] by Automated count"/>
            </code>
            <subject>
               <reference value="urn:uuid:debb81b9-8de6-4b84-9a3f-e729c9f51c45"/>
            </subject>
            <effectiveDateTime value="2024-11-18"/>
            <performer>
               <display value="The Central European Lab"/>
            </performer>
            <valueQuantity>
               <value value="33.5"/>
               <unit value="g/dL"/>
               <system value="http://unitsofmeasure.org"/>
               <code value="g/dL"/>
            </valueQuantity>
            <specimen>
               <reference value="urn:uuid:6dd34182-7866-4bd8-8224-3ac90f4d0d5c"/>
            </specimen>
            <referenceRange>
               <low>
                  <value value="31"/>
                  <system value="http://unitsofmeasure.org"/>
                  <code value="g/dL"/>
               </low>
            </referenceRange>
            <referenceRange>
               <high>
                  <value value="35"/>
                  <system value="http://unitsofmeasure.org"/>
                  <code value="g/dL"/>
               </high>
            </referenceRange>
         </Observation>
      </resource>
   </entry>
   <entry>
      <fullUrl value="urn:uuid:e386bfca-134d-4fe9-ab00-3c4c076d34d6"/>
      <resource>
         <Observation>
            <id value="e386bfca-134d-4fe9-ab00-3c4c076d34d6"/>
            <meta>
               <profile value="http://hl7.eu/fhir/laboratory/StructureDefinition/Observation-resultslab-eu-lab"/>
            </meta>
            <status value="final"/>
            <category>
               <coding>
                  <system value="http://terminology.hl7.org/CodeSystem/observation-category"/>
                  <code value="laboratory"/>
               </coding>
            </category>
            <code>
               <coding>
                  <system value="http://loinc.org"/>
                  <code value="788-0"/>
                  <display value="Erythrocyte distribution width [Ratio] by Automated count"/>
               </coding>
               <text value="Erythrocyte distribution width [Ratio] by Automated count"/>
            </code>
            <subject>
               <reference value="urn:uuid:debb81b9-8de6-4b84-9a3f-e729c9f51c45"/>
            </subject>
            <effectiveDateTime value="2024-11-18"/>
            <performer>
               <display value="The Central European Lab"/>
            </performer>
            <valueQuantity>
               <value value="15.2"/>
               <unit value="%"/>
               <system value="http://unitsofmeasure.org"/>
               <code value="%"/>
            </valueQuantity>
            <specimen>
               <reference value="urn:uuid:6dd34182-7866-4bd8-8224-3ac90f4d0d5c"/>
            </specimen>
            <referenceRange>
               <low>
                  <value value="11.5"/>
                  <system value="http://unitsofmeasure.org"/>
                  <code value="%"/>
               </low>
            </referenceRange>
            <referenceRange>
               <high>
                  <value value="16.5"/>
                  <system value="http://unitsofmeasure.org"/>
                  <code value="%"/>
               </high>
            </referenceRange>
         </Observation>
      </resource>
   </entry>
   <entry>
      <fullUrl value="urn:uuid:e5eb6311-fefa-4641-9a39-db876feec0cd"/>
      <resource>
         <Observation>
            <id value="e5eb6311-fefa-4641-9a39-db876feec0cd"/>
            <meta>
               <profile value="http://hl7.eu/fhir/laboratory/StructureDefinition/Observation-resultslab-eu-lab"/>
            </meta>
            <status value="final"/>
            <category>
               <coding>
                  <system value="http://terminology.hl7.org/CodeSystem/observation-category"/>
                  <code value="laboratory"/>
               </coding>
            </category>
            <code>
               <coding>
                  <system value="http://loinc.org"/>
                  <code value="777-3"/>
                  <display value="Platelets [#/volume] in Blood by Automated count"/>
               </coding>
               <text value="Platelets [#/volume] in Blood by Automated count"/>
            </code>
            <subject>
               <reference value="urn:uuid:debb81b9-8de6-4b84-9a3f-e729c9f51c45"/>
            </subject>
            <effectiveDateTime value="2024-11-18"/>
            <performer>
               <display value="The Central European Lab"/>
            </performer>
            <valueQuantity>
               <value value="131.7"/>
               <unit value="10*3/uL"/>
               <system value="http://unitsofmeasure.org"/>
               <code value="10*3/uL"/>
            </valueQuantity>
            <interpretation>
               <coding>
                  <system value="http://terminology.hl7.org/CodeSystem/v3-ObservationInterpretation"/>
                  <code value="L"/>
                  <display value="Low"/>
               </coding>
            </interpretation>
            <specimen>
               <reference value="urn:uuid:4d6800a3-19ff-4638-b3b7-352bdf385c42"/>
            </specimen>
            <referenceRange>
               <low>
                  <value value="150"/>
                  <system value="http://unitsofmeasure.org"/>
                  <code value="10*3/uL"/>
               </low>
            </referenceRange>
            <referenceRange>
               <high>
                  <value value="400"/>
                  <system value="http://unitsofmeasure.org"/>
                  <code value="10*3/uL"/>
               </high>
            </referenceRange>
         </Observation>
      </resource>
   </entry>
   <entry>
      <fullUrl value="urn:uuid:3a7b3bf2-9015-4f48-a0f6-226bbe69ffc3"/>
      <resource>
         <Observation>
            <id value="3a7b3bf2-9015-4f48-a0f6-226bbe69ffc3"/>
            <meta>
               <profile value="http://hl7.eu/fhir/laboratory/StructureDefinition/Observation-resultslab-eu-lab"/>
            </meta>
            <status value="final"/>
            <category>
               <coding>
                  <system value="http://terminology.hl7.org/CodeSystem/observation-category"/>
                  <code value="laboratory"/>
               </coding>
            </category>
            <code>
               <coding>
                  <system value="http://loinc.org"/>
                  <code value="770-8"/>
                  <display value="Neutrophils/100 leukocytes in Blood by Automated count"/>
               </coding>
               <text value="Neutrophils/100 leukocytes in Blood by Automated count"/>
            </code>
            <subject>
               <reference value="urn:uuid:debb81b9-8de6-4b84-9a3f-e729c9f51c45"/>
            </subject>
            <effectiveDateTime value="2024-11-18"/>
            <performer>
               <display value="The Central European Lab"/>
            </performer>
            <valueQuantity>
               <value value="41.7"/>
               <unit value="%"/>
               <system value="http://unitsofmeasure.org"/>
               <code value="%"/>
            </valueQuantity>
            <specimen>
               <reference value="urn:uuid:4d6800a3-19ff-4638-b3b7-352bdf385c42"/>
            </specimen>
            <referenceRange>
               <low>
                  <value value="40"/>
                  <system value="http://unitsofmeasure.org"/>
                  <code value="%"/>
               </low>
            </referenceRange>
            <referenceRange>
               <high>
                  <value value="74.3"/>
                  <system value="http://unitsofmeasure.org"/>
                  <code value="%"/>
               </high>
            </referenceRange>
         </Observation>
      </resource>
   </entry>
   <entry>
      <fullUrl value="urn:uuid:e6a6d188-4a98-4e8b-a101-67ca0817dbf5"/>
      <resource>
         <Observation>
            <id value="e6a6d188-4a98-4e8b-a101-67ca0817dbf5"/>
            <meta>
               <profile value="http://hl7.eu/fhir/laboratory/StructureDefinition/Observation-resultslab-eu-lab"/>
            </meta>
            <status value="final"/>
            <category>
               <coding>
                  <system value="http://terminology.hl7.org/CodeSystem/observation-category"/>
                  <code value="laboratory"/>
               </coding>
            </category>
            <code>
               <coding>
                  <system value="http://loinc.org"/>
                  <code value="736-9"/>
                  <display value="Lymphocytes/100 leukocytes in Blood by Automated count"/>
               </coding>
               <text value="Lymphocytes/100 leukocytes in Blood by Automated count"/>
            </code>
            <subject>
               <reference value="urn:uuid:debb81b9-8de6-4b84-9a3f-e729c9f51c45"/>
            </subject>
            <effectiveDateTime value="2024-11-18"/>
            <performer>
               <display value="The Central European Lab"/>
            </performer>
            <valueQuantity>
               <value value="21.5"/>
               <unit value="%"/>
               <system value="http://unitsofmeasure.org"/>
               <code value="%"/>
            </valueQuantity>
            <specimen>
               <reference value="urn:uuid:4d6800a3-19ff-4638-b3b7-352bdf385c42"/>
            </specimen>
            <referenceRange>
               <low>
                  <value value="18"/>
                  <system value="http://unitsofmeasure.org"/>
                  <code value="%"/>
               </low>
            </referenceRange>
            <referenceRange>
               <high>
                  <value value="48"/>
                  <system value="http://unitsofmeasure.org"/>
                  <code value="%"/>
               </high>
            </referenceRange>
         </Observation>
      </resource>
   </entry>
   <entry>
      <fullUrl value="urn:uuid:730ce422-b770-43e2-b831-27001e743a9a"/>
      <resource>
         <Observation>
            <id value="730ce422-b770-43e2-b831-27001e743a9a"/>
            <meta>
               <profile value="http://hl7.eu/fhir/laboratory/StructureDefinition/Observation-resultslab-eu-lab"/>
            </meta>
            <status value="final"/>
            <category>
               <coding>
                  <system value="http://terminology.hl7.org/CodeSystem/observation-category"/>
                  <code value="laboratory"/>
               </coding>
            </category>
            <code>
               <coding>
                  <system value="http://loinc.org"/>
                  <code value="5905-5"/>
                  <display value="Monocytes/100 leukocytes in Blood by Automated count"/>
               </coding>
               <text value="Monocytes/100 leukocytes in Blood by Automated count"/>
            </code>
            <subject>
               <reference value="urn:uuid:debb81b9-8de6-4b84-9a3f-e729c9f51c45"/>
            </subject>
            <effectiveDateTime value="2024-11-18"/>
            <performer>
               <display value="The Central European Lab"/>
            </performer>
            <valueQuantity>
               <value value="9.2"/>
               <unit value="%"/>
               <system value="http://unitsofmeasure.org"/>
               <code value="%"/>
            </valueQuantity>
            <specimen>
               <reference value="urn:uuid:4d6800a3-19ff-4638-b3b7-352bdf385c42"/>
            </specimen>
            <referenceRange>
               <low>
                  <value value="2"/>
                  <system value="http://unitsofmeasure.org"/>
                  <code value="%"/>
               </low>
            </referenceRange>
            <referenceRange>
               <high>
                  <value value="11"/>
                  <system value="http://unitsofmeasure.org"/>
                  <code value="%"/>
               </high>
            </referenceRange>
         </Observation>
      </resource>
   </entry>
   <entry>
      <fullUrl value="urn:uuid:aed2f538-4c4c-4fc4-94ae-b3d647f9e6c8"/>
      <resource>
         <Observation>
            <id value="aed2f538-4c4c-4fc4-94ae-b3d647f9e6c8"/>
            <meta>
               <profile value="http://hl7.eu/fhir/laboratory/StructureDefinition/Observation-resultslab-eu-lab"/>
            </meta>
            <status value="final"/>
            <category>
               <coding>
                  <system value="http://terminology.hl7.org/CodeSystem/observation-category"/>
                  <code value="laboratory"/>
               </coding>
            </category>
            <code>
               <coding>
                  <system value="http://loinc.org"/>
                  <code value="713-8"/>
                  <display value="Eosinophils/100 leukocytes in Blood by Automated count"/>
               </coding>
               <text value="Eosinophils/100 leukocytes in Blood by Automated count"/>
            </code>
            <subject>
               <reference value="urn:uuid:debb81b9-8de6-4b84-9a3f-e729c9f51c45"/>
            </subject>
            <effectiveDateTime value="2024-11-18"/>
            <performer>
               <display value="The Central European Lab"/>
            </performer>
            <valueQuantity>
               <value value="4.1"/>
               <unit value="%"/>
               <system value="http://unitsofmeasure.org"/>
               <code value="%"/>
            </valueQuantity>
            <specimen>
               <reference value="urn:uuid:4d6800a3-19ff-4638-b3b7-352bdf385c42"/>
            </specimen>
            <referenceRange>
               <low>
                  <value value="0"/>
                  <system value="http://unitsofmeasure.org"/>
                  <code value="%"/>
               </low>
            </referenceRange>
            <referenceRange>
               <high>
                  <value value="7"/>
                  <system value="http://unitsofmeasure.org"/>
                  <code value="%"/>
               </high>
            </referenceRange>
         </Observation>
      </resource>
   </entry>
   <entry>
      <fullUrl value="urn:uuid:21909b0e-5088-49be-9afa-ef592ba84143"/>
      <resource>
         <Observation>
            <id value="21909b0e-5088-49be-9afa-ef592ba84143"/>
            <meta>
               <profile value="http://hl7.eu/fhir/laboratory/StructureDefinition/Observation-resultslab-eu-lab"/>
            </meta>
            <status value="final"/>
            <category>
               <coding>
                  <system value="http://terminology.hl7.org/CodeSystem/observation-category"/>
                  <code value="laboratory"/>
               </coding>
            </category>
            <code>
               <coding>
                  <system value="http://loinc.org"/>
                  <code value="706-2"/>
                  <display value="Basophils/100 leukocytes in Blood by Automated count"/>
               </coding>
               <text value="Basophils/100 leukocytes in Blood by Automated count"/>
            </code>
            <subject>
               <reference value="urn:uuid:debb81b9-8de6-4b84-9a3f-e729c9f51c45"/>
            </subject>
            <effectiveDateTime value="2024-11-18"/>
            <performer>
               <display value="The Central European Lab"/>
            </performer>
            <valueQuantity>
               <value value="2.6"/>
               <unit value="%"/>
               <system value="http://unitsofmeasure.org"/>
               <code value="%"/>
            </valueQuantity>
            <specimen>
               <reference value="urn:uuid:4d6800a3-19ff-4638-b3b7-352bdf385c42"/>
            </specimen>
            <referenceRange>
               <low>
                  <value value="0.5"/>
                  <system value="http://unitsofmeasure.org"/>
                  <code value="%"/>
               </low>
            </referenceRange>
            <referenceRange>
               <high>
                  <value value="3"/>
                  <system value="http://unitsofmeasure.org"/>
                  <code value="%"/>
               </high>
            </referenceRange>
         </Observation>
      </resource>
   </entry>
   <entry>
      <fullUrl value="urn:uuid:1beb645c-8043-4a18-800f-a7e8c2e11569"/>
      <resource>
         <Observation>
            <id value="1beb645c-8043-4a18-800f-a7e8c2e11569"/>
            <meta>
               <profile value="http://hl7.eu/fhir/laboratory/StructureDefinition/Observation-resultslab-eu-lab"/>
            </meta>
            <status value="final"/>
            <category>
               <coding>
                  <system value="http://terminology.hl7.org/CodeSystem/observation-category"/>
                  <code value="laboratory"/>
               </coding>
            </category>
            <code>
               <coding>
                  <system value="http://loinc.org"/>
                  <code value="751-8"/>
                  <display value="Neutrophils [#/volume] in Blood by Automated count"/>
               </coding>
               <text value="Neutrophils [#/volume] in Blood by Automated count"/>
            </code>
            <subject>
               <reference value="urn:uuid:debb81b9-8de6-4b84-9a3f-e729c9f51c45"/>
            </subject>
            <effectiveDateTime value="2024-11-18"/>
            <performer>
               <display value="The Central European Lab"/>
            </performer>
            <valueQuantity>
               <value value="2.2"/>
               <unit value="10*3/uL"/>
               <system value="http://unitsofmeasure.org"/>
               <code value="10*3/uL"/>
            </valueQuantity>
            <specimen>
               <reference value="urn:uuid:4d6800a3-19ff-4638-b3b7-352bdf385c42"/>
            </specimen>
            <referenceRange>
               <low>
                  <value value="2"/>
                  <system value="http://unitsofmeasure.org"/>
                  <code value="10*3/uL"/>
               </low>
            </referenceRange>
            <referenceRange>
               <high>
                  <value value="7.7"/>
                  <system value="http://unitsofmeasure.org"/>
                  <code value="10*3/uL"/>
               </high>
            </referenceRange>
         </Observation>
      </resource>
   </entry>
   <entry>
      <fullUrl value="urn:uuid:b82c4e32-a0c7-4895-84c2-50298c14373c"/>
      <resource>
         <Observation>
            <id value="b82c4e32-a0c7-4895-84c2-50298c14373c"/>
            <meta>
               <profile value="http://hl7.eu/fhir/laboratory/StructureDefinition/Observation-resultslab-eu-lab"/>
            </meta>
            <status value="final"/>
            <category>
               <coding>
                  <system value="http://terminology.hl7.org/CodeSystem/observation-category"/>
                  <code value="laboratory"/>
               </coding>
            </category>
            <code>
               <coding>
                  <system value="http://loinc.org"/>
                  <code value="731-0"/>
                  <display value="Lymphocytes [#/volume] in Blood by Automated count"/>
               </coding>
               <text value="Lymphocytes [#/volume] in Blood by Automated count"/>
            </code>
            <subject>
               <reference value="urn:uuid:debb81b9-8de6-4b84-9a3f-e729c9f51c45"/>
            </subject>
            <effectiveDateTime value="2024-11-18"/>
            <performer>
               <display value="The Central European Lab"/>
            </performer>
            <valueQuantity>
               <value value="1.2"/>
               <unit value="10*3/uL"/>
               <system value="http://unitsofmeasure.org"/>
               <code value="10*3/uL"/>
            </valueQuantity>
            <specimen>
               <reference value="urn:uuid:4d6800a3-19ff-4638-b3b7-352bdf385c42"/>
            </specimen>
            <referenceRange>
               <low>
                  <value value="0.7"/>
                  <system value="http://unitsofmeasure.org"/>
                  <code value="10*3/uL"/>
               </low>
            </referenceRange>
            <referenceRange>
               <high>
                  <value value="3.4"/>
                  <system value="http://unitsofmeasure.org"/>
                  <code value="10*3/uL"/>
               </high>
            </referenceRange>
         </Observation>
      </resource>
   </entry>
   <entry>
      <fullUrl value="urn:uuid:7b2ebcb5-5836-4de6-a6be-3a55bae7f4d0"/>
      <resource>
         <Observation>
            <id value="7b2ebcb5-5836-4de6-a6be-3a55bae7f4d0"/>
            <meta>
               <profile value="http://hl7.eu/fhir/laboratory/StructureDefinition/Observation-resultslab-eu-lab"/>
            </meta>
            <status value="final"/>
            <category>
               <coding>
                  <system value="http://terminology.hl7.org/CodeSystem/observation-category"/>
                  <code value="laboratory"/>
               </coding>
            </category>
            <code>
               <coding>
                  <system value="http://loinc.org"/>
                  <code value="742-7"/>
                  <display value="Monocytes [#/volume] in Blood by Automated count"/>
               </coding>
               <text value="Monocytes [#/volume] in Blood by Automated count"/>
            </code>
            <subject>
               <reference value="urn:uuid:debb81b9-8de6-4b84-9a3f-e729c9f51c45"/>
            </subject>
            <effectiveDateTime value="2024-11-18"/>
            <performer>
               <display value="The Central European Lab"/>
            </performer>
            <valueQuantity>
               <value value="1.1"/>
               <unit value="10*3/uL"/>
               <system value="http://unitsofmeasure.org"/>
               <code value="10*3/uL"/>
            </valueQuantity>
            <interpretation>
               <coding>
                  <system value="http://terminology.hl7.org/CodeSystem/v3-ObservationInterpretation"/>
                  <code value="H"/>
                  <display value="High"/>
               </coding>
            </interpretation>
            <specimen>
               <reference value="urn:uuid:4d6800a3-19ff-4638-b3b7-352bdf385c42"/>
            </specimen>
            <referenceRange>
               <low>
                  <value value="0.7"/>
                  <system value="http://unitsofmeasure.org"/>
                  <code value="10*3/uL"/>
               </low>
            </referenceRange>
            <referenceRange>
               <high>
                  <value value="0.9"/>
                  <system value="http://unitsofmeasure.org"/>
                  <code value="10*3/uL"/>
               </high>
            </referenceRange>
         </Observation>
      </resource>
   </entry>
   <entry>
      <fullUrl value="urn:uuid:a4ec47db-ee16-40de-ace4-85664fdb1703"/>
      <resource>
         <Observation>
            <id value="a4ec47db-ee16-40de-ace4-85664fdb1703"/>
            <meta>
               <profile value="http://hl7.eu/fhir/laboratory/StructureDefinition/Observation-resultslab-eu-lab"/>
            </meta>
            <status value="final"/>
            <category>
               <coding>
                  <system value="http://terminology.hl7.org/CodeSystem/observation-category"/>
                  <code value="laboratory"/>
               </coding>
            </category>
            <code>
               <coding>
                  <system value="http://loinc.org"/>
                  <code value="711-2"/>
                  <display value="Eosinophils [#/volume] in Blood by Automated count"/>
               </coding>
               <text value="Eosinophils [#/volume] in Blood by Automated count"/>
            </code>
            <subject>
               <reference value="urn:uuid:debb81b9-8de6-4b84-9a3f-e729c9f51c45"/>
            </subject>
            <effectiveDateTime value="2024-11-18"/>
            <performer>
               <display value="The Central European Lab"/>
            </performer>
            <valueQuantity>
               <value value="0.4"/>
               <unit value="10*3/uL"/>
               <system value="http://unitsofmeasure.org"/>
               <code value="10*3/uL"/>
            </valueQuantity>
            <specimen>
               <reference value="urn:uuid:4d6800a3-19ff-4638-b3b7-352bdf385c42"/>
            </specimen>
            <referenceRange>
               <low>
                  <value value="0"/>
                  <system value="http://unitsofmeasure.org"/>
                  <code value="10*3/uL"/>
               </low>
            </referenceRange>
            <referenceRange>
               <high>
                  <value value="0.7"/>
                  <system value="http://unitsofmeasure.org"/>
                  <code value="10*3/uL"/>
               </high>
            </referenceRange>
         </Observation>
      </resource>
   </entry>
   <entry>
      <fullUrl value="urn:uuid:be6e0405-5b8c-4073-8805-3c9d2be11a1b"/>
      <resource>
         <Observation>
            <id value="be6e0405-5b8c-4073-8805-3c9d2be11a1b"/>
            <meta>
               <profile value="http://hl7.eu/fhir/laboratory/StructureDefinition/Observation-resultslab-eu-lab"/>
            </meta>
            <status value="final"/>
            <category>
               <coding>
                  <system value="http://terminology.hl7.org/CodeSystem/observation-category"/>
                  <code value="laboratory"/>
               </coding>
            </category>
            <code>
               <coding>
                  <system value="http://loinc.org"/>
                  <code value="704-7"/>
                  <display value="Basophils [#/volume] in Blood by Automated count"/>
               </coding>
               <text value="Basophils [#/volume] in Blood by Automated count"/>
            </code>
            <subject>
               <reference value="urn:uuid:debb81b9-8de6-4b84-9a3f-e729c9f51c45"/>
            </subject>
            <effectiveDateTime value="2024-11-18"/>
            <performer>
               <display value="The Central European Lab"/>
            </performer>
            <valueQuantity>
               <value value="0.3"/>
               <unit value="10*3/uL"/>
               <system value="http://unitsofmeasure.org"/>
               <code value="10*3/uL"/>
            </valueQuantity>
            <specimen>
               <reference value="urn:uuid:4d6800a3-19ff-4638-b3b7-352bdf385c42"/>
            </specimen>
            <referenceRange>
               <low>
                  <value value="0"/>
                  <system value="http://unitsofmeasure.org"/>
                  <code value="10*3/uL"/>
               </low>
            </referenceRange>
            <referenceRange>
               <high>
                  <value value="0.3"/>
                  <system value="http://unitsofmeasure.org"/>
                  <code value="10*3/uL"/>
               </high>
            </referenceRange>
         </Observation>
      </resource>
   </entry>
   <entry>
      <fullUrl value="urn:uuid:19e1b867-2885-49fc-9a97-60047b169cd2"/>
      <resource>
         <Observation>
            <id value="19e1b867-2885-49fc-9a97-60047b169cd2"/>
            <meta>
               <profile value="http://hl7.eu/fhir/laboratory/StructureDefinition/Observation-resultslab-eu-lab"/>
            </meta>
            <status value="final"/>
            <category>
               <coding>
                  <system value="http://terminology.hl7.org/CodeSystem/observation-category"/>
                  <code value="laboratory"/>
               </coding>
            </category>
            <code>
               <coding>
                  <system value="http://loinc.org"/>
                  <code value="2345-7"/>
                  <display value="Glucose [Mass/volume] in Serum or Plasma"/>
               </coding>
               <text value="Glucose [Mass/volume] in Serum or Plasma"/>
            </code>
            <subject>
               <reference value="urn:uuid:debb81b9-8de6-4b84-9a3f-e729c9f51c45"/>
            </subject>
            <effectiveDateTime value="2024-11-18"/>
            <performer>
               <display value="The Central European Lab"/>
            </performer>
            <valueQuantity>
               <value value="89.6"/>
               <unit value="mg/dL"/>
               <system value="http://unitsofmeasure.org"/>
               <code value="mg/dL"/>
            </valueQuantity>
            <specimen>
               <reference value="urn:uuid:4eeabcfa-cf03-4e9f-be01-64dd9fa96d5b"/>
            </specimen>
            <referenceRange>
               <low>
                  <value value="70"/>
                  <system value="http://unitsofmeasure.org"/>
                  <code value="mg/dL"/>
               </low>
            </referenceRange>
            <referenceRange>
               <high>
                  <value value="99"/>
                  <system value="http://unitsofmeasure.org"/>
                  <code value="mg/dL"/>
               </high>
            </referenceRange>
         </Observation>
      </resource>
   </entry>
   <entry>
      <fullUrl value="urn:uuid:48877c99-e777-4a75-a374-a7c874e09e58"/>
      <resource>
         <Observation>
            <id value="48877c99-e777-4a75-a374-a7c874e09e58"/>
            <meta>
               <profile value="http://hl7.eu/fhir/laboratory/StructureDefinition/Observation-resultslab-eu-lab"/>
            </meta>
            <status value="final"/>
            <category>
               <coding>
                  <system value="http://terminology.hl7.org/CodeSystem/observation-category"/>
                  <code value="laboratory"/>
               </coding>
            </category>
            <code>
               <coding>
                  <system value="http://loinc.org"/>
                  <code value="3094-0"/>
                  <display value="Urea nitrogen [Mass/volume] in Serum or Plasma"/>
               </coding>
               <text value="Urea nitrogen [Mass/volume] in Serum or Plasma"/>
            </code>
            <subject>
               <reference value="urn:uuid:debb81b9-8de6-4b84-9a3f-e729c9f51c45"/>
            </subject>
            <effectiveDateTime value="2024-11-18"/>
            <performer>
               <display value="The Central European Lab"/>
            </performer>
            <valueQuantity>
               <value value="7.2"/>
               <unit value="mg/dL"/>
               <system value="http://unitsofmeasure.org"/>
               <code value="mg/dL"/>
            </valueQuantity>
            <specimen>
               <reference value="urn:uuid:4eeabcfa-cf03-4e9f-be01-64dd9fa96d5b"/>
            </specimen>
            <referenceRange>
               <low>
                  <value value="7"/>
                  <system value="http://unitsofmeasure.org"/>
                  <code value="mg/dL"/>
               </low>
            </referenceRange>
            <referenceRange>
               <high>
                  <value value="20"/>
                  <system value="http://unitsofmeasure.org"/>
                  <code value="mg/dL"/>
               </high>
            </referenceRange>
         </Observation>
      </resource>
   </entry>
   <entry>
      <fullUrl value="urn:uuid:6ec16495-b560-4f85-adfe-04bfc2e369eb"/>
      <resource>
         <Observation>
            <id value="6ec16495-b560-4f85-adfe-04bfc2e369eb"/>
            <meta>
               <profile value="http://hl7.eu/fhir/laboratory/StructureDefinition/Observation-resultslab-eu-lab"/>
            </meta>
            <status value="final"/>
            <category>
               <coding>
                  <system value="http://terminology.hl7.org/CodeSystem/observation-category"/>
                  <code value="laboratory"/>
               </coding>
            </category>
            <code>
               <coding>
                  <system value="http://loinc.org"/>
                  <code value="2160-0"/>
                  <display value="Creatinine [Mass/volume] in Serum or Plasma"/>
               </coding>
               <text value="Creatinine [Mass/volume] in Serum or Plasma"/>
            </code>
            <subject>
               <reference value="urn:uuid:debb81b9-8de6-4b84-9a3f-e729c9f51c45"/>
            </subject>
            <effectiveDateTime value="2024-11-18"/>
            <performer>
               <display value="The Central European Lab"/>
            </performer>
            <valueQuantity>
               <value value="2.8"/>
               <unit value="mg/dL"/>
               <system value="http://unitsofmeasure.org"/>
               <code value="mg/dL"/>
            </valueQuantity>
            <interpretation>
               <coding>
                  <system value="http://terminology.hl7.org/CodeSystem/v3-ObservationInterpretation"/>
                  <code value="H"/>
                  <display value="High"/>
               </coding>
            </interpretation>
            <specimen>
               <reference value="urn:uuid:4eeabcfa-cf03-4e9f-be01-64dd9fa96d5b"/>
            </specimen>
            <referenceRange>
               <low>
                  <value value="0.6"/>
                  <system value="http://unitsofmeasure.org"/>
                  <code value="mg/dL"/>
               </low>
            </referenceRange>
            <referenceRange>
               <high>
                  <value value="1.1"/>
                  <system value="http://unitsofmeasure.org"/>
                  <code value="mg/dL"/>
               </high>
            </referenceRange>
         </Observation>
      </resource>
   </entry>
   <entry>
      <fullUrl value="urn:uuid:fd6f6a38-01c6-4126-b6ea-53cacd44c9f2"/>
      <resource>
         <Observation>
            <id value="fd6f6a38-01c6-4126-b6ea-53cacd44c9f2"/>
            <meta>
               <profile value="http://hl7.eu/fhir/laboratory/StructureDefinition/Observation-resultslab-eu-lab"/>
            </meta>
            <status value="final"/>
            <category>
               <coding>
                  <system value="http://terminology.hl7.org/CodeSystem/observation-category"/>
                  <code value="laboratory"/>
               </coding>
            </category>
            <code>
               <coding>
                  <system value="http://loinc.org"/>
                  <code value="17861-6"/>
                  <display value="Calcium [Mass/volume] in Serum or Plasma"/>
               </coding>
               <text value="Calcium [Mass/volume] in Serum or Plasma"/>
            </code>
            <subject>
               <reference value="urn:uuid:debb81b9-8de6-4b84-9a3f-e729c9f51c45"/>
            </subject>
            <effectiveDateTime value="2024-11-18"/>
            <performer>
               <display value="The Central European Lab"/>
            </performer>
            <valueQuantity>
               <value value="10"/>
               <unit value="mg/dL"/>
               <system value="http://unitsofmeasure.org"/>
               <code value="mg/dL"/>
            </valueQuantity>
            <specimen>
               <reference value="urn:uuid:4eeabcfa-cf03-4e9f-be01-64dd9fa96d5b"/>
            </specimen>
            <referenceRange>
               <low>
                  <value value="8.5"/>
                  <system value="http://unitsofmeasure.org"/>
                  <code value="mg/dL"/>
               </low>
            </referenceRange>
            <referenceRange>
               <high>
                  <value value="10.4"/>
                  <system value="http://unitsofmeasure.org"/>
                  <code value="mg/dL"/>
               </high>
            </referenceRange>
         </Observation>
      </resource>
   </entry>
   <entry>
      <fullUrl value="urn:uuid:8f02044c-4209-4b13-b0ae-3d3d525fb975"/>
      <resource>
         <Observation>
            <id value="8f02044c-4209-4b13-b0ae-3d3d525fb975"/>
            <meta>
               <profile value="http://hl7.eu/fhir/laboratory/StructureDefinition/Observation-resultslab-eu-lab"/>
            </meta>
            <status value="final"/>
            <category>
               <coding>
                  <system value="http://terminology.hl7.org/CodeSystem/observation-category"/>
                  <code value="laboratory"/>
               </coding>
            </category>
            <code>
               <coding>
                  <system value="http://loinc.org"/>
                  <code value="2951-2"/>
                  <display value="Sodium [Moles/volume] in Serum or Plasma"/>
               </coding>
               <text value="Sodium [Moles/volume] in Serum or Plasma"/>
            </code>
            <subject>
               <reference value="urn:uuid:debb81b9-8de6-4b84-9a3f-e729c9f51c45"/>
            </subject>
            <effectiveDateTime value="2024-11-18"/>
            <performer>
               <display value="The Central European Lab"/>
            </performer>
            <valueQuantity>
               <value value="136.9"/>
               <unit value="mmol/L"/>
               <system value="http://unitsofmeasure.org"/>
               <code value="mmol/L"/>
            </valueQuantity>
            <specimen>
               <reference value="urn:uuid:4eeabcfa-cf03-4e9f-be01-64dd9fa96d5b"/>
            </specimen>
            <referenceRange>
               <low>
                  <value value="135"/>
                  <system value="http://unitsofmeasure.org"/>
                  <code value="mmol/L"/>
               </low>
            </referenceRange>
            <referenceRange>
               <high>
                  <value value="145"/>
                  <system value="http://unitsofmeasure.org"/>
                  <code value="mmol/L"/>
               </high>
            </referenceRange>
         </Observation>
      </resource>
   </entry>
   <entry>
      <fullUrl value="urn:uuid:42d406fc-9825-4b35-a3b9-5ee480ecd81d"/>
      <resource>
         <Observation>
            <id value="42d406fc-9825-4b35-a3b9-5ee480ecd81d"/>
            <meta>
               <profile value="http://hl7.eu/fhir/laboratory/StructureDefinition/Observation-resultslab-eu-lab"/>
            </meta>
            <status value="final"/>
            <category>
               <coding>
                  <system value="http://terminology.hl7.org/CodeSystem/observation-category"/>
                  <code value="laboratory"/>
               </coding>
            </category>
            <code>
               <coding>
                  <system value="http://loinc.org"/>
                  <code value="2823-3"/>
                  <display value="Potassium [Moles/volume] in Serum or Plasma"/>
               </coding>
               <text value="Potassium [Moles/volume] in Serum or Plasma"/>
            </code>
            <subject>
               <reference value="urn:uuid:debb81b9-8de6-4b84-9a3f-e729c9f51c45"/>
            </subject>
            <effectiveDateTime value="2024-11-18"/>
            <performer>
               <display value="The Central European Lab"/>
            </performer>
            <valueQuantity>
               <value value="4.6"/>
               <unit value="mmol/L"/>
               <system value="http://unitsofmeasure.org"/>
               <code value="mmol/L"/>
            </valueQuantity>
            <specimen>
               <reference value="urn:uuid:4eeabcfa-cf03-4e9f-be01-64dd9fa96d5b"/>
            </specimen>
            <referenceRange>
               <low>
                  <value value="3.5"/>
                  <system value="http://unitsofmeasure.org"/>
                  <code value="mmol/L"/>
               </low>
            </referenceRange>
            <referenceRange>
               <high>
                  <value value="5.1"/>
                  <system value="http://unitsofmeasure.org"/>
                  <code value="mmol/L"/>
               </high>
            </referenceRange>
         </Observation>
      </resource>
   </entry>
   <entry>
      <fullUrl value="urn:uuid:9fccbed3-6681-4d27-a7bb-f1bc71272dfb"/>
      <resource>
         <Observation>
            <id value="9fccbed3-6681-4d27-a7bb-f1bc71272dfb"/>
            <meta>
               <profile value="http://hl7.eu/fhir/laboratory/StructureDefinition/Observation-resultslab-eu-lab"/>
            </meta>
            <status value="final"/>
            <category>
               <coding>
                  <system value="http://terminology.hl7.org/CodeSystem/observation-category"/>
                  <code value="laboratory"/>
               </coding>
            </category>
            <code>
               <coding>
                  <system value="http://loinc.org"/>
                  <code value="2075-0"/>
                  <display value="Chloride [Moles/volume] in Serum or Plasma"/>
               </coding>
               <text value="Chloride [Moles/volume] in Serum or Plasma"/>
            </code>
            <subject>
               <reference value="urn:uuid:debb81b9-8de6-4b84-9a3f-e729c9f51c45"/>
            </subject>
            <effectiveDateTime value="2024-11-18"/>
            <performer>
               <display value="The Central European Lab"/>
            </performer>
            <valueQuantity>
               <value value="108"/>
               <unit value="mmol/L"/>
               <system value="http://unitsofmeasure.org"/>
               <code value="mmol/L"/>
            </valueQuantity>
            <specimen>
               <reference value="urn:uuid:4eeabcfa-cf03-4e9f-be01-64dd9fa96d5b"/>
            </specimen>
            <referenceRange>
               <low>
                  <value value="98"/>
                  <system value="http://unitsofmeasure.org"/>
                  <code value="mmol/L"/>
               </low>
            </referenceRange>
            <referenceRange>
               <high>
                  <value value="110"/>
                  <system value="http://unitsofmeasure.org"/>
                  <code value="mmol/L"/>
               </high>
            </referenceRange>
         </Observation>
      </resource>
   </entry>
   <entry>
      <fullUrl value="urn:uuid:9cefa0fe-8fa7-4ea8-ba1e-8746ac45cab5"/>
      <resource>
         <Observation>
            <id value="9cefa0fe-8fa7-4ea8-ba1e-8746ac45cab5"/>
            <meta>
               <profile value="http://hl7.eu/fhir/laboratory/StructureDefinition/Observation-resultslab-eu-lab"/>
            </meta>
            <status value="final"/>
            <category>
               <coding>
                  <system value="http://terminology.hl7.org/CodeSystem/observation-category"/>
                  <code value="laboratory"/>
               </coding>
            </category>
            <code>
               <coding>
                  <system value="http://loinc.org"/>
                  <code value="2028-9"/>
                  <display value="Carbon dioxide, total [Moles/volume] in Serum or Plasma"/>
               </coding>
               <text value="Carbon dioxide, total [Moles/volume] in Serum or Plasma"/>
            </code>
            <subject>
               <reference value="urn:uuid:debb81b9-8de6-4b84-9a3f-e729c9f51c45"/>
            </subject>
            <effectiveDateTime value="2024-11-18"/>
            <performer>
               <display value="The Central European Lab"/>
            </performer>
            <valueQuantity>
               <value value="20.5"/>
               <unit value="mmol/L"/>
               <system value="http://unitsofmeasure.org"/>
               <code value="mmol/L"/>
            </valueQuantity>
            <interpretation>
               <coding>
                  <system value="http://terminology.hl7.org/CodeSystem/v3-ObservationInterpretation"/>
                  <code value="L"/>
                  <display value="Low"/>
               </coding>
            </interpretation>
            <specimen>
               <reference value="urn:uuid:4eeabcfa-cf03-4e9f-be01-64dd9fa96d5b"/>
            </specimen>
            <referenceRange>
               <low>
                  <value value="22"/>
                  <system value="http://unitsofmeasure.org"/>
                  <code value="mmol/L"/>
               </low>
            </referenceRange>
            <referenceRange>
               <high>
                  <value value="29"/>
                  <system value="http://unitsofmeasure.org"/>
                  <code value="mmol/L"/>
               </high>
            </referenceRange>
         </Observation>
      </resource>
   </entry>
   <entry>
      <fullUrl value="urn:uuid:55edd702-3dc4-4b6a-8c44-12b5f896d790"/>
      <resource>
         <Observation>
            <id value="55edd702-3dc4-4b6a-8c44-12b5f896d790"/>
            <meta>
               <profile value="http://hl7.eu/fhir/laboratory/StructureDefinition/Observation-resultslab-eu-lab"/>
            </meta>
            <status value="final"/>
            <category>
               <coding>
                  <system value="http://terminology.hl7.org/CodeSystem/observation-category"/>
                  <code value="laboratory"/>
               </coding>
            </category>
            <code>
               <coding>
                  <system value="http://loinc.org"/>
                  <code value="2885-2"/>
                  <display value="Protein [Mass/volume] in Serum or Plasma"/>
               </coding>
               <text value="Protein [Mass/volume] in Serum or Plasma"/>
            </code>
            <subject>
               <reference value="urn:uuid:debb81b9-8de6-4b84-9a3f-e729c9f51c45"/>
            </subject>
            <effectiveDateTime value="2024-11-18"/>
            <performer>
               <display value="The Central European Lab"/>
            </performer>
            <valueQuantity>
               <value value="7.2"/>
               <unit value="g/dL"/>
               <system value="http://unitsofmeasure.org"/>
               <code value="g/dL"/>
            </valueQuantity>
            <specimen>
               <reference value="urn:uuid:4eeabcfa-cf03-4e9f-be01-64dd9fa96d5b"/>
            </specimen>
            <referenceRange>
               <low>
                  <value value="6"/>
                  <system value="http://unitsofmeasure.org"/>
                  <code value="g/dL"/>
               </low>
            </referenceRange>
            <referenceRange>
               <high>
                  <value value="8.3"/>
                  <system value="http://unitsofmeasure.org"/>
                  <code value="g/dL"/>
               </high>
            </referenceRange>
         </Observation>
      </resource>
   </entry>
   <entry>
      <fullUrl value="urn:uuid:dbce2efa-4b48-4636-bcb0-a4ae6dec58dd"/>
      <resource>
         <Observation>
            <id value="dbce2efa-4b48-4636-bcb0-a4ae6dec58dd"/>
            <meta>
               <profile value="http://hl7.eu/fhir/laboratory/StructureDefinition/Observation-resultslab-eu-lab"/>
            </meta>
            <status value="final"/>
            <category>
               <coding>
                  <system value="http://terminology.hl7.org/CodeSystem/observation-category"/>
                  <code value="laboratory"/>
               </coding>
            </category>
            <code>
               <coding>
                  <system value="http://loinc.org"/>
                  <code value="1751-7"/>
                  <display value="Albumin [Mass/volume] in Serum or Plasma"/>
               </coding>
               <text value="Albumin [Mass/volume] in Serum or Plasma"/>
            </code>
            <subject>
               <reference value="urn:uuid:debb81b9-8de6-4b84-9a3f-e729c9f51c45"/>
            </subject>
            <effectiveDateTime value="2024-11-18"/>
            <performer>
               <display value="The Central European Lab"/>
            </performer>
            <valueQuantity>
               <value value="4.8"/>
               <unit value="g/dL"/>
               <system value="http://unitsofmeasure.org"/>
               <code value="g/dL"/>
            </valueQuantity>
            <specimen>
               <reference value="urn:uuid:4eeabcfa-cf03-4e9f-be01-64dd9fa96d5b"/>
            </specimen>
            <referenceRange>
               <low>
                  <value value="3.5"/>
                  <system value="http://unitsofmeasure.org"/>
                  <code value="g/dL"/>
               </low>
            </referenceRange>
            <referenceRange>
               <high>
                  <value value="5.5"/>
                  <system value="http://unitsofmeasure.org"/>
                  <code value="g/dL"/>
               </high>
            </referenceRange>
         </Observation>
      </resource>
   </entry>
   <entry>
      <fullUrl value="urn:uuid:c83756e9-5dd5-4c81-acda-0ff3c905763a"/>
      <resource>
         <Observation>
            <id value="c83756e9-5dd5-4c81-acda-0ff3c905763a"/>
            <meta>
               <profile value="http://hl7.eu/fhir/laboratory/StructureDefinition/Observation-resultslab-eu-lab"/>
            </meta>
            <status value="final"/>
            <category>
               <coding>
                  <system value="http://terminology.hl7.org/CodeSystem/observation-category"/>
                  <code value="laboratory"/>
               </coding>
            </category>
            <code>
               <coding>
                  <system value="http://loinc.org"/>
                  <code value="1975-2"/>
                  <display value="Bilirubin.total [Mass/volume] in Serum or Plasma"/>
               </coding>
               <text value="Bilirubin.total [Mass/volume] in Serum or Plasma"/>
            </code>
            <subject>
               <reference value="urn:uuid:debb81b9-8de6-4b84-9a3f-e729c9f51c45"/>
            </subject>
            <effectiveDateTime value="2024-11-18"/>
            <performer>
               <display value="The Central European Lab"/>
            </performer>
            <valueQuantity>
               <value value="13.3"/>
               <unit value="mg/dL"/>
               <system value="http://unitsofmeasure.org"/>
               <code value="mg/dL"/>
            </valueQuantity>
            <interpretation>
               <coding>
                  <system value="http://terminology.hl7.org/CodeSystem/v3-ObservationInterpretation"/>
                  <code value="H"/>
                  <display value="High"/>
               </coding>
            </interpretation>
            <specimen>
               <reference value="urn:uuid:4eeabcfa-cf03-4e9f-be01-64dd9fa96d5b"/>
            </specimen>
            <referenceRange>
               <low>
                  <value value="0.3"/>
                  <system value="http://unitsofmeasure.org"/>
                  <code value="mg/dL"/>
               </low>
            </referenceRange>
            <referenceRange>
               <high>
                  <value value="1.2"/>
                  <system value="http://unitsofmeasure.org"/>
                  <code value="mg/dL"/>
               </high>
            </referenceRange>
         </Observation>
      </resource>
   </entry>
   <entry>
      <fullUrl value="urn:uuid:fa869636-ee38-4b0e-9e6a-2fa483ae16e2"/>
      <resource>
         <Observation>
            <id value="fa869636-ee38-4b0e-9e6a-2fa483ae16e2"/>
            <meta>
               <profile value="http://hl7.eu/fhir/laboratory/StructureDefinition/Observation-resultslab-eu-lab"/>
            </meta>
            <status value="final"/>
            <category>
               <coding>
                  <system value="http://terminology.hl7.org/CodeSystem/observation-category"/>
                  <code value="laboratory"/>
               </coding>
            </category>
            <code>
               <coding>
                  <system value="http://loinc.org"/>
                  <code value="6768-6"/>
                  <display value="Alkaline phosphatase [Enzymatic activity/volume] in Serum or Plasma"/>
               </coding>
               <text value="Alkaline phosphatase [Enzymatic activity/volume] in Serum or Plasma"/>
            </code>
            <subject>
               <reference value="urn:uuid:debb81b9-8de6-4b84-9a3f-e729c9f51c45"/>
            </subject>
            <effectiveDateTime value="2024-11-18"/>
            <performer>
               <display value="The Central European Lab"/>
            </performer>
            <valueQuantity>
               <value value="84.4"/>
               <unit value="U/L"/>
               <system value="http://unitsofmeasure.org"/>
               <code value="U/L"/>
            </valueQuantity>
            <specimen>
               <reference value="urn:uuid:4eeabcfa-cf03-4e9f-be01-64dd9fa96d5b"/>
            </specimen>
            <referenceRange>
               <low>
                  <value value="44"/>
                  <system value="http://unitsofmeasure.org"/>
                  <code value="U/L"/>
               </low>
            </referenceRange>
            <referenceRange>
               <high>
                  <value value="136"/>
                  <system value="http://unitsofmeasure.org"/>
                  <code value="U/L"/>
               </high>
            </referenceRange>
         </Observation>
      </resource>
   </entry>
   <entry>
      <fullUrl value="urn:uuid:f27f19aa-28c1-4af8-87f5-adb5a4f0f960"/>
      <resource>
         <Observation>
            <id value="f27f19aa-28c1-4af8-87f5-adb5a4f0f960"/>
            <meta>
               <profile value="http://hl7.eu/fhir/laboratory/StructureDefinition/Observation-resultslab-eu-lab"/>
            </meta>
            <status value="final"/>
            <category>
               <coding>
                  <system value="http://terminology.hl7.org/CodeSystem/observation-category"/>
                  <code value="laboratory"/>
               </coding>
            </category>
            <code>
               <coding>
                  <system value="http://loinc.org"/>
                  <code value="1742-6"/>
                  <display value="Alanine aminotransferase [Enzymatic activity/volume] in Serum or Plasma"/>
               </coding>
               <text value="Alanine aminotransferase [Enzymatic activity/volume] in Serum or Plasma"/>
            </code>
            <subject>
               <reference value="urn:uuid:debb81b9-8de6-4b84-9a3f-e729c9f51c45"/>
            </subject>
            <effectiveDateTime value="2024-11-18"/>
            <performer>
               <display value="The Central European Lab"/>
            </performer>
            <valueQuantity>
               <value value="17.8"/>
               <unit value="U/L"/>
               <system value="http://unitsofmeasure.org"/>
               <code value="U/L"/>
            </valueQuantity>
            <specimen>
               <reference value="urn:uuid:4eeabcfa-cf03-4e9f-be01-64dd9fa96d5b"/>
            </specimen>
            <referenceRange>
               <low>
                  <value value="7"/>
                  <system value="http://unitsofmeasure.org"/>
                  <code value="U/L"/>
               </low>
            </referenceRange>
            <referenceRange>
               <high>
                  <value value="55"/>
                  <system value="http://unitsofmeasure.org"/>
                  <code value="U/L"/>
               </high>
            </referenceRange>
         </Observation>
      </resource>
   </entry>
   <entry>
      <fullUrl value="urn:uuid:decccbe5-277f-497c-a2d0-e2372a0e3996"/>
      <resource>
         <Observation>
            <id value="decccbe5-277f-497c-a2d0-e2372a0e3996"/>
            <meta>
               <profile value="http://hl7.eu/fhir/laboratory/StructureDefinition/Observation-resultslab-eu-lab"/>
            </meta>
            <status value="final"/>
            <category>
               <coding>
                  <system value="http://terminology.hl7.org/CodeSystem/observation-category"/>
                  <code value="laboratory"/>
               </coding>
            </category>
            <code>
               <coding>
                  <system value="http://loinc.org"/>
                  <code value="1920-8"/>
                  <display value="Aspartate aminotransferase [Enzymatic activity/volume] in Serum or Plasma"/>
               </coding>
               <text value="Aspartate aminotransferase [Enzymatic activity/volume] in Serum or Plasma"/>
            </code>
            <subject>
               <reference value="urn:uuid:debb81b9-8de6-4b84-9a3f-e729c9f51c45"/>
            </subject>
            <effectiveDateTime value="2024-11-18"/>
            <performer>
               <display value="The Central European Lab"/>
            </performer>
            <valueQuantity>
               <value value="8.3"/>
               <unit value="U/L"/>
               <system value="http://unitsofmeasure.org"/>
               <code value="U/L"/>
            </valueQuantity>
            <interpretation>
               <coding>
                  <system value="http://terminology.hl7.org/CodeSystem/v3-ObservationInterpretation"/>
                  <code value="L"/>
                  <display value="Low"/>
               </coding>
            </interpretation>
            <specimen>
               <reference value="urn:uuid:4eeabcfa-cf03-4e9f-be01-64dd9fa96d5b"/>
            </specimen>
            <referenceRange>
               <low>
                  <value value="10"/>
                  <system value="http://unitsofmeasure.org"/>
                  <code value="U/L"/>
               </low>
            </referenceRange>
            <referenceRange>
               <high>
                  <value value="40"/>
                  <system value="http://unitsofmeasure.org"/>
                  <code value="U/L"/>
               </high>
            </referenceRange>
         </Observation>
      </resource>
   </entry>
   <entry>
      <fullUrl value="urn:uuid:f177bcd8-0998-403a-9e47-d909f8164e06"/>
      <resource>
         <Observation>
            <id value="f177bcd8-0998-403a-9e47-d909f8164e06"/>
            <meta>
               <profile value="http://hl7.eu/fhir/laboratory/StructureDefinition/Observation-resultslab-eu-lab"/>
            </meta>
            <status value="final"/>
            <category>
               <coding>
                  <system value="http://terminology.hl7.org/CodeSystem/observation-category"/>
                  <code value="laboratory"/>
               </coding>
            </category>
            <code>
               <coding>
                  <system value="http://loinc.org"/>
                  <code value="48065-7"/>
                  <display value="Fibrin D-dimer FEU [Mass/volume] in Platelet poor plasma"/>
               </coding>
               <text value="Fibrin D-dimer FEU [Mass/volume] in Platelet poor plasma"/>
            </code>
            <subject>
               <reference value="urn:uuid:debb81b9-8de6-4b84-9a3f-e729c9f51c45"/>
            </subject>
            <effectiveDateTime value="2024-11-18"/>
            <performer>
               <display value="The Central European Lab"/>
            </performer>
            <valueQuantity>
               <value value="0.5"/>
               <unit value="ug/mL"/>
               <system value="http://unitsofmeasure.org"/>
               <code value="ug/mL"/>
            </valueQuantity>
            <specimen>
               <reference value="urn:uuid:e6f0dccd-3b4b-4e63-aac5-e2ae9de89622"/>
            </specimen>
            <referenceRange>
               <low>
                  <value value="0"/>
                  <system value="http://unitsofmeasure.org"/>
                  <code value="ug/mL"/>
               </low>
            </referenceRange>
            <referenceRange>
               <high>
                  <value value="0.5"/>
                  <system value="http://unitsofmeasure.org"/>
                  <code value="ug/mL"/>
               </high>
            </referenceRange>
         </Observation>
      </resource>
   </entry>
   <entry>
      <fullUrl value="urn:uuid:5c40df17-9e5b-4c02-981e-eaff7b83f133"/>
      <resource>
         <Observation>
            <id value="5c40df17-9e5b-4c02-981e-eaff7b83f133"/>
            <meta>
               <profile value="http://hl7.eu/fhir/laboratory/StructureDefinition/Observation-resultslab-eu-lab"/>
            </meta>
            <status value="final"/>
            <category>
               <coding>
                  <system value="http://terminology.hl7.org/CodeSystem/observation-category"/>
                  <code value="laboratory"/>
               </coding>
            </category>
            <code>
               <coding>
                  <system value="http://loinc.org"/>
                  <code value="2276-4"/>
                  <display value="Ferritin [Mass/volume] in Serum or Plasma"/>
               </coding>
               <text value="Ferritin [Mass/volume] in Serum or Plasma"/>
            </code>
            <subject>
               <reference value="urn:uuid:debb81b9-8de6-4b84-9a3f-e729c9f51c45"/>
            </subject>
            <effectiveDateTime value="2024-11-18"/>
            <performer>
               <display value="The Central European Lab"/>
            </performer>
            <valueQuantity>
               <value value="637.6"/>
               <unit value="ug/L"/>
               <system value="http://unitsofmeasure.org"/>
               <code value="ug/L"/>
            </valueQuantity>
            <interpretation>
               <coding>
                  <system value="http://terminology.hl7.org/CodeSystem/v3-ObservationInterpretation"/>
                  <code value="H"/>
                  <display value="High"/>
               </coding>
            </interpretation>
            <specimen>
               <reference value="urn:uuid:4eeabcfa-cf03-4e9f-be01-64dd9fa96d5b"/>
            </specimen>
            <referenceRange>
               <low>
                  <value value="10"/>
                  <system value="http://unitsofmeasure.org"/>
                  <code value="ug/L"/>
               </low>
            </referenceRange>
            <referenceRange>
               <high>
                  <value value="400"/>
                  <system value="http://unitsofmeasure.org"/>
                  <code value="ug/L"/>
               </high>
            </referenceRange>
         </Observation>
      </resource>
   </entry>
   <entry>
      <fullUrl value="urn:uuid:fc4335d6-63c4-4762-8597-0aaccc330806"/>
      <resource>
         <Observation>
            <id value="fc4335d6-63c4-4762-8597-0aaccc330806"/>
            <meta>
               <profile value="http://hl7.eu/fhir/laboratory/StructureDefinition/Observation-resultslab-eu-lab"/>
            </meta>
            <status value="final"/>
            <category>
               <coding>
                  <system value="http://terminology.hl7.org/CodeSystem/observation-category"/>
                  <code value="laboratory"/>
               </coding>
            </category>
            <code>
               <coding>
                  <system value="http://loinc.org"/>
                  <code value="89579-7"/>
                  <display value="Troponin I.cardiac [Mass/volume] in Serum or Plasma by High sensitivity method"/>
               </coding>
               <text value="Troponin I.cardiac [Mass/volume] in Serum or Plasma by High sensitivity method"/>
            </code>
            <subject>
               <reference value="urn:uuid:debb81b9-8de6-4b84-9a3f-e729c9f51c45"/>
            </subject>
            <effectiveDateTime value="2024-11-18"/>
            <performer>
               <display value="The Central European Lab"/>
            </performer>
            <valueQuantity>
               <value value="4.1"/>
               <unit value="pg/mL"/>
               <system value="http://unitsofmeasure.org"/>
               <code value="pg/mL"/>
            </valueQuantity>
            <specimen>
               <reference value="urn:uuid:4eeabcfa-cf03-4e9f-be01-64dd9fa96d5b"/>
            </specimen>
            <referenceRange>
               <low>
                  <value value="0"/>
                  <system value="http://unitsofmeasure.org"/>
                  <code value="pg/mL"/>
               </low>
            </referenceRange>
            <referenceRange>
               <high>
                  <value value="19.9"/>
                  <system value="http://unitsofmeasure.org"/>
                  <code value="pg/mL"/>
               </high>
            </referenceRange>
         </Observation>
      </resource>
   </entry>
   <entry>
      <fullUrl value="urn:uuid:512057c7-1c3c-46b9-abcc-8d08d0a5b834"/>
      <resource>
         <Observation>
            <id value="512057c7-1c3c-46b9-abcc-8d08d0a5b834"/>
            <meta>
               <profile value="http://hl7.eu/fhir/laboratory/StructureDefinition/Observation-resultslab-eu-lab"/>
            </meta>
            <status value="final"/>
            <category>
               <coding>
                  <system value="http://terminology.hl7.org/CodeSystem/observation-category"/>
                  <code value="laboratory"/>
               </coding>
            </category>
            <code>
               <coding>
                  <system value="http://loinc.org"/>
                  <code value="14804-9"/>
                  <display value="Lactate dehydrogenase [Enzymatic activity/volume] in Serum or Plasma by Lactate to pyruvate reaction"/>
               </coding>
               <text value="Lactate dehydrogenase [Enzymatic activity/volume] in Serum or Plasma by Lactate to pyruvate reaction"/>
            </code>
            <subject>
               <reference value="urn:uuid:debb81b9-8de6-4b84-9a3f-e729c9f51c45"/>
            </subject>
            <effectiveDateTime value="2024-11-18"/>
            <performer>
               <display value="The Central European Lab"/>
            </performer>
            <valueQuantity>
               <value value="293.1"/>
               <unit value="U/L"/>
               <system value="http://unitsofmeasure.org"/>
               <code value="U/L"/>
            </valueQuantity>
            <specimen>
               <reference value="urn:uuid:4eeabcfa-cf03-4e9f-be01-64dd9fa96d5b"/>
            </specimen>
            <referenceRange>
               <low>
                  <value value="124"/>
                  <system value="http://unitsofmeasure.org"/>
                  <code value="U/L"/>
               </low>
            </referenceRange>
            <referenceRange>
               <high>
                  <value value="333"/>
                  <system value="http://unitsofmeasure.org"/>
                  <code value="U/L"/>
               </high>
            </referenceRange>
         </Observation>
      </resource>
   </entry>
   <entry>
      <fullUrl value="urn:uuid:1750ceed-4a7f-4847-923c-33d482816e1e"/>
      <resource>
         <Observation>
            <id value="1750ceed-4a7f-4847-923c-33d482816e1e"/>
            <meta>
               <profile value="http://hl7.eu/fhir/laboratory/StructureDefinition/Observation-resultslab-eu-lab"/>
            </meta>
            <status value="final"/>
            <category>
               <coding>
                  <system value="http://terminology.hl7.org/CodeSystem/observation-category"/>
                  <code value="laboratory"/>
               </coding>
            </category>
            <code>
               <coding>
                  <system value="http://loinc.org"/>
                  <code value="2157-6"/>
                  <display value="Creatine kinase [Enzymatic activity/volume] in Serum or Plasma"/>
               </coding>
               <text value="Creatine kinase [Enzymatic activity/volume] in Serum or Plasma"/>
            </code>
            <subject>
               <reference value="urn:uuid:debb81b9-8de6-4b84-9a3f-e729c9f51c45"/>
            </subject>
            <effectiveDateTime value="2024-11-18"/>
            <performer>
               <display value="The Central European Lab"/>
            </performer>
            <valueQuantity>
               <value value="41.9"/>
               <unit value="U/L"/>
               <system value="http://unitsofmeasure.org"/>
               <code value="U/L"/>
            </valueQuantity>
            <specimen>
               <reference value="urn:uuid:4eeabcfa-cf03-4e9f-be01-64dd9fa96d5b"/>
            </specimen>
            <referenceRange>
               <low>
                  <value value="30"/>
                  <system value="http://unitsofmeasure.org"/>
                  <code value="U/L"/>
               </low>
            </referenceRange>
            <referenceRange>
               <high>
                  <value value="130"/>
                  <system value="http://unitsofmeasure.org"/>
                  <code value="U/L"/>
               </high>
            </referenceRange>
         </Observation>
      </resource>
   </entry>
   <entry>
      <fullUrl value="urn:uuid:d898baab-4d10-4e90-be26-03b01e3bd03d"/>
      <resource>
         <Observation>
            <id value="d898baab-4d10-4e90-be26-03b01e3bd03d"/>
            <meta>
               <profile value="http://hl7.eu/fhir/laboratory/StructureDefinition/Observation-resultslab-eu-lab"/>
            </meta>
            <status value="final"/>
            <category>
               <coding>
                  <system value="http://terminology.hl7.org/CodeSystem/observation-category"/>
                  <code value="laboratory"/>
               </coding>
            </category>
            <code>
               <coding>
                  <system value="http://loinc.org"/>
                  <code value="1988-5"/>
                  <display value="C reactive protein [Mass/volume] in Serum or Plasma"/>
               </coding>
               <text value="C reactive protein [Mass/volume] in Serum or Plasma"/>
            </code>
            <subject>
               <reference value="urn:uuid:debb81b9-8de6-4b84-9a3f-e729c9f51c45"/>
            </subject>
            <effectiveDateTime value="2024-11-18"/>
            <performer>
               <display value="The Central European Lab"/>
            </performer>
            <valueQuantity>
               <value value="11.9"/>
               <unit value="mg/L"/>
               <system value="http://unitsofmeasure.org"/>
               <code value="mg/L"/>
            </valueQuantity>
            <interpretation>
               <coding>
                  <system value="http://terminology.hl7.org/CodeSystem/v3-ObservationInterpretation"/>
                  <code value="H"/>
                  <display value="High"/>
               </coding>
            </interpretation>
            <specimen>
               <reference value="urn:uuid:4eeabcfa-cf03-4e9f-be01-64dd9fa96d5b"/>
            </specimen>
            <referenceRange>
               <low>
                  <value value="0"/>
                  <system value="http://unitsofmeasure.org"/>
                  <code value="mg/L"/>
               </low>
            </referenceRange>
            <referenceRange>
               <high>
                  <value value="10"/>
                  <system value="http://unitsofmeasure.org"/>
                  <code value="mg/L"/>
               </high>
            </referenceRange>
         </Observation>
      </resource>
   </entry>
   <entry>
      <fullUrl value="urn:uuid:a37c68e3-f587-40f4-b117-b68dd722934c"/>
      <resource>
         <Observation>
            <id value="a37c68e3-f587-40f4-b117-b68dd722934c"/>
            <meta>
               <profile value="http://hl7.eu/fhir/laboratory/StructureDefinition/Observation-resultslab-eu-lab"/>
            </meta>
            <status value="final"/>
            <category>
               <coding>
                  <system value="http://terminology.hl7.org/CodeSystem/observation-category"/>
                  <code value="laboratory"/>
               </coding>
            </category>
            <code>
               <coding>
                  <system value="http://loinc.org"/>
                  <code value="5902-2"/>
                  <display value="Prothrombin time (PT)"/>
               </coding>
               <text value="Prothrombin time (PT)"/>
            </code>
            <subject>
               <reference value="urn:uuid:debb81b9-8de6-4b84-9a3f-e729c9f51c45"/>
            </subject>
            <effectiveDateTime value="2024-11-18"/>
            <performer>
               <display value="The Central European Lab"/>
            </performer>
            <valueQuantity>
               <value value="10.3"/>
               <unit value="s"/>
               <system value="http://unitsofmeasure.org"/>
               <code value="s"/>
            </valueQuantity>
            <interpretation>
               <coding>
                  <system value="http://terminology.hl7.org/CodeSystem/v3-ObservationInterpretation"/>
                  <code value="L"/>
                  <display value="Low"/>
               </coding>
            </interpretation>
            <specimen>
               <reference value="urn:uuid:e6f0dccd-3b4b-4e63-aac5-e2ae9de89622"/>
            </specimen>
            <referenceRange>
               <low>
                  <value value="11"/>
                  <system value="http://unitsofmeasure.org"/>
                  <code value="s"/>
               </low>
            </referenceRange>
            <referenceRange>
               <high>
                  <value value="13.5"/>
                  <system value="http://unitsofmeasure.org"/>
                  <code value="s"/>
               </high>
            </referenceRange>
         </Observation>
      </resource>
   </entry>
   <entry>
      <fullUrl value="urn:uuid:9685084c-754e-437b-ad4c-26c7618ef3e7"/>
      <resource>
         <Observation>
            <id value="9685084c-754e-437b-ad4c-26c7618ef3e7"/>
            <meta>
               <profile value="http://hl7.eu/fhir/laboratory/StructureDefinition/Observation-resultslab-eu-lab"/>
            </meta>
            <status value="final"/>
            <category>
               <coding>
                  <system value="http://terminology.hl7.org/CodeSystem/observation-category"/>
                  <code value="laboratory"/>
               </coding>
            </category>
            <code>
               <coding>
                  <system value="http://loinc.org"/>
                  <code value="6301-6"/>
                  <display value="INR in Platelet poor plasma by Coagulation assay"/>
               </coding>
               <text value="INR in Platelet poor plasma by Coagulation assay"/>
            </code>
            <subject>
               <reference value="urn:uuid:debb81b9-8de6-4b84-9a3f-e729c9f51c45"/>
            </subject>
            <effectiveDateTime value="2024-11-18"/>
            <performer>
               <display value="The Central European Lab"/>
            </performer>
            <valueQuantity>
               <value value="1.2"/>
               <unit value="{INR}"/>
               <system value="http://unitsofmeasure.org"/>
               <code value="{INR}"/>
            </valueQuantity>
            <specimen>
               <reference value="urn:uuid:e6f0dccd-3b4b-4e63-aac5-e2ae9de89622"/>
            </specimen>
            <referenceRange>
               <low>
                  <value value="0.9"/>
                  <system value="http://unitsofmeasure.org"/>
                  <code value="{INR}"/>
               </low>
            </referenceRange>
            <referenceRange>
               <high>
                  <value value="3"/>
                  <system value="http://unitsofmeasure.org"/>
                  <code value="{INR}"/>
               </high>
            </referenceRange>
         </Observation>
      </resource>
   </entry>
   <entry>
      <fullUrl value="urn:uuid:83769257-b050-46cf-b5b8-5dc1a9d9279d"/>
      <resource>
         <Observation>
            <id value="83769257-b050-46cf-b5b8-5dc1a9d9279d"/>
            <meta>
               <profile value="http://hl7.eu/fhir/laboratory/StructureDefinition/Observation-resultslab-eu-lab"/>
            </meta>
            <status value="final"/>
            <category>
               <coding>
                  <system value="http://terminology.hl7.org/CodeSystem/observation-category"/>
                  <code value="laboratory"/>
               </coding>
            </category>
            <code>
               <coding>
                  <system value="http://loinc.org"/>
                  <code value="33959-8"/>
                  <display value="Procalcitonin [Mass/volume] in Serum or Plasma"/>
               </coding>
               <text value="Procalcitonin [Mass/volume] in Serum or Plasma"/>
            </code>
            <subject>
               <reference value="urn:uuid:debb81b9-8de6-4b84-9a3f-e729c9f51c45"/>
            </subject>
            <effectiveDateTime value="2024-11-18"/>
            <performer>
               <display value="The Central European Lab"/>
            </performer>
            <valueQuantity>
               <value value="0.1"/>
               <unit value="ng/mL"/>
               <system value="http://unitsofmeasure.org"/>
               <code value="ng/mL"/>
            </valueQuantity>
            <specimen>
               <reference value="urn:uuid:4eeabcfa-cf03-4e9f-be01-64dd9fa96d5b"/>
            </specimen>
            <referenceRange>
               <low>
                  <value value="0"/>
                  <system value="http://unitsofmeasure.org"/>
                  <code value="ng/mL"/>
               </low>
            </referenceRange>
            <referenceRange>
               <high>
                  <value value="0.5"/>
                  <system value="http://unitsofmeasure.org"/>
                  <code value="ng/mL"/>
               </high>
            </referenceRange>
         </Observation>
      </resource>
   </entry>
</Bundle>
