{
  "resourceType": "Bundle",
  "id": "Instance-Bundle-c1b901d2-5d7e-4565-89f1-4332fe3f5830",
  "meta": {
    "profile": [
      "http://hl7.eu/fhir/laboratory/StructureDefinition/Bundle-eu-lab"
    ]
  },
  "identifier": {
    "assigner": {
      "display": "HL7 Europe"
    },
    "system": "urn:oid:2.16.840.1.113883.2.51.999",
    "value": "460ab457-590c-42c0-bab0-13c049e66c1b"
  },
  "entry": [
    {
      "fullUrl": "urn:uuid:fcfa2d91-b340-44f2-bd95-c26744e32052",
      "resource": {
        "resourceType": "Composition",
        "id": "fcfa2d91-b340-44f2-bd95-c26744e32052",
        "meta": {
          "profile": [
            "http://hl7.eu/fhir/laboratory/StructureDefinition/Composition-eu-lab"
          ]
        },
        "identifier": {
          "assigner": {
            "display": "HL7 Europe"
          },
          "system": "urn:oid:2.16.840.1.113883.2.51.999",
          "value": "eccfb9f6-249e-4e50-9ba8-717f9c9cc9c0"
        },
        "author": [
          {
            "reference": "urn:uuid:6f080f41-3f44-4318-916b-27f0ef81fcb1"
          }
        ],
        "category": [
          {
            "coding": [
              {
                "code": "26436-6",
                "system": "http://loinc.org",
                "display": "Laboratory studies (set)"
              }
            ]
          }
        ],
        "type": {
          "text": "Laboratory Report"
        },
        "section": [
          {
            "code": {
              "coding": [
                {
                  "code": "26436-6",
                  "system": "http://loinc.org",
                  "display": "Laboratory studies (set)"
                }
              ],
              "text": "Laboratory studies"
            },
            "section": [
              {
                "code": {
                  "coding": [
                    {
                      "code": "18719-5",
                      "system": "http://loinc.org",
                      "display": "Chemistry studies (set)"
                    }
                  ],
                  "text": "Chemistry"
                },
                "entry": [
                  {
                    "reference": "urn:uuid:3ab0bae0-30b8-486a-b409-3f35b36be631"
                  },
                  {
                    "reference": "urn:uuid:60173012-f272-4bf0-9a34-357c463c26e3"
                  },
                  {
                    "reference": "urn:uuid:ab9ef918-9f54-48f8-9bdf-71d1d633471b"
                  },
                  {
                    "reference": "urn:uuid:222b74bc-d80b-429f-9583-1a96da94afec"
                  },
                  {
                    "reference": "urn:uuid:83cbdc4e-7220-40f7-a14f-b59cf6a08606"
                  },
                  {
                    "reference": "urn:uuid:9565a194-2e22-405e-843f-e63d264331af"
                  },
                  {
                    "reference": "urn:uuid:d9489c55-fad4-40e7-a276-27ecd5a902b5"
                  },
                  {
                    "reference": "urn:uuid:4cc1e755-f626-400f-bca5-84ecb7f41243"
                  },
                  {
                    "reference": "urn:uuid:1dc693bb-ac38-4d0f-aefc-410e87c0f79a"
                  }
                ],
                "text": {
                  "status": "generated",
                  "div": "<div xmlns=\"http://www.w3.org/1999/xhtml\"><h3 id=\"section-1\">Chemistry</h3><table class=\"hl7__eu__lab__report\"><thead><tr><th>Test</th><th>18 Nov 2024</th><th>Reference Range</th><th>Unit</th></tr></thead><tbody><tr><td>Glucose [Mass/volume] in Blood</td><td>89.0</td><td>70 - 140</td><td>mg/dL</td></tr><tr><td>Urea nitrogen [Mass/volume] in Blood</td><td>18.2</td><td>7 - 25</td><td>mg/dL</td></tr><tr><td>Creatinine [Mass/volume] in Blood</td><td>0.7</td><td>0.6 - 1.3</td><td>mg/dL</td></tr><tr><td>Calcium [Mass/volume] in Blood</td><td>9.3</td><td>8.5 - 10.5</td><td>mg/dL</td></tr><tr><td>Sodium [Moles/volume] in Blood</td><td>142.0</td><td>135 - 145</td><td>mmol/L</td></tr><tr><td>Potassium [Moles/volume] in Blood</td><td>4.7</td><td>3.5 - 5.3</td><td>mmol/L</td></tr><tr><td>Chloride [Moles/volume] in Blood</td><td><strong>109.9 H</strong></td><td>101 - 107</td><td>mmol/L</td></tr><tr><td>Carbon dioxide, total [Moles/volume] in Blood</td><td>27.3</td><td>22 - 32</td><td>mmol/L</td></tr><tr><td>Hemoglobin A1c/Hemoglobin.total in Blood</td><td>5.9</td><td>4.5 - 6.4</td><td>%</td></tr></tbody></table></div>"
                },
                "title": "Chemistry"
              }
            ],
            "title": "Laboratory Report"
          }
        ],
        "status": "final",
        "subject": {
          "reference": "urn:uuid:75f59761-52a3-4e6c-bd55-2fc6917b5742"
        },
        "date": "2024-11-19T18:36:47Z",
        "title": "Laboratory Report",
        "confidentiality": "N"
      }
    },
    {
      "fullUrl": "urn:uuid:58351a40-c92c-42d9-af56-ca32b3f1cf00",
      "resource": {
        "resourceType": "DiagnosticReport",
        "id": "58351a40-c92c-42d9-af56-ca32b3f1cf00",
        "meta": {
          "profile": [
            "http://hl7.eu/fhir/laboratory/StructureDefinition/DiagnosticReport-eu-lab"
          ]
        },
        "identifier": [
          {
            "assigner": {
              "display": "HL7 Europe"
            },
            "system": "urn:oid:2.16.840.1.113883.2.51.999",
            "value": "25840b6d-6623-4ff8-bfa9-0fbd4aa97815"
          }
        ],
        "extension": [
          {
            "url": "http://hl7.org/fhir/5.0/StructureDefinition/extension-DiagnosticReport.composition",
            "valueReference": {
              "reference": "urn:uuid:fcfa2d91-b340-44f2-bd95-c26744e32052"
            }
          }
        ],
        "category": [
          {
            "coding": [
              {
                "code": "18719-5",
                "system": "http://loinc.org",
                "display": "Chemistry studies (set)"
              }
            ]
          }
        ],
        "specimen": [
          {
            "reference": "urn:uuid:89060e33-f879-4fcc-964f-bc8f14fd97f5"
          }
        ],
        "result": [
          {
            "reference": "urn:uuid:3ab0bae0-30b8-486a-b409-3f35b36be631"
          },
          {
            "reference": "urn:uuid:60173012-f272-4bf0-9a34-357c463c26e3"
          },
          {
            "reference": "urn:uuid:ab9ef918-9f54-48f8-9bdf-71d1d633471b"
          },
          {
            "reference": "urn:uuid:222b74bc-d80b-429f-9583-1a96da94afec"
          },
          {
            "reference": "urn:uuid:83cbdc4e-7220-40f7-a14f-b59cf6a08606"
          },
          {
            "reference": "urn:uuid:9565a194-2e22-405e-843f-e63d264331af"
          },
          {
            "reference": "urn:uuid:d9489c55-fad4-40e7-a276-27ecd5a902b5"
          },
          {
            "reference": "urn:uuid:4cc1e755-f626-400f-bca5-84ecb7f41243"
          },
          {
            "reference": "urn:uuid:1dc693bb-ac38-4d0f-aefc-410e87c0f79a"
          }
        ],
        "status": "registered",
        "code": {
          "coding": [
            {
              "code": "11502-2",
              "system": "http://loinc.org",
              "display": "Laboratory report"
            }
          ]
        },
        "subject": {
          "reference": "urn:uuid:75f59761-52a3-4e6c-bd55-2fc6917b5742"
        }
      }
    },
    {
      "fullUrl": "urn:uuid:75f59761-52a3-4e6c-bd55-2fc6917b5742",
      "resource": {
        "resourceType": "Patient",
        "id": "75f59761-52a3-4e6c-bd55-2fc6917b5742",
        "meta": {
          "profile": [
            "http://hl7.eu/fhir/laboratory/StructureDefinition/Patient-eu-lab"
          ]
        },
        "identifier": [
          {
            "type": {
              "coding": [
                {
                  "code": "NI",
                  "system": "http://terminology.hl7.org/CodeSystem/v2-0203"
                }
              ]
            },
            "system": "http://ec.europa.eu/identifier/eci",
            "value": "1809-386903-2"
          },
          {
            "type": {
              "coding": [
                {
                  "code": "MR",
                  "system": "http://terminology.hl7.org/CodeSystem/v2-0203"
                }
              ]
            },
            "system": "http://local.setting.eu/identifier",
            "value": "58560b0f-4c9e-4d68-b911-37d6103c368f"
          }
        ],
        "name": [
          {
            "given": [
              "Bent"
            ],
            "family": "Petersen",
            "text": "Bent Petersen"
          }
        ],
        "address": [
          {
            "line": [
              "Ladbyvej 93"
            ],
            "use": "home",
            "type": "physical",
            "city": "Outrup",
            "postalCode": "6855",
            "country": "Denmark"
          }
        ],
        "telecom": [
          {
            "system": "phone",
            "value": "+45 25-23-20-59"
          }
        ],
        "gender": "male",
        "birthDate": "1942-09-12"
      }
    },
    {
      "fullUrl": "urn:uuid:e7209a2e-1a4c-40fe-b329-eaf52be68d7a",
      "resource": {
        "resourceType": "ServiceRequest",
        "id": "e7209a2e-1a4c-40fe-b329-eaf52be68d7a",
        "meta": {
          "profile": [
            "http://hl7.eu/fhir/laboratory/StructureDefinition/ServiceRequest-eu-lab"
          ]
        },
        "identifier": [
          {
            "system": "http://example.org",
            "value": "7ad135c5-0324-4be9-986f-86472130060a"
          }
        ],
        "specimen": [
          {
            "reference": "urn:uuid:89060e33-f879-4fcc-964f-bc8f14fd97f5"
          }
        ],
        "status": "active",
        "intent": "order",
        "code": {
          "coding": [
            {
              "code": "108252007",
              "system": "http://snomed.info/sct",
              "display": "Laboratory procedure"
            }
          ]
        },
        "subject": {
          "reference": "urn:uuid:75f59761-52a3-4e6c-bd55-2fc6917b5742"
        },
        "requester": {
          "reference": "urn:uuid:86a133b5-3937-4cca-9418-0bf486dd6460"
        }
      }
    },
    {
      "fullUrl": "urn:uuid:86a133b5-3937-4cca-9418-0bf486dd6460",
      "resource": {
        "resourceType": "PractitionerRole",
        "id": "86a133b5-3937-4cca-9418-0bf486dd6460",
        "meta": {
          "profile": [
            "http://hl7.eu/fhir/laboratory/StructureDefinition/PractitionerRole-eu-lab"
          ]
        },
        "organization": {
          "reference": "urn:uuid:3f166095-0d05-425a-af83-f8c7f691caa6"
        }
      }
    },
    {
      "fullUrl": "urn:uuid:3f166095-0d05-425a-af83-f8c7f691caa6",
      "resource": {
        "resourceType": "Organization",
        "id": "3f166095-0d05-425a-af83-f8c7f691caa6",
        "meta": {
          "profile": [
            "http://hl7.org/fhir/uv/ips/StructureDefinition/Organization-uv-ips"
          ]
        },
        "identifier": [
          {
            "assigner": {
              "display": "HL7 Europe"
            },
            "system": "urn:oid:2.16.840.1.113883.2.51.999",
            "value": "b450b831-32d5-4191-a04b-dd0b54b8e724"
          }
        ],
        "address": [
          {
            "city": "Gjesing",
            "postalCode": "6715",
            "country": "dk"
          }
        ],
        "name": "Psykiatricenter Vest, Esbjerg"
      }
    },
    {
      "fullUrl": "urn:uuid:6f080f41-3f44-4318-916b-27f0ef81fcb1",
      "resource": {
        "resourceType": "PractitionerRole",
        "id": "6f080f41-3f44-4318-916b-27f0ef81fcb1",
        "meta": {
          "profile": [
            "http://hl7.eu/fhir/laboratory/StructureDefinition/PractitionerRole-eu-lab"
          ]
        },
        "practitioner": {
          "reference": "urn:uuid:574f3563-fb81-4803-90e3-0eb090e1cf84"
        }
      }
    },
    {
      "fullUrl": "urn:uuid:574f3563-fb81-4803-90e3-0eb090e1cf84",
      "resource": {
        "resourceType": "Practitioner",
        "id": "574f3563-fb81-4803-90e3-0eb090e1cf84",
        "meta": {
          "profile": [
            "http://hl7.eu/fhir/laboratory/StructureDefinition/Practitioner-eu-lab"
          ]
        },
        "identifier": [
          {
            "assigner": {
              "display": "HL7 Europe"
            },
            "system": "urn:oid:2.16.840.1.113883.2.51.999",
            "value": "6b6287bc-a325-4df4-92b2-f50e0233b30b"
          }
        ],
        "name": [
          {
            "prefix": [
              "dr"
            ],
            "given": [
              "Ex"
            ],
            "family": "Ample"
          }
        ],
        "address": [
          {
            "line": [
              "Boulevard du Jardin Botanique 32"
            ],
            "city": "Brussels",
            "postalCode": "1000"
          }
        ]
      }
    },
    {
      "fullUrl": "urn:uuid:89060e33-f879-4fcc-964f-bc8f14fd97f5",
      "resource": {
        "resourceType": "Specimen",
        "id": "89060e33-f879-4fcc-964f-bc8f14fd97f5",
        "meta": {
          "profile": [
            "http://hl7.eu/fhir/laboratory/StructureDefinition/Specimen-eu-lab"
          ]
        },
        "collection": {
          "collectedDateTime": "2024-11-18"
        },
        "status": "available",
        "type": {
          "coding": [
            {
              "code": "258580003",
              "system": "http://snomed.info/sct",
              "display": "Whole blood specimen (specimen)"
            }
          ]
        }
      }
    },
    {
      "fullUrl": "urn:uuid:3ab0bae0-30b8-486a-b409-3f35b36be631",
      "resource": {
        "resourceType": "Observation",
        "id": "3ab0bae0-30b8-486a-b409-3f35b36be631",
        "meta": {
          "profile": [
            "http://hl7.eu/fhir/laboratory/StructureDefinition/Observation-resultslab-eu-lab"
          ]
        },
        "performer": [
          {
            "display": "The Central European Lab"
          }
        ],
        "category": [
          {
            "coding": [
              {
                "code": "laboratory",
                "system": "http://terminology.hl7.org/CodeSystem/observation-category"
              }
            ]
          }
        ],
        "code": {
          "coding": [
            {
              "code": "2339-0",
              "system": "http://loinc.org",
              "display": "Glucose [Mass/volume] in Blood"
            }
          ],
          "text": "Glucose [Mass/volume] in Blood"
        },
        "valueQuantity": {
          "system": "http://unitsofmeasure.org",
          "value": 89,
          "unit": "mg/dL",
          "code": "mg/dL"
        },
        "referenceRange": [
          {
            "low": {
              "value": 70,
              "code": "mg/dL",
              "system": "http://unitsofmeasure.org"
            }
          },
          {
            "high": {
              "value": 140,
              "code": "mg/dL",
              "system": "http://unitsofmeasure.org"
            }
          }
        ],
        "status": "final",
        "subject": {
          "reference": "urn:uuid:75f59761-52a3-4e6c-bd55-2fc6917b5742"
        },
        "effectiveDateTime": "2024-11-18",
        "specimen": {
          "reference": "urn:uuid:89060e33-f879-4fcc-964f-bc8f14fd97f5"
        }
      }
    },
    {
      "fullUrl": "urn:uuid:60173012-f272-4bf0-9a34-357c463c26e3",
      "resource": {
        "resourceType": "Observation",
        "id": "60173012-f272-4bf0-9a34-357c463c26e3",
        "meta": {
          "profile": [
            "http://hl7.eu/fhir/laboratory/StructureDefinition/Observation-resultslab-eu-lab"
          ]
        },
        "performer": [
          {
            "display": "The Central European Lab"
          }
        ],
        "category": [
          {
            "coding": [
              {
                "code": "laboratory",
                "system": "http://terminology.hl7.org/CodeSystem/observation-category"
              }
            ]
          }
        ],
        "code": {
          "coding": [
            {
              "code": "6299-2",
              "system": "http://loinc.org",
              "display": "Urea nitrogen [Mass/volume] in Blood"
            }
          ],
          "text": "Urea nitrogen [Mass/volume] in Blood"
        },
        "valueQuantity": {
          "system": "http://unitsofmeasure.org",
          "value": 18.2,
          "unit": "mg/dL",
          "code": "mg/dL"
        },
        "referenceRange": [
          {
            "low": {
              "value": 7,
              "code": "mg/dL",
              "system": "http://unitsofmeasure.org"
            }
          },
          {
            "high": {
              "value": 25,
              "code": "mg/dL",
              "system": "http://unitsofmeasure.org"
            }
          }
        ],
        "status": "final",
        "subject": {
          "reference": "urn:uuid:75f59761-52a3-4e6c-bd55-2fc6917b5742"
        },
        "effectiveDateTime": "2024-11-18",
        "specimen": {
          "reference": "urn:uuid:89060e33-f879-4fcc-964f-bc8f14fd97f5"
        }
      }
    },
    {
      "fullUrl": "urn:uuid:ab9ef918-9f54-48f8-9bdf-71d1d633471b",
      "resource": {
        "resourceType": "Observation",
        "id": "ab9ef918-9f54-48f8-9bdf-71d1d633471b",
        "meta": {
          "profile": [
            "http://hl7.eu/fhir/laboratory/StructureDefinition/Observation-resultslab-eu-lab"
          ]
        },
        "performer": [
          {
            "display": "The Central European Lab"
          }
        ],
        "category": [
          {
            "coding": [
              {
                "code": "laboratory",
                "system": "http://terminology.hl7.org/CodeSystem/observation-category"
              }
            ]
          }
        ],
        "code": {
          "coding": [
            {
              "code": "38483-4",
              "system": "http://loinc.org",
              "display": "Creatinine [Mass/volume] in Blood"
            }
          ],
          "text": "Creatinine [Mass/volume] in Blood"
        },
        "valueQuantity": {
          "system": "http://unitsofmeasure.org",
          "value": 0.7,
          "unit": "mg/dL",
          "code": "mg/dL"
        },
        "referenceRange": [
          {
            "low": {
              "value": 0.6,
              "code": "mg/dL",
              "system": "http://unitsofmeasure.org"
            }
          },
          {
            "high": {
              "value": 1.3,
              "code": "mg/dL",
              "system": "http://unitsofmeasure.org"
            }
          }
        ],
        "status": "final",
        "subject": {
          "reference": "urn:uuid:75f59761-52a3-4e6c-bd55-2fc6917b5742"
        },
        "effectiveDateTime": "2024-11-18",
        "specimen": {
          "reference": "urn:uuid:89060e33-f879-4fcc-964f-bc8f14fd97f5"
        }
      }
    },
    {
      "fullUrl": "urn:uuid:222b74bc-d80b-429f-9583-1a96da94afec",
      "resource": {
        "resourceType": "Observation",
        "id": "222b74bc-d80b-429f-9583-1a96da94afec",
        "meta": {
          "profile": [
            "http://hl7.eu/fhir/laboratory/StructureDefinition/Observation-resultslab-eu-lab"
          ]
        },
        "performer": [
          {
            "display": "The Central European Lab"
          }
        ],
        "category": [
          {
            "coding": [
              {
                "code": "laboratory",
                "system": "http://terminology.hl7.org/CodeSystem/observation-category"
              }
            ]
          }
        ],
        "code": {
          "coding": [
            {
              "code": "49765-1",
              "system": "http://loinc.org",
              "display": "Calcium [Mass/volume] in Blood"
            }
          ],
          "text": "Calcium [Mass/volume] in Blood"
        },
        "valueQuantity": {
          "system": "http://unitsofmeasure.org",
          "value": 9.3,
          "unit": "mg/dL",
          "code": "mg/dL"
        },
        "referenceRange": [
          {
            "low": {
              "value": 8.5,
              "code": "mg/dL",
              "system": "http://unitsofmeasure.org"
            }
          },
          {
            "high": {
              "value": 10.5,
              "code": "mg/dL",
              "system": "http://unitsofmeasure.org"
            }
          }
        ],
        "status": "final",
        "subject": {
          "reference": "urn:uuid:75f59761-52a3-4e6c-bd55-2fc6917b5742"
        },
        "effectiveDateTime": "2024-11-18",
        "specimen": {
          "reference": "urn:uuid:89060e33-f879-4fcc-964f-bc8f14fd97f5"
        }
      }
    },
    {
      "fullUrl": "urn:uuid:83cbdc4e-7220-40f7-a14f-b59cf6a08606",
      "resource": {
        "resourceType": "Observation",
        "id": "83cbdc4e-7220-40f7-a14f-b59cf6a08606",
        "meta": {
          "profile": [
            "http://hl7.eu/fhir/laboratory/StructureDefinition/Observation-resultslab-eu-lab"
          ]
        },
        "performer": [
          {
            "display": "The Central European Lab"
          }
        ],
        "category": [
          {
            "coding": [
              {
                "code": "laboratory",
                "system": "http://terminology.hl7.org/CodeSystem/observation-category"
              }
            ]
          }
        ],
        "code": {
          "coding": [
            {
              "code": "2947-0",
              "system": "http://loinc.org",
              "display": "Sodium [Moles/volume] in Blood"
            }
          ],
          "text": "Sodium [Moles/volume] in Blood"
        },
        "valueQuantity": {
          "system": "http://unitsofmeasure.org",
          "value": 142,
          "unit": "mmol/L",
          "code": "mmol/L"
        },
        "referenceRange": [
          {
            "low": {
              "value": 135,
              "code": "mmol/L",
              "system": "http://unitsofmeasure.org"
            }
          },
          {
            "high": {
              "value": 145,
              "code": "mmol/L",
              "system": "http://unitsofmeasure.org"
            }
          }
        ],
        "status": "final",
        "subject": {
          "reference": "urn:uuid:75f59761-52a3-4e6c-bd55-2fc6917b5742"
        },
        "effectiveDateTime": "2024-11-18",
        "specimen": {
          "reference": "urn:uuid:89060e33-f879-4fcc-964f-bc8f14fd97f5"
        }
      }
    },
    {
      "fullUrl": "urn:uuid:9565a194-2e22-405e-843f-e63d264331af",
      "resource": {
        "resourceType": "Observation",
        "id": "9565a194-2e22-405e-843f-e63d264331af",
        "meta": {
          "profile": [
            "http://hl7.eu/fhir/laboratory/StructureDefinition/Observation-resultslab-eu-lab"
          ]
        },
        "performer": [
          {
            "display": "The Central European Lab"
          }
        ],
        "category": [
          {
            "coding": [
              {
                "code": "laboratory",
                "system": "http://terminology.hl7.org/CodeSystem/observation-category"
              }
            ]
          }
        ],
        "code": {
          "coding": [
            {
              "code": "6298-4",
              "system": "http://loinc.org",
              "display": "Potassium [Moles/volume] in Blood"
            }
          ],
          "text": "Potassium [Moles/volume] in Blood"
        },
        "valueQuantity": {
          "system": "http://unitsofmeasure.org",
          "value": 4.7,
          "unit": "mmol/L",
          "code": "mmol/L"
        },
        "referenceRange": [
          {
            "low": {
              "value": 3.5,
              "code": "mmol/L",
              "system": "http://unitsofmeasure.org"
            }
          },
          {
            "high": {
              "value": 5.3,
              "code": "mmol/L",
              "system": "http://unitsofmeasure.org"
            }
          }
        ],
        "status": "final",
        "subject": {
          "reference": "urn:uuid:75f59761-52a3-4e6c-bd55-2fc6917b5742"
        },
        "effectiveDateTime": "2024-11-18",
        "specimen": {
          "reference": "urn:uuid:89060e33-f879-4fcc-964f-bc8f14fd97f5"
        }
      }
    },
    {
      "fullUrl": "urn:uuid:d9489c55-fad4-40e7-a276-27ecd5a902b5",
      "resource": {
        "resourceType": "Observation",
        "id": "d9489c55-fad4-40e7-a276-27ecd5a902b5",
        "meta": {
          "profile": [
            "http://hl7.eu/fhir/laboratory/StructureDefinition/Observation-resultslab-eu-lab"
          ]
        },
        "performer": [
          {
            "display": "The Central European Lab"
          }
        ],
        "category": [
          {
            "coding": [
              {
                "code": "laboratory",
                "system": "http://terminology.hl7.org/CodeSystem/observation-category"
              }
            ]
          }
        ],
        "code": {
          "coding": [
            {
              "code": "2069-3",
              "system": "http://loinc.org",
              "display": "Chloride [Moles/volume] in Blood"
            }
          ],
          "text": "Chloride [Moles/volume] in Blood"
        },
        "valueQuantity": {
          "system": "http://unitsofmeasure.org",
          "value": 109.9,
          "unit": "mmol/L",
          "code": "mmol/L"
        },
        "referenceRange": [
          {
            "low": {
              "value": 101,
              "code": "mmol/L",
              "system": "http://unitsofmeasure.org"
            }
          },
          {
            "high": {
              "value": 107,
              "code": "mmol/L",
              "system": "http://unitsofmeasure.org"
            }
          }
        ],
        "interpretation": [
          {
            "coding": [
              {
                "code": "H",
                "system": "http://terminology.hl7.org/CodeSystem/v3-ObservationInterpretation",
                "display": "High"
              }
            ]
          }
        ],
        "status": "final",
        "subject": {
          "reference": "urn:uuid:75f59761-52a3-4e6c-bd55-2fc6917b5742"
        },
        "effectiveDateTime": "2024-11-18",
        "specimen": {
          "reference": "urn:uuid:89060e33-f879-4fcc-964f-bc8f14fd97f5"
        }
      }
    },
    {
      "fullUrl": "urn:uuid:4cc1e755-f626-400f-bca5-84ecb7f41243",
      "resource": {
        "resourceType": "Observation",
        "id": "4cc1e755-f626-400f-bca5-84ecb7f41243",
        "meta": {
          "profile": [
            "http://hl7.eu/fhir/laboratory/StructureDefinition/Observation-resultslab-eu-lab"
          ]
        },
        "performer": [
          {
            "display": "The Central European Lab"
          }
        ],
        "category": [
          {
            "coding": [
              {
                "code": "laboratory",
                "system": "http://terminology.hl7.org/CodeSystem/observation-category"
              }
            ]
          }
        ],
        "code": {
          "coding": [
            {
              "code": "20565-8",
              "system": "http://loinc.org",
              "display": "Carbon dioxide, total [Moles/volume] in Blood"
            }
          ],
          "text": "Carbon dioxide, total [Moles/volume] in Blood"
        },
        "valueQuantity": {
          "system": "http://unitsofmeasure.org",
          "value": 27.3,
          "unit": "mmol/L",
          "code": "mmol/L"
        },
        "referenceRange": [
          {
            "low": {
              "value": 22,
              "code": "mmol/L",
              "system": "http://unitsofmeasure.org"
            }
          },
          {
            "high": {
              "value": 32,
              "code": "mmol/L",
              "system": "http://unitsofmeasure.org"
            }
          }
        ],
        "status": "final",
        "subject": {
          "reference": "urn:uuid:75f59761-52a3-4e6c-bd55-2fc6917b5742"
        },
        "effectiveDateTime": "2024-11-18",
        "specimen": {
          "reference": "urn:uuid:89060e33-f879-4fcc-964f-bc8f14fd97f5"
        }
      }
    },
    {
      "fullUrl": "urn:uuid:1dc693bb-ac38-4d0f-aefc-410e87c0f79a",
      "resource": {
        "resourceType": "Observation",
        "id": "1dc693bb-ac38-4d0f-aefc-410e87c0f79a",
        "meta": {
          "profile": [
            "http://hl7.eu/fhir/laboratory/StructureDefinition/Observation-resultslab-eu-lab"
          ]
        },
        "performer": [
          {
            "display": "The Central European Lab"
          }
        ],
        "category": [
          {
            "coding": [
              {
                "code": "laboratory",
                "system": "http://terminology.hl7.org/CodeSystem/observation-category"
              }
            ]
          }
        ],
        "code": {
          "coding": [
            {
              "code": "4548-4",
              "system": "http://loinc.org",
              "display": "Hemoglobin A1c/Hemoglobin.total in Blood"
            }
          ],
          "text": "Hemoglobin A1c/Hemoglobin.total in Blood"
        },
        "valueQuantity": {
          "system": "http://unitsofmeasure.org",
          "value": 5.9,
          "unit": "%",
          "code": "%"
        },
        "referenceRange": [
          {
            "low": {
              "value": 4.5,
              "code": "%",
              "system": "http://unitsofmeasure.org"
            }
          },
          {
            "high": {
              "value": 6.4,
              "code": "%",
              "system": "http://unitsofmeasure.org"
            }
          }
        ],
        "status": "final",
        "subject": {
          "reference": "urn:uuid:75f59761-52a3-4e6c-bd55-2fc6917b5742"
        },
        "effectiveDateTime": "2024-11-18",
        "specimen": {
          "reference": "urn:uuid:89060e33-f879-4fcc-964f-bc8f14fd97f5"
        }
      }
    }
  ],
  "type": "document",
  "timestamp": "2024-11-19T18:36:47Z"
}
