<Bundle xmlns="http://hl7.org/fhir">
   <id value="Instance-Bundle-768814cb-5362-4ad8-8617-5a1cfc9deac6"/>
   <meta>
      <profile value="http://hl7.eu/fhir/laboratory/StructureDefinition/Bundle-eu-lab"/>
   </meta>
   <identifier>
      <system value="urn:oid:2.16.840.1.113883.2.51.999"/>
      <value value="2f72ff14-d6e6-4fe2-95ab-c09ac2731f8e"/>
      <assigner>
         <display value="HL7 Europe"/>
      </assigner>
   </identifier>
   <type value="document"/>
   <timestamp value="2024-11-19T18:41:09Z"/>
   <entry>
      <fullUrl value="urn:uuid:72b929d4-1c08-45f6-a165-551ab6ce368e"/>
      <resource>
         <Composition>
            <id value="72b929d4-1c08-45f6-a165-551ab6ce368e"/>
            <meta>
               <profile value="http://hl7.eu/fhir/laboratory/StructureDefinition/Composition-eu-lab"/>
            </meta>
            <identifier>
               <system value="urn:oid:2.16.840.1.113883.2.51.999"/>
               <value value="aeca800c-e065-4da1-8ce4-4eccb0cb8799"/>
               <assigner>
                  <display value="HL7 Europe"/>
               </assigner>
            </identifier>
            <status value="final"/>
            <type>
               <text value="Laboratory Report"/>
            </type>
            <category>
               <coding>
                  <system value="http://loinc.org"/>
                  <code value="26436-6"/>
                  <display value="Laboratory studies (set)"/>
               </coding>
            </category>
            <subject>
               <reference value="urn:uuid:41c7114e-57a9-4ab2-9a2e-b5e0a465a8b8"/>
            </subject>
            <date value="2024-11-19T18:41:09Z"/>
            <author>
               <reference value="urn:uuid:fd15c98b-de52-40ec-b325-7700485fdc25"/>
            </author>
            <title value="Laboratory Report"/>
            <confidentiality value="N"/>
            <section>
               <title value="Laboratory Report"/>
               <code>
                  <coding>
                     <system value="http://loinc.org"/>
                     <code value="26436-6"/>
                     <display value="Laboratory studies (set)"/>
                  </coding>
                  <text value="Laboratory studies"/>
               </code>
               <section>
                  <title value="Chemistry"/>
                  <code>
                     <coding>
                        <system value="http://loinc.org"/>
                        <code value="18719-5"/>
                        <display value="Chemistry studies (set)"/>
                     </coding>
                     <text value="Chemistry"/>
                  </code>
                  <text>
                     <status value="generated"/>
                     <div xmlns="http://www.w3.org/1999/xhtml">
                        <h3 id="section-1">Chemistry</h3>
                        <table class="hl7__eu__lab__report">
                           <thead>
                              <tr>
                                 <th>Test</th>
                                 <th>18 Nov 2024</th>
                                 <th>Reference Range</th>
                                 <th>Unit</th>
                              </tr>
                           </thead>
                           <tbody>
                              <tr>
                                 <td>Oxygen saturation in Arterial blood</td>
                                 <td>
                                    <strong>76.5 L</strong>
                                 </td>
                                 <td>95 - 100</td>
                                 <td>%</td>
                              </tr>
                           </tbody>
                        </table>
                     </div>
                  </text>
                  <entry>
                     <reference value="urn:uuid:6f29ddf2-4e50-43da-86f7-28c3fab98594"/>
                  </entry>
               </section>
               <section>
                  <title value="Microbiology"/>
                  <code>
                     <coding>
                        <system value="http://loinc.org"/>
                        <code value="18725-2"/>
                        <display value="Microbiology studies"/>
                     </coding>
                     <text value="Microbiology"/>
                  </code>
                  <text>
                     <status value="generated"/>
                     <div xmlns="http://www.w3.org/1999/xhtml">
                        <h3 id="section-2">Microbiology</h3>
                        <table class="hl7__eu__lab__report">
                           <thead>
                              <tr>
                                 <th>Test</th>
                                 <th>18 Nov 2024</th>
                                 <th>Reference Range</th>
                                 <th>Unit</th>
                              </tr>
                           </thead>
                           <tbody>
                              <tr>
                                 <td>Influenza virus A RNA [Presence] in Respiratory system specimen by NAA with probe detection</td>
                                 <td>Negative</td>
                                 <td/>
                                 <td/>
                              </tr>
                              <tr>
                                 <td>Influenza virus B RNA [Presence] in Respiratory system specimen by NAA with probe detection</td>
                                 <td>Negative</td>
                                 <td/>
                                 <td/>
                              </tr>
                              <tr>
                                 <td>Respiratory syncytial virus RNA [Presence] in Respiratory system specimen by NAA with probe detection</td>
                                 <td>Negative</td>
                                 <td/>
                                 <td/>
                              </tr>
                              <tr>
                                 <td>Parainfluenza virus 1 RNA [Presence] in Respiratory system specimen by NAA with probe detection</td>
                                 <td>Negative</td>
                                 <td/>
                                 <td/>
                              </tr>
                              <tr>
                                 <td>Parainfluenza virus 2 RNA [Presence] in Respiratory system specimen by NAA with probe detection</td>
                                 <td>Negative</td>
                                 <td/>
                                 <td/>
                              </tr>
                              <tr>
                                 <td>Parainfluenza virus 3 RNA [Presence] in Respiratory system specimen by NAA with probe detection</td>
                                 <td>Negative</td>
                                 <td/>
                                 <td/>
                              </tr>
                              <tr>
                                 <td>Rhinovirus RNA [Presence] in Respiratory system specimen by NAA with probe detection</td>
                                 <td>Negative</td>
                                 <td/>
                                 <td/>
                              </tr>
                              <tr>
                                 <td>Human metapneumovirus RNA [Presence] in Respiratory system specimen by NAA with probe detection</td>
                                 <td>Negative</td>
                                 <td/>
                                 <td/>
                              </tr>
                              <tr>
                                 <td>Adenovirus A+B+C+D+E DNA [Presence] in Respiratory system specimen by NAA with probe detection</td>
                                 <td>Negative</td>
                                 <td/>
                                 <td/>
                              </tr>
                           </tbody>
                        </table>
                     </div>
                  </text>
                  <entry>
                     <reference value="urn:uuid:5951c585-989c-4c33-917f-53664bb72e63"/>
                  </entry>
                  <entry>
                     <reference value="urn:uuid:f185f5e3-e3ff-4a3f-9031-ac8cd95bdf86"/>
                  </entry>
                  <entry>
                     <reference value="urn:uuid:fe341db0-fa47-41e1-b179-45f42500178d"/>
                  </entry>
                  <entry>
                     <reference value="urn:uuid:17c2c255-241b-4bb6-bfde-b6b1bb85d2f2"/>
                  </entry>
                  <entry>
                     <reference value="urn:uuid:35996466-a328-4e6f-8b63-d6a3e5a12028"/>
                  </entry>
                  <entry>
                     <reference value="urn:uuid:63a2e9c8-d647-444e-bc67-aac3406aa6ac"/>
                  </entry>
                  <entry>
                     <reference value="urn:uuid:cc842c30-47b5-469a-af82-70ff3954935a"/>
                  </entry>
                  <entry>
                     <reference value="urn:uuid:3d5b4a6b-49a7-4ffa-bd97-82072dca9938"/>
                  </entry>
                  <entry>
                     <reference value="urn:uuid:b3a7a741-a553-4b89-92b9-67505b215032"/>
                  </entry>
               </section>
               <section>
                  <title value="Microbiology Panel"/>
                  <code>
                     <coding>
                        <system value="http://loinc.org"/>
                        <code value="18725-2"/>
                        <display value="Microbiology studies"/>
                     </coding>
                     <text value="Microbiology Panel"/>
                  </code>
                  <text>
                     <status value="generated"/>
                     <div xmlns="http://www.w3.org/1999/xhtml">
                        <h3 id="section-3">Microbiology Panel</h3>
                        <table class="hl7__eu__lab__report">
                           <thead>
                              <tr>
                                 <th>Test</th>
                                 <th>18 Nov 2024</th>
                                 <th>Reference Range</th>
                                 <th>Unit</th>
                              </tr>
                           </thead>
                           <tbody>
                              <tr>
                                 <td>SARS-CoV-2 (COVID-19) RNA panel - Respiratory system specimen by NAA with probe detection</td>
                                 <td>Detected</td>
                                 <td/>
                                 <td/>
                              </tr>
                           </tbody>
                        </table>
                     </div>
                  </text>
                  <entry>
                     <reference value="urn:uuid:219a438d-2105-4a3d-80fd-455731355f5b"/>
                  </entry>
               </section>
            </section>
         </Composition>
      </resource>
   </entry>
   <entry>
      <fullUrl value="urn:uuid:59d6d77f-34d1-4076-9698-a7d553fa2bc6"/>
      <resource>
         <DiagnosticReport>
            <id value="59d6d77f-34d1-4076-9698-a7d553fa2bc6"/>
            <meta>
               <profile value="http://hl7.eu/fhir/laboratory/StructureDefinition/DiagnosticReport-eu-lab"/>
            </meta>
            <extension url="http://hl7.org/fhir/5.0/StructureDefinition/extension-DiagnosticReport.composition">
               <valueReference>
                  <reference value="urn:uuid:72b929d4-1c08-45f6-a165-551ab6ce368e"/>
               </valueReference>
            </extension>
            <identifier>
               <system value="urn:oid:2.16.840.1.113883.2.51.999"/>
               <value value="e7483e02-c6b6-4019-8682-531b653539b4"/>
               <assigner>
                  <display value="HL7 Europe"/>
               </assigner>
            </identifier>
            <status value="registered"/>
            <category>
               <coding>
                  <system value="http://loinc.org"/>
                  <code value="18719-5"/>
                  <display value="Chemistry studies (set)"/>
               </coding>
            </category>
            <code>
               <coding>
                  <system value="http://loinc.org"/>
                  <code value="11502-2"/>
                  <display value="Laboratory report"/>
               </coding>
            </code>
            <subject>
               <reference value="urn:uuid:41c7114e-57a9-4ab2-9a2e-b5e0a465a8b8"/>
            </subject>
            <specimen>
               <reference value="urn:uuid:d9c93796-6dad-4e18-a9be-ad41bb7f2466"/>
            </specimen>
            <specimen>
               <reference value="urn:uuid:1121bbb7-ca14-49a0-9640-c4e1c7f456aa"/>
            </specimen>
            <result>
               <reference value="urn:uuid:6f29ddf2-4e50-43da-86f7-28c3fab98594"/>
            </result>
            <result>
               <reference value="urn:uuid:5951c585-989c-4c33-917f-53664bb72e63"/>
            </result>
            <result>
               <reference value="urn:uuid:f185f5e3-e3ff-4a3f-9031-ac8cd95bdf86"/>
            </result>
            <result>
               <reference value="urn:uuid:fe341db0-fa47-41e1-b179-45f42500178d"/>
            </result>
            <result>
               <reference value="urn:uuid:17c2c255-241b-4bb6-bfde-b6b1bb85d2f2"/>
            </result>
            <result>
               <reference value="urn:uuid:35996466-a328-4e6f-8b63-d6a3e5a12028"/>
            </result>
            <result>
               <reference value="urn:uuid:63a2e9c8-d647-444e-bc67-aac3406aa6ac"/>
            </result>
            <result>
               <reference value="urn:uuid:cc842c30-47b5-469a-af82-70ff3954935a"/>
            </result>
            <result>
               <reference value="urn:uuid:3d5b4a6b-49a7-4ffa-bd97-82072dca9938"/>
            </result>
            <result>
               <reference value="urn:uuid:b3a7a741-a553-4b89-92b9-67505b215032"/>
            </result>
            <result>
               <reference value="urn:uuid:219a438d-2105-4a3d-80fd-455731355f5b"/>
            </result>
         </DiagnosticReport>
      </resource>
   </entry>
   <entry>
      <fullUrl value="urn:uuid:41c7114e-57a9-4ab2-9a2e-b5e0a465a8b8"/>
      <resource>
         <Patient>
            <id value="41c7114e-57a9-4ab2-9a2e-b5e0a465a8b8"/>
            <meta>
               <profile value="http://hl7.eu/fhir/laboratory/StructureDefinition/Patient-eu-lab"/>
            </meta>
            <identifier>
               <type>
                  <coding>
                     <system value="http://terminology.hl7.org/CodeSystem/v2-0203"/>
                     <code value="NI"/>
                  </coding>
               </type>
               <system value="http://ec.europa.eu/identifier/eci"/>
               <value value="8590-487071-5"/>
            </identifier>
            <identifier>
               <type>
                  <coding>
                     <system value="http://terminology.hl7.org/CodeSystem/v2-0203"/>
                     <code value="MR"/>
                  </coding>
               </type>
               <system value="http://local.setting.eu/identifier"/>
               <value value="9e87bce1-c48e-4a58-b193-b543119a93fd"/>
            </identifier>
            <name>
               <text value="Josefine Hedegaard"/>
               <family value="Hedegaard"/>
               <given value="Josefine"/>
            </name>
            <telecom>
               <system value="phone"/>
               <value value="+46 0583-7785753"/>
            </telecom>
            <gender value="female"/>
            <birthDate value="2004-01-11"/>
            <address>
               <use value="home"/>
               <type value="physical"/>
               <line value="Sjötullsgatan 14"/>
               <city value="Åmmeberg"/>
               <postalCode value="696 03"/>
               <country value="Sweden"/>
            </address>
         </Patient>
      </resource>
   </entry>
   <entry>
      <fullUrl value="urn:uuid:f37e541a-7d6c-4644-9189-25c6509589eb"/>
      <resource>
         <ServiceRequest>
            <id value="f37e541a-7d6c-4644-9189-25c6509589eb"/>
            <meta>
               <profile value="http://hl7.eu/fhir/laboratory/StructureDefinition/ServiceRequest-eu-lab"/>
            </meta>
            <identifier>
               <system value="http://example.org"/>
               <value value="f2751610-139d-46b7-bb29-275591521de9"/>
            </identifier>
            <status value="active"/>
            <intent value="order"/>
            <code>
               <coding>
                  <system value="http://snomed.info/sct"/>
                  <code value="108252007"/>
                  <display value="Laboratory procedure"/>
               </coding>
            </code>
            <subject>
               <reference value="urn:uuid:41c7114e-57a9-4ab2-9a2e-b5e0a465a8b8"/>
            </subject>
            <requester>
               <reference value="urn:uuid:ba3cb380-e753-4d67-b65e-2dccd0293ba8"/>
            </requester>
            <specimen>
               <reference value="urn:uuid:d9c93796-6dad-4e18-a9be-ad41bb7f2466"/>
            </specimen>
            <specimen>
               <reference value="urn:uuid:1121bbb7-ca14-49a0-9640-c4e1c7f456aa"/>
            </specimen>
         </ServiceRequest>
      </resource>
   </entry>
   <entry>
      <fullUrl value="urn:uuid:ba3cb380-e753-4d67-b65e-2dccd0293ba8"/>
      <resource>
         <PractitionerRole>
            <id value="ba3cb380-e753-4d67-b65e-2dccd0293ba8"/>
            <meta>
               <profile value="http://hl7.eu/fhir/laboratory/StructureDefinition/PractitionerRole-eu-lab"/>
            </meta>
            <organization>
               <reference value="urn:uuid:3b7ef016-089c-4f2f-a2bd-71109d418717"/>
            </organization>
         </PractitionerRole>
      </resource>
   </entry>
   <entry>
      <fullUrl value="urn:uuid:3b7ef016-089c-4f2f-a2bd-71109d418717"/>
      <resource>
         <Organization>
            <id value="3b7ef016-089c-4f2f-a2bd-71109d418717"/>
            <meta>
               <profile value="http://hl7.org/fhir/uv/ips/StructureDefinition/Organization-uv-ips"/>
            </meta>
            <identifier>
               <system value="urn:oid:2.16.840.1.113883.2.51.999"/>
               <value value="330f85d6-3584-49d1-a6a7-2046ee066bb9"/>
               <assigner>
                  <display value="HL7 Europe"/>
               </assigner>
            </identifier>
            <name value="Höglandssjukhuset Eksjö"/>
            <address>
               <city value="Eksjö"/>
               <postalCode value="575 31"/>
               <country value="se"/>
            </address>
         </Organization>
      </resource>
   </entry>
   <entry>
      <fullUrl value="urn:uuid:fd15c98b-de52-40ec-b325-7700485fdc25"/>
      <resource>
         <PractitionerRole>
            <id value="fd15c98b-de52-40ec-b325-7700485fdc25"/>
            <meta>
               <profile value="http://hl7.eu/fhir/laboratory/StructureDefinition/PractitionerRole-eu-lab"/>
            </meta>
            <practitioner>
               <reference value="urn:uuid:0699240e-3a26-4b16-b66f-2749ff951513"/>
            </practitioner>
         </PractitionerRole>
      </resource>
   </entry>
   <entry>
      <fullUrl value="urn:uuid:0699240e-3a26-4b16-b66f-2749ff951513"/>
      <resource>
         <Practitioner>
            <id value="0699240e-3a26-4b16-b66f-2749ff951513"/>
            <meta>
               <profile value="http://hl7.eu/fhir/laboratory/StructureDefinition/Practitioner-eu-lab"/>
            </meta>
            <identifier>
               <system value="urn:oid:2.16.840.1.113883.2.51.999"/>
               <value value="7179ce7c-0f59-4539-8c77-3de5bbcea930"/>
               <assigner>
                  <display value="HL7 Europe"/>
               </assigner>
            </identifier>
            <name>
               <family value="Ample"/>
               <given value="Ex"/>
               <prefix value="dr"/>
            </name>
            <address>
               <line value="Boulevard du Jardin Botanique 32"/>
               <city value="Brussels"/>
               <postalCode value="1000"/>
            </address>
         </Practitioner>
      </resource>
   </entry>
   <entry>
      <fullUrl value="urn:uuid:d9c93796-6dad-4e18-a9be-ad41bb7f2466"/>
      <resource>
         <Specimen>
            <id value="d9c93796-6dad-4e18-a9be-ad41bb7f2466"/>
            <meta>
               <profile value="http://hl7.eu/fhir/laboratory/StructureDefinition/Specimen-eu-lab"/>
            </meta>
            <status value="available"/>
            <type>
               <coding>
                  <system value="http://snomed.info/sct"/>
                  <code value="122552005"/>
                  <display value="Arterial blood specimen (specimen)"/>
               </coding>
            </type>
            <collection>
               <collectedDateTime value="2024-11-18"/>
            </collection>
         </Specimen>
      </resource>
   </entry>
   <entry>
      <fullUrl value="urn:uuid:1121bbb7-ca14-49a0-9640-c4e1c7f456aa"/>
      <resource>
         <Specimen>
            <id value="1121bbb7-ca14-49a0-9640-c4e1c7f456aa"/>
            <meta>
               <profile value="http://hl7.eu/fhir/laboratory/StructureDefinition/Specimen-eu-lab"/>
            </meta>
            <status value="available"/>
            <type>
               <coding>
                  <system value="http://snomed.info/sct"/>
                  <code value="258603007"/>
                  <display value="Respiratory specimen (specimen)"/>
               </coding>
            </type>
            <collection>
               <collectedDateTime value="2024-11-18"/>
            </collection>
         </Specimen>
      </resource>
   </entry>
   <entry>
      <fullUrl value="urn:uuid:6f29ddf2-4e50-43da-86f7-28c3fab98594"/>
      <resource>
         <Observation>
            <id value="6f29ddf2-4e50-43da-86f7-28c3fab98594"/>
            <meta>
               <profile value="http://hl7.eu/fhir/laboratory/StructureDefinition/Observation-resultslab-eu-lab"/>
            </meta>
            <status value="final"/>
            <category>
               <coding>
                  <system value="http://terminology.hl7.org/CodeSystem/observation-category"/>
                  <code value="laboratory"/>
               </coding>
            </category>
            <code>
               <coding>
                  <system value="http://loinc.org"/>
                  <code value="2708-6"/>
                  <display value="Oxygen saturation in Arterial blood"/>
               </coding>
               <text value="Oxygen saturation in Arterial blood"/>
            </code>
            <subject>
               <reference value="urn:uuid:41c7114e-57a9-4ab2-9a2e-b5e0a465a8b8"/>
            </subject>
            <effectiveDateTime value="2024-11-18"/>
            <performer>
               <display value="The Central European Lab"/>
            </performer>
            <valueQuantity>
               <value value="76.5"/>
               <unit value="%"/>
               <system value="http://unitsofmeasure.org"/>
               <code value="%"/>
            </valueQuantity>
            <interpretation>
               <coding>
                  <system value="http://terminology.hl7.org/CodeSystem/v3-ObservationInterpretation"/>
                  <code value="L"/>
                  <display value="Low"/>
               </coding>
            </interpretation>
            <specimen>
               <reference value="urn:uuid:d9c93796-6dad-4e18-a9be-ad41bb7f2466"/>
            </specimen>
            <referenceRange>
               <low>
                  <value value="95"/>
                  <system value="http://unitsofmeasure.org"/>
                  <code value="%"/>
               </low>
            </referenceRange>
            <referenceRange>
               <high>
                  <value value="100"/>
                  <system value="http://unitsofmeasure.org"/>
                  <code value="%"/>
               </high>
            </referenceRange>
         </Observation>
      </resource>
   </entry>
   <entry>
      <fullUrl value="urn:uuid:5951c585-989c-4c33-917f-53664bb72e63"/>
      <resource>
         <Observation>
            <id value="5951c585-989c-4c33-917f-53664bb72e63"/>
            <meta>
               <profile value="http://hl7.eu/fhir/laboratory/StructureDefinition/Observation-resultslab-eu-lab"/>
            </meta>
            <status value="final"/>
            <category>
               <coding>
                  <system value="http://terminology.hl7.org/CodeSystem/observation-category"/>
                  <code value="laboratory"/>
               </coding>
            </category>
            <code>
               <coding>
                  <system value="http://loinc.org"/>
                  <code value="92142-9"/>
                  <display value="Influenza virus A RNA [Presence] in Respiratory system specimen by NAA with probe detection"/>
               </coding>
               <text value="Influenza virus A RNA [Presence] in Respiratory system specimen by NAA with probe detection"/>
            </code>
            <subject>
               <reference value="urn:uuid:41c7114e-57a9-4ab2-9a2e-b5e0a465a8b8"/>
            </subject>
            <effectiveDateTime value="2024-11-18"/>
            <performer>
               <display value="The Central European Lab"/>
            </performer>
            <valueCodeableConcept>
               <coding>
                  <system value="http://snomed.info/sct"/>
                  <code value="260385009"/>
                  <display value="Negative"/>
               </coding>
            </valueCodeableConcept>
            <specimen>
               <reference value="urn:uuid:1121bbb7-ca14-49a0-9640-c4e1c7f456aa"/>
            </specimen>
         </Observation>
      </resource>
   </entry>
   <entry>
      <fullUrl value="urn:uuid:f185f5e3-e3ff-4a3f-9031-ac8cd95bdf86"/>
      <resource>
         <Observation>
            <id value="f185f5e3-e3ff-4a3f-9031-ac8cd95bdf86"/>
            <meta>
               <profile value="http://hl7.eu/fhir/laboratory/StructureDefinition/Observation-resultslab-eu-lab"/>
            </meta>
            <status value="final"/>
            <category>
               <coding>
                  <system value="http://terminology.hl7.org/CodeSystem/observation-category"/>
                  <code value="laboratory"/>
               </coding>
            </category>
            <code>
               <coding>
                  <system value="http://loinc.org"/>
                  <code value="92141-1"/>
                  <display value="Influenza virus B RNA [Presence] in Respiratory system specimen by NAA with probe detection"/>
               </coding>
               <text value="Influenza virus B RNA [Presence] in Respiratory system specimen by NAA with probe detection"/>
            </code>
            <subject>
               <reference value="urn:uuid:41c7114e-57a9-4ab2-9a2e-b5e0a465a8b8"/>
            </subject>
            <effectiveDateTime value="2024-11-18"/>
            <performer>
               <display value="The Central European Lab"/>
            </performer>
            <valueCodeableConcept>
               <coding>
                  <system value="http://snomed.info/sct"/>
                  <code value="260385009"/>
                  <display value="Negative"/>
               </coding>
            </valueCodeableConcept>
            <specimen>
               <reference value="urn:uuid:1121bbb7-ca14-49a0-9640-c4e1c7f456aa"/>
            </specimen>
         </Observation>
      </resource>
   </entry>
   <entry>
      <fullUrl value="urn:uuid:fe341db0-fa47-41e1-b179-45f42500178d"/>
      <resource>
         <Observation>
            <id value="fe341db0-fa47-41e1-b179-45f42500178d"/>
            <meta>
               <profile value="http://hl7.eu/fhir/laboratory/StructureDefinition/Observation-resultslab-eu-lab"/>
            </meta>
            <status value="final"/>
            <category>
               <coding>
                  <system value="http://terminology.hl7.org/CodeSystem/observation-category"/>
                  <code value="laboratory"/>
               </coding>
            </category>
            <code>
               <coding>
                  <system value="http://loinc.org"/>
                  <code value="92131-2"/>
                  <display value="Respiratory syncytial virus RNA [Presence] in Respiratory system specimen by NAA with probe detection"/>
               </coding>
               <text value="Respiratory syncytial virus RNA [Presence] in Respiratory system specimen by NAA with probe detection"/>
            </code>
            <subject>
               <reference value="urn:uuid:41c7114e-57a9-4ab2-9a2e-b5e0a465a8b8"/>
            </subject>
            <effectiveDateTime value="2024-11-18"/>
            <performer>
               <display value="The Central European Lab"/>
            </performer>
            <valueCodeableConcept>
               <coding>
                  <system value="http://snomed.info/sct"/>
                  <code value="260385009"/>
                  <display value="Negative"/>
               </coding>
            </valueCodeableConcept>
            <specimen>
               <reference value="urn:uuid:1121bbb7-ca14-49a0-9640-c4e1c7f456aa"/>
            </specimen>
         </Observation>
      </resource>
   </entry>
   <entry>
      <fullUrl value="urn:uuid:17c2c255-241b-4bb6-bfde-b6b1bb85d2f2"/>
      <resource>
         <Observation>
            <id value="17c2c255-241b-4bb6-bfde-b6b1bb85d2f2"/>
            <meta>
               <profile value="http://hl7.eu/fhir/laboratory/StructureDefinition/Observation-resultslab-eu-lab"/>
            </meta>
            <status value="final"/>
            <category>
               <coding>
                  <system value="http://terminology.hl7.org/CodeSystem/observation-category"/>
                  <code value="laboratory"/>
               </coding>
            </category>
            <code>
               <coding>
                  <system value="http://loinc.org"/>
                  <code value="92140-3"/>
                  <display value="Parainfluenza virus 1 RNA [Presence] in Respiratory system specimen by NAA with probe detection"/>
               </coding>
               <text value="Parainfluenza virus 1 RNA [Presence] in Respiratory system specimen by NAA with probe detection"/>
            </code>
            <subject>
               <reference value="urn:uuid:41c7114e-57a9-4ab2-9a2e-b5e0a465a8b8"/>
            </subject>
            <effectiveDateTime value="2024-11-18"/>
            <performer>
               <display value="The Central European Lab"/>
            </performer>
            <valueCodeableConcept>
               <coding>
                  <system value="http://snomed.info/sct"/>
                  <code value="260385009"/>
                  <display value="Negative"/>
               </coding>
            </valueCodeableConcept>
            <specimen>
               <reference value="urn:uuid:1121bbb7-ca14-49a0-9640-c4e1c7f456aa"/>
            </specimen>
         </Observation>
      </resource>
   </entry>
   <entry>
      <fullUrl value="urn:uuid:35996466-a328-4e6f-8b63-d6a3e5a12028"/>
      <resource>
         <Observation>
            <id value="35996466-a328-4e6f-8b63-d6a3e5a12028"/>
            <meta>
               <profile value="http://hl7.eu/fhir/laboratory/StructureDefinition/Observation-resultslab-eu-lab"/>
            </meta>
            <status value="final"/>
            <category>
               <coding>
                  <system value="http://terminology.hl7.org/CodeSystem/observation-category"/>
                  <code value="laboratory"/>
               </coding>
            </category>
            <code>
               <coding>
                  <system value="http://loinc.org"/>
                  <code value="92139-5"/>
                  <display value="Parainfluenza virus 2 RNA [Presence] in Respiratory system specimen by NAA with probe detection"/>
               </coding>
               <text value="Parainfluenza virus 2 RNA [Presence] in Respiratory system specimen by NAA with probe detection"/>
            </code>
            <subject>
               <reference value="urn:uuid:41c7114e-57a9-4ab2-9a2e-b5e0a465a8b8"/>
            </subject>
            <effectiveDateTime value="2024-11-18"/>
            <performer>
               <display value="The Central European Lab"/>
            </performer>
            <valueCodeableConcept>
               <coding>
                  <system value="http://snomed.info/sct"/>
                  <code value="260385009"/>
                  <display value="Negative"/>
               </coding>
            </valueCodeableConcept>
            <specimen>
               <reference value="urn:uuid:1121bbb7-ca14-49a0-9640-c4e1c7f456aa"/>
            </specimen>
         </Observation>
      </resource>
   </entry>
   <entry>
      <fullUrl value="urn:uuid:63a2e9c8-d647-444e-bc67-aac3406aa6ac"/>
      <resource>
         <Observation>
            <id value="63a2e9c8-d647-444e-bc67-aac3406aa6ac"/>
            <meta>
               <profile value="http://hl7.eu/fhir/laboratory/StructureDefinition/Observation-resultslab-eu-lab"/>
            </meta>
            <status value="final"/>
            <category>
               <coding>
                  <system value="http://terminology.hl7.org/CodeSystem/observation-category"/>
                  <code value="laboratory"/>
               </coding>
            </category>
            <code>
               <coding>
                  <system value="http://loinc.org"/>
                  <code value="92138-7"/>
                  <display value="Parainfluenza virus 3 RNA [Presence] in Respiratory system specimen by NAA with probe detection"/>
               </coding>
               <text value="Parainfluenza virus 3 RNA [Presence] in Respiratory system specimen by NAA with probe detection"/>
            </code>
            <subject>
               <reference value="urn:uuid:41c7114e-57a9-4ab2-9a2e-b5e0a465a8b8"/>
            </subject>
            <effectiveDateTime value="2024-11-18"/>
            <performer>
               <display value="The Central European Lab"/>
            </performer>
            <valueCodeableConcept>
               <coding>
                  <system value="http://snomed.info/sct"/>
                  <code value="260385009"/>
                  <display value="Negative"/>
               </coding>
            </valueCodeableConcept>
            <specimen>
               <reference value="urn:uuid:1121bbb7-ca14-49a0-9640-c4e1c7f456aa"/>
            </specimen>
         </Observation>
      </resource>
   </entry>
   <entry>
      <fullUrl value="urn:uuid:cc842c30-47b5-469a-af82-70ff3954935a"/>
      <resource>
         <Observation>
            <id value="cc842c30-47b5-469a-af82-70ff3954935a"/>
            <meta>
               <profile value="http://hl7.eu/fhir/laboratory/StructureDefinition/Observation-resultslab-eu-lab"/>
            </meta>
            <status value="final"/>
            <category>
               <coding>
                  <system value="http://terminology.hl7.org/CodeSystem/observation-category"/>
                  <code value="laboratory"/>
               </coding>
            </category>
            <code>
               <coding>
                  <system value="http://loinc.org"/>
                  <code value="92130-4"/>
                  <display value="Rhinovirus RNA [Presence] in Respiratory system specimen by NAA with probe detection"/>
               </coding>
               <text value="Rhinovirus RNA [Presence] in Respiratory system specimen by NAA with probe detection"/>
            </code>
            <subject>
               <reference value="urn:uuid:41c7114e-57a9-4ab2-9a2e-b5e0a465a8b8"/>
            </subject>
            <effectiveDateTime value="2024-11-18"/>
            <performer>
               <display value="The Central European Lab"/>
            </performer>
            <valueCodeableConcept>
               <coding>
                  <system value="http://snomed.info/sct"/>
                  <code value="260385009"/>
                  <display value="Negative"/>
               </coding>
            </valueCodeableConcept>
            <specimen>
               <reference value="urn:uuid:1121bbb7-ca14-49a0-9640-c4e1c7f456aa"/>
            </specimen>
         </Observation>
      </resource>
   </entry>
   <entry>
      <fullUrl value="urn:uuid:3d5b4a6b-49a7-4ffa-bd97-82072dca9938"/>
      <resource>
         <Observation>
            <id value="3d5b4a6b-49a7-4ffa-bd97-82072dca9938"/>
            <meta>
               <profile value="http://hl7.eu/fhir/laboratory/StructureDefinition/Observation-resultslab-eu-lab"/>
            </meta>
            <status value="final"/>
            <category>
               <coding>
                  <system value="http://terminology.hl7.org/CodeSystem/observation-category"/>
                  <code value="laboratory"/>
               </coding>
            </category>
            <code>
               <coding>
                  <system value="http://loinc.org"/>
                  <code value="92134-6"/>
                  <display value="Human metapneumovirus RNA [Presence] in Respiratory system specimen by NAA with probe detection"/>
               </coding>
               <text value="Human metapneumovirus RNA [Presence] in Respiratory system specimen by NAA with probe detection"/>
            </code>
            <subject>
               <reference value="urn:uuid:41c7114e-57a9-4ab2-9a2e-b5e0a465a8b8"/>
            </subject>
            <effectiveDateTime value="2024-11-18"/>
            <performer>
               <display value="The Central European Lab"/>
            </performer>
            <valueCodeableConcept>
               <coding>
                  <system value="http://snomed.info/sct"/>
                  <code value="260385009"/>
                  <display value="Negative"/>
               </coding>
            </valueCodeableConcept>
            <specimen>
               <reference value="urn:uuid:1121bbb7-ca14-49a0-9640-c4e1c7f456aa"/>
            </specimen>
         </Observation>
      </resource>
   </entry>
   <entry>
      <fullUrl value="urn:uuid:b3a7a741-a553-4b89-92b9-67505b215032"/>
      <resource>
         <Observation>
            <id value="b3a7a741-a553-4b89-92b9-67505b215032"/>
            <meta>
               <profile value="http://hl7.eu/fhir/laboratory/StructureDefinition/Observation-resultslab-eu-lab"/>
            </meta>
            <status value="final"/>
            <category>
               <coding>
                  <system value="http://terminology.hl7.org/CodeSystem/observation-category"/>
                  <code value="laboratory"/>
               </coding>
            </category>
            <code>
               <coding>
                  <system value="http://loinc.org"/>
                  <code value="94040-3"/>
                  <display value="Adenovirus A+B+C+D+E DNA [Presence] in Respiratory system specimen by NAA with probe detection"/>
               </coding>
               <text value="Adenovirus A+B+C+D+E DNA [Presence] in Respiratory system specimen by NAA with probe detection"/>
            </code>
            <subject>
               <reference value="urn:uuid:41c7114e-57a9-4ab2-9a2e-b5e0a465a8b8"/>
            </subject>
            <effectiveDateTime value="2024-11-18"/>
            <performer>
               <display value="The Central European Lab"/>
            </performer>
            <valueCodeableConcept>
               <coding>
                  <system value="http://snomed.info/sct"/>
                  <code value="260385009"/>
                  <display value="Negative"/>
               </coding>
            </valueCodeableConcept>
            <specimen>
               <reference value="urn:uuid:1121bbb7-ca14-49a0-9640-c4e1c7f456aa"/>
            </specimen>
         </Observation>
      </resource>
   </entry>
   <entry>
      <fullUrl value="urn:uuid:219a438d-2105-4a3d-80fd-455731355f5b"/>
      <resource>
         <Observation>
            <id value="219a438d-2105-4a3d-80fd-455731355f5b"/>
            <meta>
               <profile value="http://hl7.eu/fhir/laboratory/StructureDefinition/Observation-resultslab-eu-lab"/>
            </meta>
            <status value="final"/>
            <category>
               <coding>
                  <system value="http://terminology.hl7.org/CodeSystem/observation-category"/>
                  <code value="laboratory"/>
               </coding>
            </category>
            <code>
               <coding>
                  <system value="http://loinc.org"/>
                  <code value="94531-1"/>
                  <display value="SARS-CoV-2 (COVID-19) RNA panel - Respiratory system specimen by NAA with probe detection"/>
               </coding>
               <text value="SARS-CoV-2 (COVID-19) RNA panel - Respiratory system specimen by NAA with probe detection"/>
            </code>
            <subject>
               <reference value="urn:uuid:41c7114e-57a9-4ab2-9a2e-b5e0a465a8b8"/>
            </subject>
            <effectiveDateTime value="2024-11-18"/>
            <performer>
               <display value="The Central European Lab"/>
            </performer>
            <valueCodeableConcept>
               <coding>
                  <system value="http://snomed.info/sct"/>
                  <code value="260373001"/>
                  <display value="Detected"/>
               </coding>
            </valueCodeableConcept>
            <specimen>
               <reference value="urn:uuid:1121bbb7-ca14-49a0-9640-c4e1c7f456aa"/>
            </specimen>
         </Observation>
      </resource>
   </entry>
</Bundle>
