{
  "resourceType": "Bundle",
  "id": "Instance-Bundle-235d1336-4afd-4d2c-9c8b-ff0b3cc88975",
  "meta": {
    "profile": [
      "http://hl7.eu/fhir/laboratory/StructureDefinition/Bundle-eu-lab"
    ]
  },
  "identifier": {
    "assigner": {
      "display": "HL7 Europe"
    },
    "system": "urn:oid:2.16.840.1.113883.2.51.999",
    "value": "20002d86-4190-4191-90dd-cec021032065"
  },
  "entry": [
    {
      "fullUrl": "urn:uuid:b4cb74e5-a10a-4d2a-8699-26df8e4ae61d",
      "resource": {
        "resourceType": "Composition",
        "id": "b4cb74e5-a10a-4d2a-8699-26df8e4ae61d",
        "meta": {
          "profile": [
            "http://hl7.eu/fhir/laboratory/StructureDefinition/Composition-eu-lab"
          ]
        },
        "identifier": {
          "assigner": {
            "display": "HL7 Europe"
          },
          "system": "urn:oid:2.16.840.1.113883.2.51.999",
          "value": "b12a2a0a-4d72-43fe-b894-dd61130eea58"
        },
        "author": [
          {
            "reference": "urn:uuid:cbe7e2c5-f2d0-44c1-924a-24a62f9bc580"
          }
        ],
        "category": [
          {
            "coding": [
              {
                "code": "26436-6",
                "system": "http://loinc.org",
                "display": "Laboratory studies (set)"
              }
            ]
          }
        ],
        "type": {
          "text": "Laboratory Report"
        },
        "section": [
          {
            "code": {
              "coding": [
                {
                  "code": "26436-6",
                  "system": "http://loinc.org",
                  "display": "Laboratory studies (set)"
                }
              ],
              "text": "Laboratory studies"
            },
            "section": [
              {
                "code": {
                  "coding": [
                    {
                      "code": "18719-5",
                      "system": "http://loinc.org",
                      "display": "Chemistry studies (set)"
                    }
                  ],
                  "text": "Chemistry"
                },
                "entry": [
                  {
                    "reference": "urn:uuid:0fb0b6f2-59f9-49b9-97df-3ca475fece60"
                  }
                ],
                "text": {
                  "status": "generated",
                  "div": "<div xmlns=\"http://www.w3.org/1999/xhtml\"><h3 id=\"section-1\">Chemistry</h3><table class=\"hl7__eu__lab__report\"><thead><tr><th>Test</th><th>18 Nov 2024</th><th>Reference Range</th><th>Unit</th></tr></thead><tbody><tr><td>Oxygen saturation in Arterial blood</td><td><strong>78.2 L</strong></td><td>95 - 100</td><td>%</td></tr></tbody></table></div>"
                },
                "title": "Chemistry"
              },
              {
                "code": {
                  "coding": [
                    {
                      "code": "18725-2",
                      "system": "http://loinc.org",
                      "display": "Microbiology studies"
                    }
                  ],
                  "text": "Microbiology"
                },
                "entry": [
                  {
                    "reference": "urn:uuid:980a8c97-53d2-4eb8-a80f-5239c5c3a42b"
                  },
                  {
                    "reference": "urn:uuid:537c8e60-5220-47c8-b65f-58d16f93eac5"
                  },
                  {
                    "reference": "urn:uuid:a335042a-134e-460e-9583-a42e9e5e8079"
                  },
                  {
                    "reference": "urn:uuid:3073f9b0-9e3c-4a47-ad7b-1ea1920a9007"
                  },
                  {
                    "reference": "urn:uuid:c4873658-ced2-4fa0-8cf5-c5aecc286695"
                  },
                  {
                    "reference": "urn:uuid:3f8d8238-2bf4-46cb-8e42-3a9cf02f89c8"
                  },
                  {
                    "reference": "urn:uuid:6b41d671-7968-48ae-bfec-3c95e9e45595"
                  },
                  {
                    "reference": "urn:uuid:56aa7ada-d637-4095-b9a3-7396708baef5"
                  },
                  {
                    "reference": "urn:uuid:fbaea2b4-457f-4d2d-8204-72a44047b31a"
                  }
                ],
                "text": {
                  "status": "generated",
                  "div": "<div xmlns=\"http://www.w3.org/1999/xhtml\"><h3 id=\"section-2\">Microbiology</h3><table class=\"hl7__eu__lab__report\"><thead><tr><th>Test</th><th>18 Nov 2024</th><th>Reference Range</th><th>Unit</th></tr></thead><tbody><tr><td>Influenza virus A RNA [Presence] in Respiratory system specimen by NAA with probe detection</td><td>Negative</td><td></td><td></td></tr><tr><td>Influenza virus B RNA [Presence] in Respiratory system specimen by NAA with probe detection</td><td>Negative</td><td></td><td></td></tr><tr><td>Respiratory syncytial virus RNA [Presence] in Respiratory system specimen by NAA with probe detection</td><td>Negative</td><td></td><td></td></tr><tr><td>Parainfluenza virus 1 RNA [Presence] in Respiratory system specimen by NAA with probe detection</td><td>Negative</td><td></td><td></td></tr><tr><td>Parainfluenza virus 2 RNA [Presence] in Respiratory system specimen by NAA with probe detection</td><td>Negative</td><td></td><td></td></tr><tr><td>Parainfluenza virus 3 RNA [Presence] in Respiratory system specimen by NAA with probe detection</td><td>Negative</td><td></td><td></td></tr><tr><td>Rhinovirus RNA [Presence] in Respiratory system specimen by NAA with probe detection</td><td>Negative</td><td></td><td></td></tr><tr><td>Human metapneumovirus RNA [Presence] in Respiratory system specimen by NAA with probe detection</td><td>Negative</td><td></td><td></td></tr><tr><td>Adenovirus A+B+C+D+E DNA [Presence] in Respiratory system specimen by NAA with probe detection</td><td>Negative</td><td></td><td></td></tr></tbody></table></div>"
                },
                "title": "Microbiology"
              },
              {
                "code": {
                  "coding": [
                    {
                      "code": "18725-2",
                      "system": "http://loinc.org",
                      "display": "Microbiology studies"
                    }
                  ],
                  "text": "Microbiology Panel"
                },
                "entry": [
                  {
                    "reference": "urn:uuid:5bacef47-7c22-4f83-b464-b96fd074cd41"
                  }
                ],
                "text": {
                  "status": "generated",
                  "div": "<div xmlns=\"http://www.w3.org/1999/xhtml\"><h3 id=\"section-3\">Microbiology Panel</h3><table class=\"hl7__eu__lab__report\"><thead><tr><th>Test</th><th>18 Nov 2024</th><th>Reference Range</th><th>Unit</th></tr></thead><tbody><tr><td>SARS-CoV-2 (COVID-19) RNA panel - Respiratory system specimen by NAA with probe detection</td><td>Detected</td><td></td><td></td></tr></tbody></table></div>"
                },
                "title": "Microbiology Panel"
              }
            ],
            "title": "Laboratory Report"
          }
        ],
        "status": "final",
        "subject": {
          "reference": "urn:uuid:89c3368d-09d7-4746-8820-aa0225dde6d8"
        },
        "date": "2024-11-19T18:41:19Z",
        "title": "Laboratory Report",
        "confidentiality": "N"
      }
    },
    {
      "fullUrl": "urn:uuid:2becc2ec-c7dc-4a4f-a53c-e114a35b36b7",
      "resource": {
        "resourceType": "DiagnosticReport",
        "id": "2becc2ec-c7dc-4a4f-a53c-e114a35b36b7",
        "meta": {
          "profile": [
            "http://hl7.eu/fhir/laboratory/StructureDefinition/DiagnosticReport-eu-lab"
          ]
        },
        "identifier": [
          {
            "assigner": {
              "display": "HL7 Europe"
            },
            "system": "urn:oid:2.16.840.1.113883.2.51.999",
            "value": "785da386-0bc8-4310-bec2-ae1799953c74"
          }
        ],
        "extension": [
          {
            "url": "http://hl7.org/fhir/5.0/StructureDefinition/extension-DiagnosticReport.composition",
            "valueReference": {
              "reference": "urn:uuid:b4cb74e5-a10a-4d2a-8699-26df8e4ae61d"
            }
          }
        ],
        "category": [
          {
            "coding": [
              {
                "code": "18719-5",
                "system": "http://loinc.org",
                "display": "Chemistry studies (set)"
              }
            ]
          }
        ],
        "specimen": [
          {
            "reference": "urn:uuid:1ffeabe9-2900-4690-a728-f55769dee1da"
          },
          {
            "reference": "urn:uuid:58eeb1d7-0adf-4e22-8b8f-300cd0f13004"
          }
        ],
        "result": [
          {
            "reference": "urn:uuid:0fb0b6f2-59f9-49b9-97df-3ca475fece60"
          },
          {
            "reference": "urn:uuid:980a8c97-53d2-4eb8-a80f-5239c5c3a42b"
          },
          {
            "reference": "urn:uuid:537c8e60-5220-47c8-b65f-58d16f93eac5"
          },
          {
            "reference": "urn:uuid:a335042a-134e-460e-9583-a42e9e5e8079"
          },
          {
            "reference": "urn:uuid:3073f9b0-9e3c-4a47-ad7b-1ea1920a9007"
          },
          {
            "reference": "urn:uuid:c4873658-ced2-4fa0-8cf5-c5aecc286695"
          },
          {
            "reference": "urn:uuid:3f8d8238-2bf4-46cb-8e42-3a9cf02f89c8"
          },
          {
            "reference": "urn:uuid:6b41d671-7968-48ae-bfec-3c95e9e45595"
          },
          {
            "reference": "urn:uuid:56aa7ada-d637-4095-b9a3-7396708baef5"
          },
          {
            "reference": "urn:uuid:fbaea2b4-457f-4d2d-8204-72a44047b31a"
          },
          {
            "reference": "urn:uuid:5bacef47-7c22-4f83-b464-b96fd074cd41"
          }
        ],
        "status": "registered",
        "code": {
          "coding": [
            {
              "code": "11502-2",
              "system": "http://loinc.org",
              "display": "Laboratory report"
            }
          ]
        },
        "subject": {
          "reference": "urn:uuid:89c3368d-09d7-4746-8820-aa0225dde6d8"
        }
      }
    },
    {
      "fullUrl": "urn:uuid:89c3368d-09d7-4746-8820-aa0225dde6d8",
      "resource": {
        "resourceType": "Patient",
        "id": "89c3368d-09d7-4746-8820-aa0225dde6d8",
        "meta": {
          "profile": [
            "http://hl7.eu/fhir/laboratory/StructureDefinition/Patient-eu-lab"
          ]
        },
        "identifier": [
          {
            "type": {
              "coding": [
                {
                  "code": "NI",
                  "system": "http://terminology.hl7.org/CodeSystem/v2-0203"
                }
              ]
            },
            "system": "http://ec.europa.eu/identifier/eci",
            "value": "6137-564321-2"
          },
          {
            "type": {
              "coding": [
                {
                  "code": "MR",
                  "system": "http://terminology.hl7.org/CodeSystem/v2-0203"
                }
              ]
            },
            "system": "http://local.setting.eu/identifier",
            "value": "bfe64b6b-a01f-4901-8344-f567a6296539"
          }
        ],
        "name": [
          {
            "given": [
              "Virginie"
            ],
            "family": "Rodrigue",
            "text": "Virginie Rodrigue"
          }
        ],
        "address": [
          {
            "line": [
              "88 avenue du Marechal Juin"
            ],
            "use": "home",
            "type": "physical",
            "city": "Saint-Louis",
            "postalCode": "97450",
            "country": "France"
          }
        ],
        "telecom": [
          {
            "system": "phone",
            "value": "+33 02.16.75.77.91"
          }
        ],
        "gender": "female",
        "birthDate": "1996-09-09"
      }
    },
    {
      "fullUrl": "urn:uuid:08fff155-46e4-4801-a2b3-912d7a032cf4",
      "resource": {
        "resourceType": "ServiceRequest",
        "id": "08fff155-46e4-4801-a2b3-912d7a032cf4",
        "meta": {
          "profile": [
            "http://hl7.eu/fhir/laboratory/StructureDefinition/ServiceRequest-eu-lab"
          ]
        },
        "identifier": [
          {
            "system": "http://example.org",
            "value": "45173ff9-71f0-4ee4-b001-050a723864a7"
          }
        ],
        "specimen": [
          {
            "reference": "urn:uuid:1ffeabe9-2900-4690-a728-f55769dee1da"
          },
          {
            "reference": "urn:uuid:58eeb1d7-0adf-4e22-8b8f-300cd0f13004"
          }
        ],
        "status": "active",
        "intent": "order",
        "code": {
          "coding": [
            {
              "code": "108252007",
              "system": "http://snomed.info/sct",
              "display": "Laboratory procedure"
            }
          ]
        },
        "subject": {
          "reference": "urn:uuid:89c3368d-09d7-4746-8820-aa0225dde6d8"
        },
        "requester": {
          "reference": "urn:uuid:603124d0-3351-4850-8fa3-b6a9e79c3e90"
        }
      }
    },
    {
      "fullUrl": "urn:uuid:603124d0-3351-4850-8fa3-b6a9e79c3e90",
      "resource": {
        "resourceType": "PractitionerRole",
        "id": "603124d0-3351-4850-8fa3-b6a9e79c3e90",
        "meta": {
          "profile": [
            "http://hl7.eu/fhir/laboratory/StructureDefinition/PractitionerRole-eu-lab"
          ]
        },
        "organization": {
          "reference": "urn:uuid:0ddab482-e385-482d-84a4-6ca7f6778fde"
        }
      }
    },
    {
      "fullUrl": "urn:uuid:0ddab482-e385-482d-84a4-6ca7f6778fde",
      "resource": {
        "resourceType": "Organization",
        "id": "0ddab482-e385-482d-84a4-6ca7f6778fde",
        "meta": {
          "profile": [
            "http://hl7.org/fhir/uv/ips/StructureDefinition/Organization-uv-ips"
          ]
        },
        "identifier": [
          {
            "assigner": {
              "display": "HL7 Europe"
            },
            "system": "urn:oid:2.16.840.1.113883.2.51.999",
            "value": "1971f7a9-c1d4-4420-928b-338a5e0bcdbe"
          }
        ],
        "address": [
          {
            "city": "Saint-Louis",
            "postalCode": "68300",
            "country": "fr"
          }
        ],
        "name": "Polyclinique des 3 Frontières"
      }
    },
    {
      "fullUrl": "urn:uuid:cbe7e2c5-f2d0-44c1-924a-24a62f9bc580",
      "resource": {
        "resourceType": "PractitionerRole",
        "id": "cbe7e2c5-f2d0-44c1-924a-24a62f9bc580",
        "meta": {
          "profile": [
            "http://hl7.eu/fhir/laboratory/StructureDefinition/PractitionerRole-eu-lab"
          ]
        },
        "practitioner": {
          "reference": "urn:uuid:07559109-c7ce-4f79-896e-fa85363e2658"
        }
      }
    },
    {
      "fullUrl": "urn:uuid:07559109-c7ce-4f79-896e-fa85363e2658",
      "resource": {
        "resourceType": "Practitioner",
        "id": "07559109-c7ce-4f79-896e-fa85363e2658",
        "meta": {
          "profile": [
            "http://hl7.eu/fhir/laboratory/StructureDefinition/Practitioner-eu-lab"
          ]
        },
        "identifier": [
          {
            "assigner": {
              "display": "HL7 Europe"
            },
            "system": "urn:oid:2.16.840.1.113883.2.51.999",
            "value": "ec3ca5bd-547b-4d92-bb75-1f436a6185e5"
          }
        ],
        "name": [
          {
            "prefix": [
              "dr"
            ],
            "given": [
              "Ex"
            ],
            "family": "Ample"
          }
        ],
        "address": [
          {
            "line": [
              "Boulevard du Jardin Botanique 32"
            ],
            "city": "Brussels",
            "postalCode": "1000"
          }
        ]
      }
    },
    {
      "fullUrl": "urn:uuid:1ffeabe9-2900-4690-a728-f55769dee1da",
      "resource": {
        "resourceType": "Specimen",
        "id": "1ffeabe9-2900-4690-a728-f55769dee1da",
        "meta": {
          "profile": [
            "http://hl7.eu/fhir/laboratory/StructureDefinition/Specimen-eu-lab"
          ]
        },
        "collection": {
          "collectedDateTime": "2024-11-18"
        },
        "status": "available",
        "type": {
          "coding": [
            {
              "code": "122552005",
              "system": "http://snomed.info/sct",
              "display": "Arterial blood specimen (specimen)"
            }
          ]
        }
      }
    },
    {
      "fullUrl": "urn:uuid:58eeb1d7-0adf-4e22-8b8f-300cd0f13004",
      "resource": {
        "resourceType": "Specimen",
        "id": "58eeb1d7-0adf-4e22-8b8f-300cd0f13004",
        "meta": {
          "profile": [
            "http://hl7.eu/fhir/laboratory/StructureDefinition/Specimen-eu-lab"
          ]
        },
        "collection": {
          "collectedDateTime": "2024-11-18"
        },
        "status": "available",
        "type": {
          "coding": [
            {
              "code": "258603007",
              "system": "http://snomed.info/sct",
              "display": "Respiratory specimen (specimen)"
            }
          ]
        }
      }
    },
    {
      "fullUrl": "urn:uuid:0fb0b6f2-59f9-49b9-97df-3ca475fece60",
      "resource": {
        "resourceType": "Observation",
        "id": "0fb0b6f2-59f9-49b9-97df-3ca475fece60",
        "meta": {
          "profile": [
            "http://hl7.eu/fhir/laboratory/StructureDefinition/Observation-resultslab-eu-lab"
          ]
        },
        "performer": [
          {
            "display": "The Central European Lab"
          }
        ],
        "category": [
          {
            "coding": [
              {
                "code": "laboratory",
                "system": "http://terminology.hl7.org/CodeSystem/observation-category"
              }
            ]
          }
        ],
        "code": {
          "coding": [
            {
              "code": "2708-6",
              "system": "http://loinc.org",
              "display": "Oxygen saturation in Arterial blood"
            }
          ],
          "text": "Oxygen saturation in Arterial blood"
        },
        "valueQuantity": {
          "system": "http://unitsofmeasure.org",
          "value": 78.2,
          "unit": "%",
          "code": "%"
        },
        "referenceRange": [
          {
            "low": {
              "value": 95,
              "code": "%",
              "system": "http://unitsofmeasure.org"
            }
          },
          {
            "high": {
              "value": 100,
              "code": "%",
              "system": "http://unitsofmeasure.org"
            }
          }
        ],
        "interpretation": [
          {
            "coding": [
              {
                "code": "L",
                "system": "http://terminology.hl7.org/CodeSystem/v3-ObservationInterpretation",
                "display": "Low"
              }
            ]
          }
        ],
        "status": "final",
        "subject": {
          "reference": "urn:uuid:89c3368d-09d7-4746-8820-aa0225dde6d8"
        },
        "effectiveDateTime": "2024-11-18",
        "specimen": {
          "reference": "urn:uuid:1ffeabe9-2900-4690-a728-f55769dee1da"
        }
      }
    },
    {
      "fullUrl": "urn:uuid:980a8c97-53d2-4eb8-a80f-5239c5c3a42b",
      "resource": {
        "resourceType": "Observation",
        "id": "980a8c97-53d2-4eb8-a80f-5239c5c3a42b",
        "meta": {
          "profile": [
            "http://hl7.eu/fhir/laboratory/StructureDefinition/Observation-resultslab-eu-lab"
          ]
        },
        "performer": [
          {
            "display": "The Central European Lab"
          }
        ],
        "category": [
          {
            "coding": [
              {
                "code": "laboratory",
                "system": "http://terminology.hl7.org/CodeSystem/observation-category"
              }
            ]
          }
        ],
        "code": {
          "coding": [
            {
              "code": "92142-9",
              "system": "http://loinc.org",
              "display": "Influenza virus A RNA [Presence] in Respiratory system specimen by NAA with probe detection"
            }
          ],
          "text": "Influenza virus A RNA [Presence] in Respiratory system specimen by NAA with probe detection"
        },
        "status": "final",
        "subject": {
          "reference": "urn:uuid:89c3368d-09d7-4746-8820-aa0225dde6d8"
        },
        "effectiveDateTime": "2024-11-18",
        "valueCodeableConcept": {
          "coding": [
            {
              "code": "260385009",
              "system": "http://snomed.info/sct",
              "display": "Negative"
            }
          ]
        },
        "specimen": {
          "reference": "urn:uuid:58eeb1d7-0adf-4e22-8b8f-300cd0f13004"
        }
      }
    },
    {
      "fullUrl": "urn:uuid:537c8e60-5220-47c8-b65f-58d16f93eac5",
      "resource": {
        "resourceType": "Observation",
        "id": "537c8e60-5220-47c8-b65f-58d16f93eac5",
        "meta": {
          "profile": [
            "http://hl7.eu/fhir/laboratory/StructureDefinition/Observation-resultslab-eu-lab"
          ]
        },
        "performer": [
          {
            "display": "The Central European Lab"
          }
        ],
        "category": [
          {
            "coding": [
              {
                "code": "laboratory",
                "system": "http://terminology.hl7.org/CodeSystem/observation-category"
              }
            ]
          }
        ],
        "code": {
          "coding": [
            {
              "code": "92141-1",
              "system": "http://loinc.org",
              "display": "Influenza virus B RNA [Presence] in Respiratory system specimen by NAA with probe detection"
            }
          ],
          "text": "Influenza virus B RNA [Presence] in Respiratory system specimen by NAA with probe detection"
        },
        "status": "final",
        "subject": {
          "reference": "urn:uuid:89c3368d-09d7-4746-8820-aa0225dde6d8"
        },
        "effectiveDateTime": "2024-11-18",
        "valueCodeableConcept": {
          "coding": [
            {
              "code": "260385009",
              "system": "http://snomed.info/sct",
              "display": "Negative"
            }
          ]
        },
        "specimen": {
          "reference": "urn:uuid:58eeb1d7-0adf-4e22-8b8f-300cd0f13004"
        }
      }
    },
    {
      "fullUrl": "urn:uuid:a335042a-134e-460e-9583-a42e9e5e8079",
      "resource": {
        "resourceType": "Observation",
        "id": "a335042a-134e-460e-9583-a42e9e5e8079",
        "meta": {
          "profile": [
            "http://hl7.eu/fhir/laboratory/StructureDefinition/Observation-resultslab-eu-lab"
          ]
        },
        "performer": [
          {
            "display": "The Central European Lab"
          }
        ],
        "category": [
          {
            "coding": [
              {
                "code": "laboratory",
                "system": "http://terminology.hl7.org/CodeSystem/observation-category"
              }
            ]
          }
        ],
        "code": {
          "coding": [
            {
              "code": "92131-2",
              "system": "http://loinc.org",
              "display": "Respiratory syncytial virus RNA [Presence] in Respiratory system specimen by NAA with probe detection"
            }
          ],
          "text": "Respiratory syncytial virus RNA [Presence] in Respiratory system specimen by NAA with probe detection"
        },
        "status": "final",
        "subject": {
          "reference": "urn:uuid:89c3368d-09d7-4746-8820-aa0225dde6d8"
        },
        "effectiveDateTime": "2024-11-18",
        "valueCodeableConcept": {
          "coding": [
            {
              "code": "260385009",
              "system": "http://snomed.info/sct",
              "display": "Negative"
            }
          ]
        },
        "specimen": {
          "reference": "urn:uuid:58eeb1d7-0adf-4e22-8b8f-300cd0f13004"
        }
      }
    },
    {
      "fullUrl": "urn:uuid:3073f9b0-9e3c-4a47-ad7b-1ea1920a9007",
      "resource": {
        "resourceType": "Observation",
        "id": "3073f9b0-9e3c-4a47-ad7b-1ea1920a9007",
        "meta": {
          "profile": [
            "http://hl7.eu/fhir/laboratory/StructureDefinition/Observation-resultslab-eu-lab"
          ]
        },
        "performer": [
          {
            "display": "The Central European Lab"
          }
        ],
        "category": [
          {
            "coding": [
              {
                "code": "laboratory",
                "system": "http://terminology.hl7.org/CodeSystem/observation-category"
              }
            ]
          }
        ],
        "code": {
          "coding": [
            {
              "code": "92140-3",
              "system": "http://loinc.org",
              "display": "Parainfluenza virus 1 RNA [Presence] in Respiratory system specimen by NAA with probe detection"
            }
          ],
          "text": "Parainfluenza virus 1 RNA [Presence] in Respiratory system specimen by NAA with probe detection"
        },
        "status": "final",
        "subject": {
          "reference": "urn:uuid:89c3368d-09d7-4746-8820-aa0225dde6d8"
        },
        "effectiveDateTime": "2024-11-18",
        "valueCodeableConcept": {
          "coding": [
            {
              "code": "260385009",
              "system": "http://snomed.info/sct",
              "display": "Negative"
            }
          ]
        },
        "specimen": {
          "reference": "urn:uuid:58eeb1d7-0adf-4e22-8b8f-300cd0f13004"
        }
      }
    },
    {
      "fullUrl": "urn:uuid:c4873658-ced2-4fa0-8cf5-c5aecc286695",
      "resource": {
        "resourceType": "Observation",
        "id": "c4873658-ced2-4fa0-8cf5-c5aecc286695",
        "meta": {
          "profile": [
            "http://hl7.eu/fhir/laboratory/StructureDefinition/Observation-resultslab-eu-lab"
          ]
        },
        "performer": [
          {
            "display": "The Central European Lab"
          }
        ],
        "category": [
          {
            "coding": [
              {
                "code": "laboratory",
                "system": "http://terminology.hl7.org/CodeSystem/observation-category"
              }
            ]
          }
        ],
        "code": {
          "coding": [
            {
              "code": "92139-5",
              "system": "http://loinc.org",
              "display": "Parainfluenza virus 2 RNA [Presence] in Respiratory system specimen by NAA with probe detection"
            }
          ],
          "text": "Parainfluenza virus 2 RNA [Presence] in Respiratory system specimen by NAA with probe detection"
        },
        "status": "final",
        "subject": {
          "reference": "urn:uuid:89c3368d-09d7-4746-8820-aa0225dde6d8"
        },
        "effectiveDateTime": "2024-11-18",
        "valueCodeableConcept": {
          "coding": [
            {
              "code": "260385009",
              "system": "http://snomed.info/sct",
              "display": "Negative"
            }
          ]
        },
        "specimen": {
          "reference": "urn:uuid:58eeb1d7-0adf-4e22-8b8f-300cd0f13004"
        }
      }
    },
    {
      "fullUrl": "urn:uuid:3f8d8238-2bf4-46cb-8e42-3a9cf02f89c8",
      "resource": {
        "resourceType": "Observation",
        "id": "3f8d8238-2bf4-46cb-8e42-3a9cf02f89c8",
        "meta": {
          "profile": [
            "http://hl7.eu/fhir/laboratory/StructureDefinition/Observation-resultslab-eu-lab"
          ]
        },
        "performer": [
          {
            "display": "The Central European Lab"
          }
        ],
        "category": [
          {
            "coding": [
              {
                "code": "laboratory",
                "system": "http://terminology.hl7.org/CodeSystem/observation-category"
              }
            ]
          }
        ],
        "code": {
          "coding": [
            {
              "code": "92138-7",
              "system": "http://loinc.org",
              "display": "Parainfluenza virus 3 RNA [Presence] in Respiratory system specimen by NAA with probe detection"
            }
          ],
          "text": "Parainfluenza virus 3 RNA [Presence] in Respiratory system specimen by NAA with probe detection"
        },
        "status": "final",
        "subject": {
          "reference": "urn:uuid:89c3368d-09d7-4746-8820-aa0225dde6d8"
        },
        "effectiveDateTime": "2024-11-18",
        "valueCodeableConcept": {
          "coding": [
            {
              "code": "260385009",
              "system": "http://snomed.info/sct",
              "display": "Negative"
            }
          ]
        },
        "specimen": {
          "reference": "urn:uuid:58eeb1d7-0adf-4e22-8b8f-300cd0f13004"
        }
      }
    },
    {
      "fullUrl": "urn:uuid:6b41d671-7968-48ae-bfec-3c95e9e45595",
      "resource": {
        "resourceType": "Observation",
        "id": "6b41d671-7968-48ae-bfec-3c95e9e45595",
        "meta": {
          "profile": [
            "http://hl7.eu/fhir/laboratory/StructureDefinition/Observation-resultslab-eu-lab"
          ]
        },
        "performer": [
          {
            "display": "The Central European Lab"
          }
        ],
        "category": [
          {
            "coding": [
              {
                "code": "laboratory",
                "system": "http://terminology.hl7.org/CodeSystem/observation-category"
              }
            ]
          }
        ],
        "code": {
          "coding": [
            {
              "code": "92130-4",
              "system": "http://loinc.org",
              "display": "Rhinovirus RNA [Presence] in Respiratory system specimen by NAA with probe detection"
            }
          ],
          "text": "Rhinovirus RNA [Presence] in Respiratory system specimen by NAA with probe detection"
        },
        "status": "final",
        "subject": {
          "reference": "urn:uuid:89c3368d-09d7-4746-8820-aa0225dde6d8"
        },
        "effectiveDateTime": "2024-11-18",
        "valueCodeableConcept": {
          "coding": [
            {
              "code": "260385009",
              "system": "http://snomed.info/sct",
              "display": "Negative"
            }
          ]
        },
        "specimen": {
          "reference": "urn:uuid:58eeb1d7-0adf-4e22-8b8f-300cd0f13004"
        }
      }
    },
    {
      "fullUrl": "urn:uuid:56aa7ada-d637-4095-b9a3-7396708baef5",
      "resource": {
        "resourceType": "Observation",
        "id": "56aa7ada-d637-4095-b9a3-7396708baef5",
        "meta": {
          "profile": [
            "http://hl7.eu/fhir/laboratory/StructureDefinition/Observation-resultslab-eu-lab"
          ]
        },
        "performer": [
          {
            "display": "The Central European Lab"
          }
        ],
        "category": [
          {
            "coding": [
              {
                "code": "laboratory",
                "system": "http://terminology.hl7.org/CodeSystem/observation-category"
              }
            ]
          }
        ],
        "code": {
          "coding": [
            {
              "code": "92134-6",
              "system": "http://loinc.org",
              "display": "Human metapneumovirus RNA [Presence] in Respiratory system specimen by NAA with probe detection"
            }
          ],
          "text": "Human metapneumovirus RNA [Presence] in Respiratory system specimen by NAA with probe detection"
        },
        "status": "final",
        "subject": {
          "reference": "urn:uuid:89c3368d-09d7-4746-8820-aa0225dde6d8"
        },
        "effectiveDateTime": "2024-11-18",
        "valueCodeableConcept": {
          "coding": [
            {
              "code": "260385009",
              "system": "http://snomed.info/sct",
              "display": "Negative"
            }
          ]
        },
        "specimen": {
          "reference": "urn:uuid:58eeb1d7-0adf-4e22-8b8f-300cd0f13004"
        }
      }
    },
    {
      "fullUrl": "urn:uuid:fbaea2b4-457f-4d2d-8204-72a44047b31a",
      "resource": {
        "resourceType": "Observation",
        "id": "fbaea2b4-457f-4d2d-8204-72a44047b31a",
        "meta": {
          "profile": [
            "http://hl7.eu/fhir/laboratory/StructureDefinition/Observation-resultslab-eu-lab"
          ]
        },
        "performer": [
          {
            "display": "The Central European Lab"
          }
        ],
        "category": [
          {
            "coding": [
              {
                "code": "laboratory",
                "system": "http://terminology.hl7.org/CodeSystem/observation-category"
              }
            ]
          }
        ],
        "code": {
          "coding": [
            {
              "code": "94040-3",
              "system": "http://loinc.org",
              "display": "Adenovirus A+B+C+D+E DNA [Presence] in Respiratory system specimen by NAA with probe detection"
            }
          ],
          "text": "Adenovirus A+B+C+D+E DNA [Presence] in Respiratory system specimen by NAA with probe detection"
        },
        "status": "final",
        "subject": {
          "reference": "urn:uuid:89c3368d-09d7-4746-8820-aa0225dde6d8"
        },
        "effectiveDateTime": "2024-11-18",
        "valueCodeableConcept": {
          "coding": [
            {
              "code": "260385009",
              "system": "http://snomed.info/sct",
              "display": "Negative"
            }
          ]
        },
        "specimen": {
          "reference": "urn:uuid:58eeb1d7-0adf-4e22-8b8f-300cd0f13004"
        }
      }
    },
    {
      "fullUrl": "urn:uuid:5bacef47-7c22-4f83-b464-b96fd074cd41",
      "resource": {
        "resourceType": "Observation",
        "id": "5bacef47-7c22-4f83-b464-b96fd074cd41",
        "meta": {
          "profile": [
            "http://hl7.eu/fhir/laboratory/StructureDefinition/Observation-resultslab-eu-lab"
          ]
        },
        "performer": [
          {
            "display": "The Central European Lab"
          }
        ],
        "category": [
          {
            "coding": [
              {
                "code": "laboratory",
                "system": "http://terminology.hl7.org/CodeSystem/observation-category"
              }
            ]
          }
        ],
        "code": {
          "coding": [
            {
              "code": "94531-1",
              "system": "http://loinc.org",
              "display": "SARS-CoV-2 (COVID-19) RNA panel - Respiratory system specimen by NAA with probe detection"
            }
          ],
          "text": "SARS-CoV-2 (COVID-19) RNA panel - Respiratory system specimen by NAA with probe detection"
        },
        "status": "final",
        "subject": {
          "reference": "urn:uuid:89c3368d-09d7-4746-8820-aa0225dde6d8"
        },
        "effectiveDateTime": "2024-11-18",
        "valueCodeableConcept": {
          "coding": [
            {
              "code": "260373001",
              "system": "http://snomed.info/sct",
              "display": "Detected"
            }
          ]
        },
        "specimen": {
          "reference": "urn:uuid:58eeb1d7-0adf-4e22-8b8f-300cd0f13004"
        }
      }
    }
  ],
  "type": "document",
  "timestamp": "2024-11-19T18:41:19Z"
}
