{
  "resourceType": "Bundle",
  "id": "Instance-Bundle-ee420180-e7cc-40bf-aa6f-fae58d007a69",
  "meta": {
    "profile": [
      "http://hl7.eu/fhir/laboratory/StructureDefinition/Bundle-eu-lab"
    ]
  },
  "identifier": {
    "assigner": {
      "display": "HL7 Europe"
    },
    "system": "urn:oid:2.16.840.1.113883.2.51.999",
    "value": "68104b06-e203-4d61-b6d8-4fe2d537efd7"
  },
  "entry": [
    {
      "fullUrl": "urn:uuid:787cd7c3-7fa8-4e0a-a37b-d21634551d95",
      "resource": {
        "resourceType": "Composition",
        "id": "787cd7c3-7fa8-4e0a-a37b-d21634551d95",
        "meta": {
          "profile": [
            "http://hl7.eu/fhir/laboratory/StructureDefinition/Composition-eu-lab"
          ]
        },
        "identifier": {
          "assigner": {
            "display": "HL7 Europe"
          },
          "system": "urn:oid:2.16.840.1.113883.2.51.999",
          "value": "b743541c-f3cc-4eb6-a671-1b3fb4905ede"
        },
        "author": [
          {
            "reference": "urn:uuid:75b47f86-1497-4e2f-a82c-c353e9da7c9d"
          }
        ],
        "category": [
          {
            "coding": [
              {
                "code": "26436-6",
                "system": "http://loinc.org",
                "display": "Laboratory studies (set)"
              }
            ]
          }
        ],
        "type": {
          "text": "Laboratory Report"
        },
        "section": [
          {
            "code": {
              "coding": [
                {
                  "code": "26436-6",
                  "system": "http://loinc.org",
                  "display": "Laboratory studies (set)"
                }
              ],
              "text": "Laboratory studies"
            },
            "section": [
              {
                "code": {
                  "coding": [
                    {
                      "code": "18719-5",
                      "system": "http://loinc.org",
                      "display": "Chemistry studies (set)"
                    }
                  ],
                  "text": "Chemistry"
                },
                "entry": [
                  {
                    "reference": "urn:uuid:9bbbd9d3-b017-490d-85eb-360c0bd53c90"
                  }
                ],
                "text": {
                  "status": "generated",
                  "div": "<div xmlns=\"http://www.w3.org/1999/xhtml\"><h3 id=\"section-1\">Chemistry</h3><table class=\"hl7__eu__lab__report\"><thead><tr><th>Test</th><th>18 Nov 2024</th><th>Reference Range</th><th>Unit</th></tr></thead><tbody><tr><td>Oxygen saturation in Arterial blood</td><td><strong>87.6 L</strong></td><td>95 - 100</td><td>%</td></tr></tbody></table></div>"
                },
                "title": "Chemistry"
              },
              {
                "code": {
                  "coding": [
                    {
                      "code": "18725-2",
                      "system": "http://loinc.org",
                      "display": "Microbiology studies"
                    }
                  ],
                  "text": "Microbiology"
                },
                "entry": [
                  {
                    "reference": "urn:uuid:616a9cc2-4f38-4fb0-8777-8eb74b8d956c"
                  },
                  {
                    "reference": "urn:uuid:3b31023c-d612-4823-bfd8-3d4aae7229ab"
                  }
                ],
                "text": {
                  "status": "generated",
                  "div": "<div xmlns=\"http://www.w3.org/1999/xhtml\"><h3 id=\"section-2\">Microbiology</h3><table class=\"hl7__eu__lab__report\"><thead><tr><th>Test</th><th>18 Nov 2024</th><th>Reference Range</th><th>Unit</th></tr></thead><tbody><tr><td>Influenza virus A Ag [Presence] in Upper respiratory specimen by Rapid immunoassay</td><td>Not detected</td><td></td><td></td></tr><tr><td>Influenza virus B Ag [Presence] in Upper respiratory specimen by Rapid immunoassay</td><td>Not detected</td><td></td><td></td></tr></tbody></table></div>"
                },
                "title": "Microbiology"
              },
              {
                "code": {
                  "coding": [
                    {
                      "code": "18725-2",
                      "system": "http://loinc.org",
                      "display": "Microbiology studies"
                    }
                  ],
                  "text": "Microbiology Panel"
                },
                "entry": [
                  {
                    "reference": "urn:uuid:7587e4fd-97eb-4705-aeb5-bf435d77366e"
                  }
                ],
                "text": {
                  "status": "generated",
                  "div": "<div xmlns=\"http://www.w3.org/1999/xhtml\"><h3 id=\"section-3\">Microbiology Panel</h3><table class=\"hl7__eu__lab__report\"><thead><tr><th>Test</th><th>18 Nov 2024</th><th>Reference Range</th><th>Unit</th></tr></thead><tbody><tr><td>SARS-CoV-2 (COVID-19) RNA panel - Respiratory system specimen by NAA with probe detection</td><td>Detected</td><td></td><td></td></tr></tbody></table></div>"
                },
                "title": "Microbiology Panel"
              }
            ],
            "title": "Laboratory Report"
          }
        ],
        "status": "final",
        "subject": {
          "reference": "urn:uuid:ef5fd9d6-831f-49de-80f3-54985e0eba1b"
        },
        "date": "2024-11-19T18:39:40Z",
        "title": "Laboratory Report",
        "confidentiality": "N"
      }
    },
    {
      "fullUrl": "urn:uuid:fdf7467e-faf9-4a36-9d06-739fe7f0d838",
      "resource": {
        "resourceType": "DiagnosticReport",
        "id": "fdf7467e-faf9-4a36-9d06-739fe7f0d838",
        "meta": {
          "profile": [
            "http://hl7.eu/fhir/laboratory/StructureDefinition/DiagnosticReport-eu-lab"
          ]
        },
        "identifier": [
          {
            "assigner": {
              "display": "HL7 Europe"
            },
            "system": "urn:oid:2.16.840.1.113883.2.51.999",
            "value": "f6f9496b-f65f-48cc-a749-7d4c2d7bf7aa"
          }
        ],
        "extension": [
          {
            "url": "http://hl7.org/fhir/5.0/StructureDefinition/extension-DiagnosticReport.composition",
            "valueReference": {
              "reference": "urn:uuid:787cd7c3-7fa8-4e0a-a37b-d21634551d95"
            }
          }
        ],
        "category": [
          {
            "coding": [
              {
                "code": "18719-5",
                "system": "http://loinc.org",
                "display": "Chemistry studies (set)"
              }
            ]
          }
        ],
        "specimen": [
          {
            "reference": "urn:uuid:cfed0a71-ad86-40bf-a7e6-3167b09ce3e9"
          },
          {
            "reference": "urn:uuid:d0b3ee93-49de-436d-aa01-45fe86756d7d"
          },
          {
            "reference": "urn:uuid:3ea2fb65-410f-4b40-ba16-6f3424301770"
          }
        ],
        "result": [
          {
            "reference": "urn:uuid:9bbbd9d3-b017-490d-85eb-360c0bd53c90"
          },
          {
            "reference": "urn:uuid:616a9cc2-4f38-4fb0-8777-8eb74b8d956c"
          },
          {
            "reference": "urn:uuid:3b31023c-d612-4823-bfd8-3d4aae7229ab"
          },
          {
            "reference": "urn:uuid:7587e4fd-97eb-4705-aeb5-bf435d77366e"
          }
        ],
        "status": "registered",
        "code": {
          "coding": [
            {
              "code": "11502-2",
              "system": "http://loinc.org",
              "display": "Laboratory report"
            }
          ]
        },
        "subject": {
          "reference": "urn:uuid:ef5fd9d6-831f-49de-80f3-54985e0eba1b"
        }
      }
    },
    {
      "fullUrl": "urn:uuid:ef5fd9d6-831f-49de-80f3-54985e0eba1b",
      "resource": {
        "resourceType": "Patient",
        "id": "ef5fd9d6-831f-49de-80f3-54985e0eba1b",
        "meta": {
          "profile": [
            "http://hl7.eu/fhir/laboratory/StructureDefinition/Patient-eu-lab"
          ]
        },
        "identifier": [
          {
            "type": {
              "coding": [
                {
                  "code": "NI",
                  "system": "http://terminology.hl7.org/CodeSystem/v2-0203"
                }
              ]
            },
            "system": "http://ec.europa.eu/identifier/eci",
            "value": "5605-573984-3"
          },
          {
            "type": {
              "coding": [
                {
                  "code": "MR",
                  "system": "http://terminology.hl7.org/CodeSystem/v2-0203"
                }
              ]
            },
            "system": "http://local.setting.eu/identifier",
            "value": "ac13c30b-68cb-401a-a02c-34bac2bdc95b"
          }
        ],
        "name": [
          {
            "given": [
              "Vicente"
            ],
            "family": "Ferreira",
            "text": "Vicente Ferreira"
          }
        ],
        "address": [
          {
            "line": [
              "Avenida Nova 49"
            ],
            "use": "home",
            "type": "physical",
            "city": "Ataúde",
            "postalCode": "4970-235",
            "country": "Portugal"
          }
        ],
        "telecom": [
          {
            "system": "phone",
            "value": "+351 21 258 575 2447"
          }
        ],
        "gender": "male",
        "birthDate": "1941-12-26"
      }
    },
    {
      "fullUrl": "urn:uuid:bbb1c7f1-7e8f-4282-877c-53c9afd85614",
      "resource": {
        "resourceType": "ServiceRequest",
        "id": "bbb1c7f1-7e8f-4282-877c-53c9afd85614",
        "meta": {
          "profile": [
            "http://hl7.eu/fhir/laboratory/StructureDefinition/ServiceRequest-eu-lab"
          ]
        },
        "identifier": [
          {
            "system": "http://example.org",
            "value": "2c3405a5-c64b-4ca3-8c6c-59ba4a018e77"
          }
        ],
        "specimen": [
          {
            "reference": "urn:uuid:cfed0a71-ad86-40bf-a7e6-3167b09ce3e9"
          },
          {
            "reference": "urn:uuid:d0b3ee93-49de-436d-aa01-45fe86756d7d"
          },
          {
            "reference": "urn:uuid:3ea2fb65-410f-4b40-ba16-6f3424301770"
          }
        ],
        "status": "active",
        "intent": "order",
        "code": {
          "coding": [
            {
              "code": "108252007",
              "system": "http://snomed.info/sct",
              "display": "Laboratory procedure"
            }
          ]
        },
        "subject": {
          "reference": "urn:uuid:ef5fd9d6-831f-49de-80f3-54985e0eba1b"
        },
        "requester": {
          "reference": "urn:uuid:0de52b60-de2b-46b4-9909-efde39b4ccf2"
        }
      }
    },
    {
      "fullUrl": "urn:uuid:0de52b60-de2b-46b4-9909-efde39b4ccf2",
      "resource": {
        "resourceType": "PractitionerRole",
        "id": "0de52b60-de2b-46b4-9909-efde39b4ccf2",
        "meta": {
          "profile": [
            "http://hl7.eu/fhir/laboratory/StructureDefinition/PractitionerRole-eu-lab"
          ]
        },
        "organization": {
          "reference": "urn:uuid:afbff324-3c9d-4c2f-bfcc-8171e532d595"
        }
      }
    },
    {
      "fullUrl": "urn:uuid:afbff324-3c9d-4c2f-bfcc-8171e532d595",
      "resource": {
        "resourceType": "Organization",
        "id": "afbff324-3c9d-4c2f-bfcc-8171e532d595",
        "meta": {
          "profile": [
            "http://hl7.org/fhir/uv/ips/StructureDefinition/Organization-uv-ips"
          ]
        },
        "identifier": [
          {
            "assigner": {
              "display": "HL7 Europe"
            },
            "system": "urn:oid:2.16.840.1.113883.2.51.999",
            "value": "1e3168ba-a6f2-4332-a30e-96edfb8f8de8"
          }
        ],
        "address": [
          {
            "city": "Arcos de Valdevez",
            "postalCode": "4970-593",
            "country": "pt"
          }
        ],
        "name": "Santa Casa da Misericórdia de Arcos de Valdevez"
      }
    },
    {
      "fullUrl": "urn:uuid:75b47f86-1497-4e2f-a82c-c353e9da7c9d",
      "resource": {
        "resourceType": "PractitionerRole",
        "id": "75b47f86-1497-4e2f-a82c-c353e9da7c9d",
        "meta": {
          "profile": [
            "http://hl7.eu/fhir/laboratory/StructureDefinition/PractitionerRole-eu-lab"
          ]
        },
        "practitioner": {
          "reference": "urn:uuid:4cfd8c8a-ed7a-4204-8e1e-d50c2d4be30f"
        }
      }
    },
    {
      "fullUrl": "urn:uuid:4cfd8c8a-ed7a-4204-8e1e-d50c2d4be30f",
      "resource": {
        "resourceType": "Practitioner",
        "id": "4cfd8c8a-ed7a-4204-8e1e-d50c2d4be30f",
        "meta": {
          "profile": [
            "http://hl7.eu/fhir/laboratory/StructureDefinition/Practitioner-eu-lab"
          ]
        },
        "identifier": [
          {
            "assigner": {
              "display": "HL7 Europe"
            },
            "system": "urn:oid:2.16.840.1.113883.2.51.999",
            "value": "af20b3a4-e36e-4aa0-aed2-9966d2400ebe"
          }
        ],
        "name": [
          {
            "prefix": [
              "dr"
            ],
            "given": [
              "Ex"
            ],
            "family": "Ample"
          }
        ],
        "address": [
          {
            "line": [
              "Boulevard du Jardin Botanique 32"
            ],
            "city": "Brussels",
            "postalCode": "1000"
          }
        ]
      }
    },
    {
      "fullUrl": "urn:uuid:cfed0a71-ad86-40bf-a7e6-3167b09ce3e9",
      "resource": {
        "resourceType": "Specimen",
        "id": "cfed0a71-ad86-40bf-a7e6-3167b09ce3e9",
        "meta": {
          "profile": [
            "http://hl7.eu/fhir/laboratory/StructureDefinition/Specimen-eu-lab"
          ]
        },
        "collection": {
          "collectedDateTime": "2024-11-18"
        },
        "status": "available",
        "type": {
          "coding": [
            {
              "code": "122552005",
              "system": "http://snomed.info/sct",
              "display": "Arterial blood specimen (specimen)"
            }
          ]
        }
      }
    },
    {
      "fullUrl": "urn:uuid:d0b3ee93-49de-436d-aa01-45fe86756d7d",
      "resource": {
        "resourceType": "Specimen",
        "id": "d0b3ee93-49de-436d-aa01-45fe86756d7d",
        "meta": {
          "profile": [
            "http://hl7.eu/fhir/laboratory/StructureDefinition/Specimen-eu-lab"
          ]
        },
        "collection": {
          "collectedDateTime": "2024-11-18"
        },
        "status": "available",
        "type": {
          "coding": [
            {
              "code": "258604001",
              "system": "http://snomed.info/sct",
              "display": "Upper respiratory specimen (specimen)"
            }
          ]
        }
      }
    },
    {
      "fullUrl": "urn:uuid:3ea2fb65-410f-4b40-ba16-6f3424301770",
      "resource": {
        "resourceType": "Specimen",
        "id": "3ea2fb65-410f-4b40-ba16-6f3424301770",
        "meta": {
          "profile": [
            "http://hl7.eu/fhir/laboratory/StructureDefinition/Specimen-eu-lab"
          ]
        },
        "collection": {
          "collectedDateTime": "2024-11-18"
        },
        "status": "available",
        "type": {
          "coding": [
            {
              "code": "258603007",
              "system": "http://snomed.info/sct",
              "display": "Respiratory specimen (specimen)"
            }
          ]
        }
      }
    },
    {
      "fullUrl": "urn:uuid:9bbbd9d3-b017-490d-85eb-360c0bd53c90",
      "resource": {
        "resourceType": "Observation",
        "id": "9bbbd9d3-b017-490d-85eb-360c0bd53c90",
        "meta": {
          "profile": [
            "http://hl7.eu/fhir/laboratory/StructureDefinition/Observation-resultslab-eu-lab"
          ]
        },
        "performer": [
          {
            "display": "The Central European Lab"
          }
        ],
        "category": [
          {
            "coding": [
              {
                "code": "laboratory",
                "system": "http://terminology.hl7.org/CodeSystem/observation-category"
              }
            ]
          }
        ],
        "code": {
          "coding": [
            {
              "code": "2708-6",
              "system": "http://loinc.org",
              "display": "Oxygen saturation in Arterial blood"
            }
          ],
          "text": "Oxygen saturation in Arterial blood"
        },
        "valueQuantity": {
          "system": "http://unitsofmeasure.org",
          "value": 87.6,
          "unit": "%",
          "code": "%"
        },
        "referenceRange": [
          {
            "low": {
              "value": 95,
              "code": "%",
              "system": "http://unitsofmeasure.org"
            }
          },
          {
            "high": {
              "value": 100,
              "code": "%",
              "system": "http://unitsofmeasure.org"
            }
          }
        ],
        "interpretation": [
          {
            "coding": [
              {
                "code": "L",
                "system": "http://terminology.hl7.org/CodeSystem/v3-ObservationInterpretation",
                "display": "Low"
              }
            ]
          }
        ],
        "status": "final",
        "subject": {
          "reference": "urn:uuid:ef5fd9d6-831f-49de-80f3-54985e0eba1b"
        },
        "effectiveDateTime": "2024-11-18",
        "specimen": {
          "reference": "urn:uuid:cfed0a71-ad86-40bf-a7e6-3167b09ce3e9"
        }
      }
    },
    {
      "fullUrl": "urn:uuid:616a9cc2-4f38-4fb0-8777-8eb74b8d956c",
      "resource": {
        "resourceType": "Observation",
        "id": "616a9cc2-4f38-4fb0-8777-8eb74b8d956c",
        "meta": {
          "profile": [
            "http://hl7.eu/fhir/laboratory/StructureDefinition/Observation-resultslab-eu-lab"
          ]
        },
        "performer": [
          {
            "display": "The Central European Lab"
          }
        ],
        "category": [
          {
            "coding": [
              {
                "code": "laboratory",
                "system": "http://terminology.hl7.org/CodeSystem/observation-category"
              }
            ]
          }
        ],
        "code": {
          "coding": [
            {
              "code": "80382-5",
              "system": "http://loinc.org",
              "display": "Influenza virus A Ag [Presence] in Upper respiratory specimen by Rapid immunoassay"
            }
          ],
          "text": "Influenza virus A Ag [Presence] in Upper respiratory specimen by Rapid immunoassay"
        },
        "status": "final",
        "subject": {
          "reference": "urn:uuid:ef5fd9d6-831f-49de-80f3-54985e0eba1b"
        },
        "effectiveDateTime": "2024-11-18",
        "valueCodeableConcept": {
          "coding": [
            {
              "code": "260415000",
              "system": "http://snomed.info/sct",
              "display": "Not detected"
            }
          ]
        },
        "specimen": {
          "reference": "urn:uuid:d0b3ee93-49de-436d-aa01-45fe86756d7d"
        }
      }
    },
    {
      "fullUrl": "urn:uuid:3b31023c-d612-4823-bfd8-3d4aae7229ab",
      "resource": {
        "resourceType": "Observation",
        "id": "3b31023c-d612-4823-bfd8-3d4aae7229ab",
        "meta": {
          "profile": [
            "http://hl7.eu/fhir/laboratory/StructureDefinition/Observation-resultslab-eu-lab"
          ]
        },
        "performer": [
          {
            "display": "The Central European Lab"
          }
        ],
        "category": [
          {
            "coding": [
              {
                "code": "laboratory",
                "system": "http://terminology.hl7.org/CodeSystem/observation-category"
              }
            ]
          }
        ],
        "code": {
          "coding": [
            {
              "code": "80383-3",
              "system": "http://loinc.org",
              "display": "Influenza virus B Ag [Presence] in Upper respiratory specimen by Rapid immunoassay"
            }
          ],
          "text": "Influenza virus B Ag [Presence] in Upper respiratory specimen by Rapid immunoassay"
        },
        "status": "final",
        "subject": {
          "reference": "urn:uuid:ef5fd9d6-831f-49de-80f3-54985e0eba1b"
        },
        "effectiveDateTime": "2024-11-18",
        "valueCodeableConcept": {
          "coding": [
            {
              "code": "260415000",
              "system": "http://snomed.info/sct",
              "display": "Not detected"
            }
          ]
        },
        "specimen": {
          "reference": "urn:uuid:d0b3ee93-49de-436d-aa01-45fe86756d7d"
        }
      }
    },
    {
      "fullUrl": "urn:uuid:7587e4fd-97eb-4705-aeb5-bf435d77366e",
      "resource": {
        "resourceType": "Observation",
        "id": "7587e4fd-97eb-4705-aeb5-bf435d77366e",
        "meta": {
          "profile": [
            "http://hl7.eu/fhir/laboratory/StructureDefinition/Observation-resultslab-eu-lab"
          ]
        },
        "performer": [
          {
            "display": "The Central European Lab"
          }
        ],
        "category": [
          {
            "coding": [
              {
                "code": "laboratory",
                "system": "http://terminology.hl7.org/CodeSystem/observation-category"
              }
            ]
          }
        ],
        "code": {
          "coding": [
            {
              "code": "94531-1",
              "system": "http://loinc.org",
              "display": "SARS-CoV-2 (COVID-19) RNA panel - Respiratory system specimen by NAA with probe detection"
            }
          ],
          "text": "SARS-CoV-2 (COVID-19) RNA panel - Respiratory system specimen by NAA with probe detection"
        },
        "status": "final",
        "subject": {
          "reference": "urn:uuid:ef5fd9d6-831f-49de-80f3-54985e0eba1b"
        },
        "effectiveDateTime": "2024-11-18",
        "valueCodeableConcept": {
          "coding": [
            {
              "code": "260373001",
              "system": "http://snomed.info/sct",
              "display": "Detected"
            }
          ]
        },
        "specimen": {
          "reference": "urn:uuid:3ea2fb65-410f-4b40-ba16-6f3424301770"
        }
      }
    }
  ],
  "type": "document",
  "timestamp": "2024-11-19T18:39:40Z"
}
