{
  "resourceType": "Bundle",
  "id": "Instance-Bundle-db6299ef-e151-473b-a2a2-57f94796194c",
  "meta": {
    "profile": [
      "http://hl7.eu/fhir/laboratory/StructureDefinition/Bundle-eu-lab"
    ]
  },
  "identifier": {
    "assigner": {
      "display": "HL7 Europe"
    },
    "system": "urn:oid:2.16.840.1.113883.2.51.999",
    "value": "3d18f66e-5350-495a-9639-89a97fc7fa49"
  },
  "entry": [
    {
      "fullUrl": "urn:uuid:9b635900-fb89-4fa4-8182-c2ce3cfa4457",
      "resource": {
        "resourceType": "Composition",
        "id": "9b635900-fb89-4fa4-8182-c2ce3cfa4457",
        "meta": {
          "profile": [
            "http://hl7.eu/fhir/laboratory/StructureDefinition/Composition-eu-lab"
          ]
        },
        "identifier": {
          "assigner": {
            "display": "HL7 Europe"
          },
          "system": "urn:oid:2.16.840.1.113883.2.51.999",
          "value": "fa146000-e12c-465b-942d-d027186cc9f0"
        },
        "author": [
          {
            "reference": "urn:uuid:90b5c89f-85e9-45d5-a9e7-930f4cee1852"
          }
        ],
        "category": [
          {
            "coding": [
              {
                "code": "26436-6",
                "system": "http://loinc.org",
                "display": "Laboratory studies (set)"
              }
            ]
          }
        ],
        "type": {
          "text": "Laboratory Report"
        },
        "section": [
          {
            "code": {
              "coding": [
                {
                  "code": "26436-6",
                  "system": "http://loinc.org",
                  "display": "Laboratory studies (set)"
                }
              ],
              "text": "Laboratory studies"
            },
            "section": [
              {
                "code": {
                  "coding": [
                    {
                      "code": "18719-5",
                      "system": "http://loinc.org",
                      "display": "Chemistry studies (set)"
                    }
                  ],
                  "text": "Chemistry"
                },
                "entry": [
                  {
                    "reference": "urn:uuid:3d7f076e-8062-468b-8298-086a03b2e568"
                  }
                ],
                "text": {
                  "status": "generated",
                  "div": "<div xmlns=\"http://www.w3.org/1999/xhtml\"><h3 id=\"section-1\">Chemistry</h3><table class=\"hl7__eu__lab__report\"><thead><tr><th>Test</th><th>18 Nov 2024</th><th>Reference Range</th><th>Unit</th></tr></thead><tbody><tr><td>Oxygen saturation in Arterial blood</td><td><strong>83.5 L</strong></td><td>95 - 100</td><td>%</td></tr></tbody></table></div>"
                },
                "title": "Chemistry"
              },
              {
                "code": {
                  "coding": [
                    {
                      "code": "18725-2",
                      "system": "http://loinc.org",
                      "display": "Microbiology studies"
                    }
                  ],
                  "text": "Microbiology"
                },
                "entry": [
                  {
                    "reference": "urn:uuid:b337ee69-5bcd-47fc-bdb6-fabcc4cedc28"
                  },
                  {
                    "reference": "urn:uuid:f1c5ad1e-ae12-4878-8fbb-ad60f469f4b6"
                  },
                  {
                    "reference": "urn:uuid:6ee9e3f3-ad13-47d8-a470-2158acdac994"
                  },
                  {
                    "reference": "urn:uuid:c5aaf60b-7391-40a2-a439-dbcdbcbbf0b9"
                  },
                  {
                    "reference": "urn:uuid:55c360b1-3009-4ca7-8dc9-459fe442744d"
                  },
                  {
                    "reference": "urn:uuid:6337f59a-1762-44e3-b3c4-b1f1b5535003"
                  },
                  {
                    "reference": "urn:uuid:cc10a6e9-78da-4a19-b1c0-1e2ff0eca06a"
                  },
                  {
                    "reference": "urn:uuid:fc8a5e5e-cc8e-4962-870a-1042ed7397d8"
                  },
                  {
                    "reference": "urn:uuid:bd820d80-3a25-4032-9c0e-dddc75580245"
                  }
                ],
                "text": {
                  "status": "generated",
                  "div": "<div xmlns=\"http://www.w3.org/1999/xhtml\"><h3 id=\"section-2\">Microbiology</h3><table class=\"hl7__eu__lab__report\"><thead><tr><th>Test</th><th>18 Nov 2024</th><th>Reference Range</th><th>Unit</th></tr></thead><tbody><tr><td>Influenza virus A RNA [Presence] in Respiratory system specimen by NAA with probe detection</td><td>Negative</td><td></td><td></td></tr><tr><td>Influenza virus B RNA [Presence] in Respiratory system specimen by NAA with probe detection</td><td>Negative</td><td></td><td></td></tr><tr><td>Respiratory syncytial virus RNA [Presence] in Respiratory system specimen by NAA with probe detection</td><td>Negative</td><td></td><td></td></tr><tr><td>Parainfluenza virus 1 RNA [Presence] in Respiratory system specimen by NAA with probe detection</td><td>Negative</td><td></td><td></td></tr><tr><td>Parainfluenza virus 2 RNA [Presence] in Respiratory system specimen by NAA with probe detection</td><td>Negative</td><td></td><td></td></tr><tr><td>Parainfluenza virus 3 RNA [Presence] in Respiratory system specimen by NAA with probe detection</td><td>Negative</td><td></td><td></td></tr><tr><td>Rhinovirus RNA [Presence] in Respiratory system specimen by NAA with probe detection</td><td>Negative</td><td></td><td></td></tr><tr><td>Human metapneumovirus RNA [Presence] in Respiratory system specimen by NAA with probe detection</td><td>Negative</td><td></td><td></td></tr><tr><td>Adenovirus A+B+C+D+E DNA [Presence] in Respiratory system specimen by NAA with probe detection</td><td>Negative</td><td></td><td></td></tr></tbody></table></div>"
                },
                "title": "Microbiology"
              },
              {
                "code": {
                  "coding": [
                    {
                      "code": "18725-2",
                      "system": "http://loinc.org",
                      "display": "Microbiology studies"
                    }
                  ],
                  "text": "Microbiology Panel"
                },
                "entry": [
                  {
                    "reference": "urn:uuid:3676678d-1b61-46a1-b700-940fce803436"
                  }
                ],
                "text": {
                  "status": "generated",
                  "div": "<div xmlns=\"http://www.w3.org/1999/xhtml\"><h3 id=\"section-3\">Microbiology Panel</h3><table class=\"hl7__eu__lab__report\"><thead><tr><th>Test</th><th>18 Nov 2024</th><th>Reference Range</th><th>Unit</th></tr></thead><tbody><tr><td>SARS-CoV-2 (COVID-19) RNA panel - Respiratory system specimen by NAA with probe detection</td><td>Detected</td><td></td><td></td></tr></tbody></table></div>"
                },
                "title": "Microbiology Panel"
              }
            ],
            "title": "Laboratory Report"
          }
        ],
        "status": "final",
        "subject": {
          "reference": "urn:uuid:10694c8b-f467-4198-8c6a-9134578f8812"
        },
        "date": "2024-11-19T18:40:04Z",
        "title": "Laboratory Report",
        "confidentiality": "N"
      }
    },
    {
      "fullUrl": "urn:uuid:9381b03d-36cd-4341-adc3-0be3d1a75a55",
      "resource": {
        "resourceType": "DiagnosticReport",
        "id": "9381b03d-36cd-4341-adc3-0be3d1a75a55",
        "meta": {
          "profile": [
            "http://hl7.eu/fhir/laboratory/StructureDefinition/DiagnosticReport-eu-lab"
          ]
        },
        "identifier": [
          {
            "assigner": {
              "display": "HL7 Europe"
            },
            "system": "urn:oid:2.16.840.1.113883.2.51.999",
            "value": "ec159bef-1c90-4b01-8af6-33acb8a39460"
          }
        ],
        "extension": [
          {
            "url": "http://hl7.org/fhir/5.0/StructureDefinition/extension-DiagnosticReport.composition",
            "valueReference": {
              "reference": "urn:uuid:9b635900-fb89-4fa4-8182-c2ce3cfa4457"
            }
          }
        ],
        "category": [
          {
            "coding": [
              {
                "code": "18719-5",
                "system": "http://loinc.org",
                "display": "Chemistry studies (set)"
              }
            ]
          }
        ],
        "specimen": [
          {
            "reference": "urn:uuid:bbe4a8e4-7fe3-4d08-b694-c41d9bd1b901"
          },
          {
            "reference": "urn:uuid:1b69bd4c-ded9-48ff-9e6e-802f41014688"
          }
        ],
        "result": [
          {
            "reference": "urn:uuid:3d7f076e-8062-468b-8298-086a03b2e568"
          },
          {
            "reference": "urn:uuid:b337ee69-5bcd-47fc-bdb6-fabcc4cedc28"
          },
          {
            "reference": "urn:uuid:f1c5ad1e-ae12-4878-8fbb-ad60f469f4b6"
          },
          {
            "reference": "urn:uuid:6ee9e3f3-ad13-47d8-a470-2158acdac994"
          },
          {
            "reference": "urn:uuid:c5aaf60b-7391-40a2-a439-dbcdbcbbf0b9"
          },
          {
            "reference": "urn:uuid:55c360b1-3009-4ca7-8dc9-459fe442744d"
          },
          {
            "reference": "urn:uuid:6337f59a-1762-44e3-b3c4-b1f1b5535003"
          },
          {
            "reference": "urn:uuid:cc10a6e9-78da-4a19-b1c0-1e2ff0eca06a"
          },
          {
            "reference": "urn:uuid:fc8a5e5e-cc8e-4962-870a-1042ed7397d8"
          },
          {
            "reference": "urn:uuid:bd820d80-3a25-4032-9c0e-dddc75580245"
          },
          {
            "reference": "urn:uuid:3676678d-1b61-46a1-b700-940fce803436"
          }
        ],
        "status": "registered",
        "code": {
          "coding": [
            {
              "code": "11502-2",
              "system": "http://loinc.org",
              "display": "Laboratory report"
            }
          ]
        },
        "subject": {
          "reference": "urn:uuid:10694c8b-f467-4198-8c6a-9134578f8812"
        }
      }
    },
    {
      "fullUrl": "urn:uuid:10694c8b-f467-4198-8c6a-9134578f8812",
      "resource": {
        "resourceType": "Patient",
        "id": "10694c8b-f467-4198-8c6a-9134578f8812",
        "meta": {
          "profile": [
            "http://hl7.eu/fhir/laboratory/StructureDefinition/Patient-eu-lab"
          ]
        },
        "identifier": [
          {
            "type": {
              "coding": [
                {
                  "code": "NI",
                  "system": "http://terminology.hl7.org/CodeSystem/v2-0203"
                }
              ]
            },
            "system": "http://ec.europa.eu/identifier/eci",
            "value": "4508-047064-9"
          },
          {
            "type": {
              "coding": [
                {
                  "code": "MR",
                  "system": "http://terminology.hl7.org/CodeSystem/v2-0203"
                }
              ]
            },
            "system": "http://local.setting.eu/identifier",
            "value": "030493c4-b698-483d-9da5-590126c79849"
          }
        ],
        "name": [
          {
            "given": [
              "Ulpu"
            ],
            "family": "Kyllönen",
            "text": "Ulpu Kyllönen"
          }
        ],
        "address": [
          {
            "line": [
              "Viinikantie 28"
            ],
            "use": "home",
            "type": "physical",
            "city": "Nurmes",
            "postalCode": "75530",
            "country": "Finland"
          }
        ],
        "telecom": [
          {
            "system": "phone",
            "value": "+358 041 050 0589"
          }
        ],
        "gender": "female",
        "birthDate": "1993-09-03"
      }
    },
    {
      "fullUrl": "urn:uuid:28200d52-acab-45c3-911d-7e71acdaf264",
      "resource": {
        "resourceType": "ServiceRequest",
        "id": "28200d52-acab-45c3-911d-7e71acdaf264",
        "meta": {
          "profile": [
            "http://hl7.eu/fhir/laboratory/StructureDefinition/ServiceRequest-eu-lab"
          ]
        },
        "identifier": [
          {
            "system": "http://example.org",
            "value": "8ac611a9-bf47-4b04-b734-e60917e27e2c"
          }
        ],
        "specimen": [
          {
            "reference": "urn:uuid:bbe4a8e4-7fe3-4d08-b694-c41d9bd1b901"
          },
          {
            "reference": "urn:uuid:1b69bd4c-ded9-48ff-9e6e-802f41014688"
          }
        ],
        "status": "active",
        "intent": "order",
        "code": {
          "coding": [
            {
              "code": "108252007",
              "system": "http://snomed.info/sct",
              "display": "Laboratory procedure"
            }
          ]
        },
        "subject": {
          "reference": "urn:uuid:10694c8b-f467-4198-8c6a-9134578f8812"
        }
      }
    },
    {
      "fullUrl": "urn:uuid:"
    },
    {
      "fullUrl": "urn:uuid:"
    },
    {
      "fullUrl": "urn:uuid:90b5c89f-85e9-45d5-a9e7-930f4cee1852",
      "resource": {
        "resourceType": "PractitionerRole",
        "id": "90b5c89f-85e9-45d5-a9e7-930f4cee1852",
        "meta": {
          "profile": [
            "http://hl7.eu/fhir/laboratory/StructureDefinition/PractitionerRole-eu-lab"
          ]
        },
        "practitioner": {
          "reference": "urn:uuid:0b0eeae2-1a9a-4513-af05-83ddaac673f7"
        }
      }
    },
    {
      "fullUrl": "urn:uuid:0b0eeae2-1a9a-4513-af05-83ddaac673f7",
      "resource": {
        "resourceType": "Practitioner",
        "id": "0b0eeae2-1a9a-4513-af05-83ddaac673f7",
        "meta": {
          "profile": [
            "http://hl7.eu/fhir/laboratory/StructureDefinition/Practitioner-eu-lab"
          ]
        },
        "identifier": [
          {
            "assigner": {
              "display": "HL7 Europe"
            },
            "system": "urn:oid:2.16.840.1.113883.2.51.999",
            "value": "2436b97a-892f-439e-96c5-384f4be12f2d"
          }
        ],
        "name": [
          {
            "prefix": [
              "dr"
            ],
            "given": [
              "Ex"
            ],
            "family": "Ample"
          }
        ],
        "address": [
          {
            "line": [
              "Boulevard du Jardin Botanique 32"
            ],
            "city": "Brussels",
            "postalCode": "1000"
          }
        ]
      }
    },
    {
      "fullUrl": "urn:uuid:bbe4a8e4-7fe3-4d08-b694-c41d9bd1b901",
      "resource": {
        "resourceType": "Specimen",
        "id": "bbe4a8e4-7fe3-4d08-b694-c41d9bd1b901",
        "meta": {
          "profile": [
            "http://hl7.eu/fhir/laboratory/StructureDefinition/Specimen-eu-lab"
          ]
        },
        "collection": {
          "collectedDateTime": "2024-11-18"
        },
        "status": "available",
        "type": {
          "coding": [
            {
              "code": "122552005",
              "system": "http://snomed.info/sct",
              "display": "Arterial blood specimen (specimen)"
            }
          ]
        }
      }
    },
    {
      "fullUrl": "urn:uuid:1b69bd4c-ded9-48ff-9e6e-802f41014688",
      "resource": {
        "resourceType": "Specimen",
        "id": "1b69bd4c-ded9-48ff-9e6e-802f41014688",
        "meta": {
          "profile": [
            "http://hl7.eu/fhir/laboratory/StructureDefinition/Specimen-eu-lab"
          ]
        },
        "collection": {
          "collectedDateTime": "2024-11-18"
        },
        "status": "available",
        "type": {
          "coding": [
            {
              "code": "258603007",
              "system": "http://snomed.info/sct",
              "display": "Respiratory specimen (specimen)"
            }
          ]
        }
      }
    },
    {
      "fullUrl": "urn:uuid:3d7f076e-8062-468b-8298-086a03b2e568",
      "resource": {
        "resourceType": "Observation",
        "id": "3d7f076e-8062-468b-8298-086a03b2e568",
        "meta": {
          "profile": [
            "http://hl7.eu/fhir/laboratory/StructureDefinition/Observation-resultslab-eu-lab"
          ]
        },
        "performer": [
          {
            "display": "The Central European Lab"
          }
        ],
        "category": [
          {
            "coding": [
              {
                "code": "laboratory",
                "system": "http://terminology.hl7.org/CodeSystem/observation-category"
              }
            ]
          }
        ],
        "code": {
          "coding": [
            {
              "code": "2708-6",
              "system": "http://loinc.org",
              "display": "Oxygen saturation in Arterial blood"
            }
          ],
          "text": "Oxygen saturation in Arterial blood"
        },
        "valueQuantity": {
          "system": "http://unitsofmeasure.org",
          "value": 83.5,
          "unit": "%",
          "code": "%"
        },
        "referenceRange": [
          {
            "low": {
              "value": 95,
              "code": "%",
              "system": "http://unitsofmeasure.org"
            }
          },
          {
            "high": {
              "value": 100,
              "code": "%",
              "system": "http://unitsofmeasure.org"
            }
          }
        ],
        "interpretation": [
          {
            "coding": [
              {
                "code": "L",
                "system": "http://terminology.hl7.org/CodeSystem/v3-ObservationInterpretation",
                "display": "Low"
              }
            ]
          }
        ],
        "status": "final",
        "subject": {
          "reference": "urn:uuid:10694c8b-f467-4198-8c6a-9134578f8812"
        },
        "effectiveDateTime": "2024-11-18",
        "specimen": {
          "reference": "urn:uuid:bbe4a8e4-7fe3-4d08-b694-c41d9bd1b901"
        }
      }
    },
    {
      "fullUrl": "urn:uuid:b337ee69-5bcd-47fc-bdb6-fabcc4cedc28",
      "resource": {
        "resourceType": "Observation",
        "id": "b337ee69-5bcd-47fc-bdb6-fabcc4cedc28",
        "meta": {
          "profile": [
            "http://hl7.eu/fhir/laboratory/StructureDefinition/Observation-resultslab-eu-lab"
          ]
        },
        "performer": [
          {
            "display": "The Central European Lab"
          }
        ],
        "category": [
          {
            "coding": [
              {
                "code": "laboratory",
                "system": "http://terminology.hl7.org/CodeSystem/observation-category"
              }
            ]
          }
        ],
        "code": {
          "coding": [
            {
              "code": "92142-9",
              "system": "http://loinc.org",
              "display": "Influenza virus A RNA [Presence] in Respiratory system specimen by NAA with probe detection"
            }
          ],
          "text": "Influenza virus A RNA [Presence] in Respiratory system specimen by NAA with probe detection"
        },
        "status": "final",
        "subject": {
          "reference": "urn:uuid:10694c8b-f467-4198-8c6a-9134578f8812"
        },
        "effectiveDateTime": "2024-11-18",
        "valueCodeableConcept": {
          "coding": [
            {
              "code": "260385009",
              "system": "http://snomed.info/sct",
              "display": "Negative"
            }
          ]
        },
        "specimen": {
          "reference": "urn:uuid:1b69bd4c-ded9-48ff-9e6e-802f41014688"
        }
      }
    },
    {
      "fullUrl": "urn:uuid:f1c5ad1e-ae12-4878-8fbb-ad60f469f4b6",
      "resource": {
        "resourceType": "Observation",
        "id": "f1c5ad1e-ae12-4878-8fbb-ad60f469f4b6",
        "meta": {
          "profile": [
            "http://hl7.eu/fhir/laboratory/StructureDefinition/Observation-resultslab-eu-lab"
          ]
        },
        "performer": [
          {
            "display": "The Central European Lab"
          }
        ],
        "category": [
          {
            "coding": [
              {
                "code": "laboratory",
                "system": "http://terminology.hl7.org/CodeSystem/observation-category"
              }
            ]
          }
        ],
        "code": {
          "coding": [
            {
              "code": "92141-1",
              "system": "http://loinc.org",
              "display": "Influenza virus B RNA [Presence] in Respiratory system specimen by NAA with probe detection"
            }
          ],
          "text": "Influenza virus B RNA [Presence] in Respiratory system specimen by NAA with probe detection"
        },
        "status": "final",
        "subject": {
          "reference": "urn:uuid:10694c8b-f467-4198-8c6a-9134578f8812"
        },
        "effectiveDateTime": "2024-11-18",
        "valueCodeableConcept": {
          "coding": [
            {
              "code": "260385009",
              "system": "http://snomed.info/sct",
              "display": "Negative"
            }
          ]
        },
        "specimen": {
          "reference": "urn:uuid:1b69bd4c-ded9-48ff-9e6e-802f41014688"
        }
      }
    },
    {
      "fullUrl": "urn:uuid:6ee9e3f3-ad13-47d8-a470-2158acdac994",
      "resource": {
        "resourceType": "Observation",
        "id": "6ee9e3f3-ad13-47d8-a470-2158acdac994",
        "meta": {
          "profile": [
            "http://hl7.eu/fhir/laboratory/StructureDefinition/Observation-resultslab-eu-lab"
          ]
        },
        "performer": [
          {
            "display": "The Central European Lab"
          }
        ],
        "category": [
          {
            "coding": [
              {
                "code": "laboratory",
                "system": "http://terminology.hl7.org/CodeSystem/observation-category"
              }
            ]
          }
        ],
        "code": {
          "coding": [
            {
              "code": "92131-2",
              "system": "http://loinc.org",
              "display": "Respiratory syncytial virus RNA [Presence] in Respiratory system specimen by NAA with probe detection"
            }
          ],
          "text": "Respiratory syncytial virus RNA [Presence] in Respiratory system specimen by NAA with probe detection"
        },
        "status": "final",
        "subject": {
          "reference": "urn:uuid:10694c8b-f467-4198-8c6a-9134578f8812"
        },
        "effectiveDateTime": "2024-11-18",
        "valueCodeableConcept": {
          "coding": [
            {
              "code": "260385009",
              "system": "http://snomed.info/sct",
              "display": "Negative"
            }
          ]
        },
        "specimen": {
          "reference": "urn:uuid:1b69bd4c-ded9-48ff-9e6e-802f41014688"
        }
      }
    },
    {
      "fullUrl": "urn:uuid:c5aaf60b-7391-40a2-a439-dbcdbcbbf0b9",
      "resource": {
        "resourceType": "Observation",
        "id": "c5aaf60b-7391-40a2-a439-dbcdbcbbf0b9",
        "meta": {
          "profile": [
            "http://hl7.eu/fhir/laboratory/StructureDefinition/Observation-resultslab-eu-lab"
          ]
        },
        "performer": [
          {
            "display": "The Central European Lab"
          }
        ],
        "category": [
          {
            "coding": [
              {
                "code": "laboratory",
                "system": "http://terminology.hl7.org/CodeSystem/observation-category"
              }
            ]
          }
        ],
        "code": {
          "coding": [
            {
              "code": "92140-3",
              "system": "http://loinc.org",
              "display": "Parainfluenza virus 1 RNA [Presence] in Respiratory system specimen by NAA with probe detection"
            }
          ],
          "text": "Parainfluenza virus 1 RNA [Presence] in Respiratory system specimen by NAA with probe detection"
        },
        "status": "final",
        "subject": {
          "reference": "urn:uuid:10694c8b-f467-4198-8c6a-9134578f8812"
        },
        "effectiveDateTime": "2024-11-18",
        "valueCodeableConcept": {
          "coding": [
            {
              "code": "260385009",
              "system": "http://snomed.info/sct",
              "display": "Negative"
            }
          ]
        },
        "specimen": {
          "reference": "urn:uuid:1b69bd4c-ded9-48ff-9e6e-802f41014688"
        }
      }
    },
    {
      "fullUrl": "urn:uuid:55c360b1-3009-4ca7-8dc9-459fe442744d",
      "resource": {
        "resourceType": "Observation",
        "id": "55c360b1-3009-4ca7-8dc9-459fe442744d",
        "meta": {
          "profile": [
            "http://hl7.eu/fhir/laboratory/StructureDefinition/Observation-resultslab-eu-lab"
          ]
        },
        "performer": [
          {
            "display": "The Central European Lab"
          }
        ],
        "category": [
          {
            "coding": [
              {
                "code": "laboratory",
                "system": "http://terminology.hl7.org/CodeSystem/observation-category"
              }
            ]
          }
        ],
        "code": {
          "coding": [
            {
              "code": "92139-5",
              "system": "http://loinc.org",
              "display": "Parainfluenza virus 2 RNA [Presence] in Respiratory system specimen by NAA with probe detection"
            }
          ],
          "text": "Parainfluenza virus 2 RNA [Presence] in Respiratory system specimen by NAA with probe detection"
        },
        "status": "final",
        "subject": {
          "reference": "urn:uuid:10694c8b-f467-4198-8c6a-9134578f8812"
        },
        "effectiveDateTime": "2024-11-18",
        "valueCodeableConcept": {
          "coding": [
            {
              "code": "260385009",
              "system": "http://snomed.info/sct",
              "display": "Negative"
            }
          ]
        },
        "specimen": {
          "reference": "urn:uuid:1b69bd4c-ded9-48ff-9e6e-802f41014688"
        }
      }
    },
    {
      "fullUrl": "urn:uuid:6337f59a-1762-44e3-b3c4-b1f1b5535003",
      "resource": {
        "resourceType": "Observation",
        "id": "6337f59a-1762-44e3-b3c4-b1f1b5535003",
        "meta": {
          "profile": [
            "http://hl7.eu/fhir/laboratory/StructureDefinition/Observation-resultslab-eu-lab"
          ]
        },
        "performer": [
          {
            "display": "The Central European Lab"
          }
        ],
        "category": [
          {
            "coding": [
              {
                "code": "laboratory",
                "system": "http://terminology.hl7.org/CodeSystem/observation-category"
              }
            ]
          }
        ],
        "code": {
          "coding": [
            {
              "code": "92138-7",
              "system": "http://loinc.org",
              "display": "Parainfluenza virus 3 RNA [Presence] in Respiratory system specimen by NAA with probe detection"
            }
          ],
          "text": "Parainfluenza virus 3 RNA [Presence] in Respiratory system specimen by NAA with probe detection"
        },
        "status": "final",
        "subject": {
          "reference": "urn:uuid:10694c8b-f467-4198-8c6a-9134578f8812"
        },
        "effectiveDateTime": "2024-11-18",
        "valueCodeableConcept": {
          "coding": [
            {
              "code": "260385009",
              "system": "http://snomed.info/sct",
              "display": "Negative"
            }
          ]
        },
        "specimen": {
          "reference": "urn:uuid:1b69bd4c-ded9-48ff-9e6e-802f41014688"
        }
      }
    },
    {
      "fullUrl": "urn:uuid:cc10a6e9-78da-4a19-b1c0-1e2ff0eca06a",
      "resource": {
        "resourceType": "Observation",
        "id": "cc10a6e9-78da-4a19-b1c0-1e2ff0eca06a",
        "meta": {
          "profile": [
            "http://hl7.eu/fhir/laboratory/StructureDefinition/Observation-resultslab-eu-lab"
          ]
        },
        "performer": [
          {
            "display": "The Central European Lab"
          }
        ],
        "category": [
          {
            "coding": [
              {
                "code": "laboratory",
                "system": "http://terminology.hl7.org/CodeSystem/observation-category"
              }
            ]
          }
        ],
        "code": {
          "coding": [
            {
              "code": "92130-4",
              "system": "http://loinc.org",
              "display": "Rhinovirus RNA [Presence] in Respiratory system specimen by NAA with probe detection"
            }
          ],
          "text": "Rhinovirus RNA [Presence] in Respiratory system specimen by NAA with probe detection"
        },
        "status": "final",
        "subject": {
          "reference": "urn:uuid:10694c8b-f467-4198-8c6a-9134578f8812"
        },
        "effectiveDateTime": "2024-11-18",
        "valueCodeableConcept": {
          "coding": [
            {
              "code": "260385009",
              "system": "http://snomed.info/sct",
              "display": "Negative"
            }
          ]
        },
        "specimen": {
          "reference": "urn:uuid:1b69bd4c-ded9-48ff-9e6e-802f41014688"
        }
      }
    },
    {
      "fullUrl": "urn:uuid:fc8a5e5e-cc8e-4962-870a-1042ed7397d8",
      "resource": {
        "resourceType": "Observation",
        "id": "fc8a5e5e-cc8e-4962-870a-1042ed7397d8",
        "meta": {
          "profile": [
            "http://hl7.eu/fhir/laboratory/StructureDefinition/Observation-resultslab-eu-lab"
          ]
        },
        "performer": [
          {
            "display": "The Central European Lab"
          }
        ],
        "category": [
          {
            "coding": [
              {
                "code": "laboratory",
                "system": "http://terminology.hl7.org/CodeSystem/observation-category"
              }
            ]
          }
        ],
        "code": {
          "coding": [
            {
              "code": "92134-6",
              "system": "http://loinc.org",
              "display": "Human metapneumovirus RNA [Presence] in Respiratory system specimen by NAA with probe detection"
            }
          ],
          "text": "Human metapneumovirus RNA [Presence] in Respiratory system specimen by NAA with probe detection"
        },
        "status": "final",
        "subject": {
          "reference": "urn:uuid:10694c8b-f467-4198-8c6a-9134578f8812"
        },
        "effectiveDateTime": "2024-11-18",
        "valueCodeableConcept": {
          "coding": [
            {
              "code": "260385009",
              "system": "http://snomed.info/sct",
              "display": "Negative"
            }
          ]
        },
        "specimen": {
          "reference": "urn:uuid:1b69bd4c-ded9-48ff-9e6e-802f41014688"
        }
      }
    },
    {
      "fullUrl": "urn:uuid:bd820d80-3a25-4032-9c0e-dddc75580245",
      "resource": {
        "resourceType": "Observation",
        "id": "bd820d80-3a25-4032-9c0e-dddc75580245",
        "meta": {
          "profile": [
            "http://hl7.eu/fhir/laboratory/StructureDefinition/Observation-resultslab-eu-lab"
          ]
        },
        "performer": [
          {
            "display": "The Central European Lab"
          }
        ],
        "category": [
          {
            "coding": [
              {
                "code": "laboratory",
                "system": "http://terminology.hl7.org/CodeSystem/observation-category"
              }
            ]
          }
        ],
        "code": {
          "coding": [
            {
              "code": "94040-3",
              "system": "http://loinc.org",
              "display": "Adenovirus A+B+C+D+E DNA [Presence] in Respiratory system specimen by NAA with probe detection"
            }
          ],
          "text": "Adenovirus A+B+C+D+E DNA [Presence] in Respiratory system specimen by NAA with probe detection"
        },
        "status": "final",
        "subject": {
          "reference": "urn:uuid:10694c8b-f467-4198-8c6a-9134578f8812"
        },
        "effectiveDateTime": "2024-11-18",
        "valueCodeableConcept": {
          "coding": [
            {
              "code": "260385009",
              "system": "http://snomed.info/sct",
              "display": "Negative"
            }
          ]
        },
        "specimen": {
          "reference": "urn:uuid:1b69bd4c-ded9-48ff-9e6e-802f41014688"
        }
      }
    },
    {
      "fullUrl": "urn:uuid:3676678d-1b61-46a1-b700-940fce803436",
      "resource": {
        "resourceType": "Observation",
        "id": "3676678d-1b61-46a1-b700-940fce803436",
        "meta": {
          "profile": [
            "http://hl7.eu/fhir/laboratory/StructureDefinition/Observation-resultslab-eu-lab"
          ]
        },
        "performer": [
          {
            "display": "The Central European Lab"
          }
        ],
        "category": [
          {
            "coding": [
              {
                "code": "laboratory",
                "system": "http://terminology.hl7.org/CodeSystem/observation-category"
              }
            ]
          }
        ],
        "code": {
          "coding": [
            {
              "code": "94531-1",
              "system": "http://loinc.org",
              "display": "SARS-CoV-2 (COVID-19) RNA panel - Respiratory system specimen by NAA with probe detection"
            }
          ],
          "text": "SARS-CoV-2 (COVID-19) RNA panel - Respiratory system specimen by NAA with probe detection"
        },
        "status": "final",
        "subject": {
          "reference": "urn:uuid:10694c8b-f467-4198-8c6a-9134578f8812"
        },
        "effectiveDateTime": "2024-11-18",
        "valueCodeableConcept": {
          "coding": [
            {
              "code": "260373001",
              "system": "http://snomed.info/sct",
              "display": "Detected"
            }
          ]
        },
        "specimen": {
          "reference": "urn:uuid:1b69bd4c-ded9-48ff-9e6e-802f41014688"
        }
      }
    }
  ],
  "type": "document",
  "timestamp": "2024-11-19T18:40:04Z"
}
