{
  "resourceType": "Bundle",
  "id": "Instance-Bundle-d0ca6c3f-3ca7-45b7-9ec7-81c091646c2a",
  "meta": {
    "profile": [
      "http://hl7.eu/fhir/laboratory/StructureDefinition/Bundle-eu-lab"
    ]
  },
  "identifier": {
    "assigner": {
      "display": "HL7 Europe"
    },
    "system": "urn:oid:2.16.840.1.113883.2.51.999",
    "value": "c7035d2e-ad65-49a0-83d3-78e9e99a6c5b"
  },
  "entry": [
    {
      "fullUrl": "urn:uuid:3ca673ba-ae00-430e-a9b3-a02e214c707a",
      "resource": {
        "resourceType": "Composition",
        "id": "3ca673ba-ae00-430e-a9b3-a02e214c707a",
        "meta": {
          "profile": [
            "http://hl7.eu/fhir/laboratory/StructureDefinition/Composition-eu-lab"
          ]
        },
        "identifier": {
          "assigner": {
            "display": "HL7 Europe"
          },
          "system": "urn:oid:2.16.840.1.113883.2.51.999",
          "value": "b5963c61-ea74-4b6d-9837-00de4656fab1"
        },
        "author": [
          {
            "reference": "urn:uuid:ad5cab29-3333-4b67-a8ee-4b5f2eeab16e"
          }
        ],
        "category": [
          {
            "coding": [
              {
                "code": "26436-6",
                "system": "http://loinc.org",
                "display": "Laboratory studies (set)"
              }
            ]
          }
        ],
        "type": {
          "text": "Laboratory Report"
        },
        "section": [
          {
            "code": {
              "coding": [
                {
                  "code": "26436-6",
                  "system": "http://loinc.org",
                  "display": "Laboratory studies (set)"
                }
              ],
              "text": "Laboratory studies"
            },
            "section": [
              {
                "code": {
                  "coding": [
                    {
                      "code": "18719-5",
                      "system": "http://loinc.org",
                      "display": "Chemistry studies (set)"
                    }
                  ],
                  "text": "Chemistry"
                },
                "entry": [
                  {
                    "reference": "urn:uuid:cd21cd0f-ba3b-41e7-ba3c-48bf871d6ae0"
                  }
                ],
                "text": {
                  "status": "generated",
                  "div": "<div xmlns=\"http://www.w3.org/1999/xhtml\"><h3 id=\"section-1\">Chemistry</h3><table class=\"hl7__eu__lab__report\"><thead><tr><th>Test</th><th>18 Nov 2024</th><th>Reference Range</th><th>Unit</th></tr></thead><tbody><tr><td>Oxygen saturation in Arterial blood</td><td><strong>80.6 L</strong></td><td>95 - 100</td><td>%</td></tr></tbody></table></div>"
                },
                "title": "Chemistry"
              },
              {
                "code": {
                  "coding": [
                    {
                      "code": "18725-2",
                      "system": "http://loinc.org",
                      "display": "Microbiology studies"
                    }
                  ],
                  "text": "Microbiology"
                },
                "entry": [
                  {
                    "reference": "urn:uuid:a5e402f7-0628-4630-9921-80592be06f0d"
                  },
                  {
                    "reference": "urn:uuid:50de04fa-e065-43a6-9b62-2393dfd734d3"
                  }
                ],
                "text": {
                  "status": "generated",
                  "div": "<div xmlns=\"http://www.w3.org/1999/xhtml\"><h3 id=\"section-2\">Microbiology</h3><table class=\"hl7__eu__lab__report\"><thead><tr><th>Test</th><th>18 Nov 2024</th><th>Reference Range</th><th>Unit</th></tr></thead><tbody><tr><td>Influenza virus A Ag [Presence] in Upper respiratory specimen by Rapid immunoassay</td><td>Not detected</td><td></td><td></td></tr><tr><td>Influenza virus B Ag [Presence] in Upper respiratory specimen by Rapid immunoassay</td><td>Not detected</td><td></td><td></td></tr></tbody></table></div>"
                },
                "title": "Microbiology"
              },
              {
                "code": {
                  "coding": [
                    {
                      "code": "18725-2",
                      "system": "http://loinc.org",
                      "display": "Microbiology studies"
                    }
                  ],
                  "text": "Microbiology Panel"
                },
                "entry": [
                  {
                    "reference": "urn:uuid:e53d0133-fa20-4016-a823-4084db5dc4b4"
                  }
                ],
                "text": {
                  "status": "generated",
                  "div": "<div xmlns=\"http://www.w3.org/1999/xhtml\"><h3 id=\"section-3\">Microbiology Panel</h3><table class=\"hl7__eu__lab__report\"><thead><tr><th>Test</th><th>18 Nov 2024</th><th>Reference Range</th><th>Unit</th></tr></thead><tbody><tr><td>SARS-CoV-2 (COVID-19) RNA panel - Respiratory system specimen by NAA with probe detection</td><td>Detected</td><td></td><td></td></tr></tbody></table></div>"
                },
                "title": "Microbiology Panel"
              }
            ],
            "title": "Laboratory Report"
          }
        ],
        "status": "final",
        "subject": {
          "reference": "urn:uuid:7f40a5cc-415a-4469-bc38-9266290da87c"
        },
        "date": "2024-11-19T18:40:34Z",
        "title": "Laboratory Report",
        "confidentiality": "N"
      }
    },
    {
      "fullUrl": "urn:uuid:6e3270d5-26ee-4b0b-b269-411dfb424bb0",
      "resource": {
        "resourceType": "DiagnosticReport",
        "id": "6e3270d5-26ee-4b0b-b269-411dfb424bb0",
        "meta": {
          "profile": [
            "http://hl7.eu/fhir/laboratory/StructureDefinition/DiagnosticReport-eu-lab"
          ]
        },
        "identifier": [
          {
            "assigner": {
              "display": "HL7 Europe"
            },
            "system": "urn:oid:2.16.840.1.113883.2.51.999",
            "value": "cb2958fe-7f8b-4259-bcdf-e0f9177127ea"
          }
        ],
        "extension": [
          {
            "url": "http://hl7.org/fhir/5.0/StructureDefinition/extension-DiagnosticReport.composition",
            "valueReference": {
              "reference": "urn:uuid:3ca673ba-ae00-430e-a9b3-a02e214c707a"
            }
          }
        ],
        "category": [
          {
            "coding": [
              {
                "code": "18719-5",
                "system": "http://loinc.org",
                "display": "Chemistry studies (set)"
              }
            ]
          }
        ],
        "specimen": [
          {
            "reference": "urn:uuid:a3f141df-e5e8-41b2-b0de-d4c636539af3"
          },
          {
            "reference": "urn:uuid:2c91cde7-ed0c-4d95-98a6-a6087436908d"
          },
          {
            "reference": "urn:uuid:e80fd007-8b20-4720-8a03-3e1be868ea99"
          }
        ],
        "result": [
          {
            "reference": "urn:uuid:cd21cd0f-ba3b-41e7-ba3c-48bf871d6ae0"
          },
          {
            "reference": "urn:uuid:a5e402f7-0628-4630-9921-80592be06f0d"
          },
          {
            "reference": "urn:uuid:50de04fa-e065-43a6-9b62-2393dfd734d3"
          },
          {
            "reference": "urn:uuid:e53d0133-fa20-4016-a823-4084db5dc4b4"
          }
        ],
        "status": "registered",
        "code": {
          "coding": [
            {
              "code": "11502-2",
              "system": "http://loinc.org",
              "display": "Laboratory report"
            }
          ]
        },
        "subject": {
          "reference": "urn:uuid:7f40a5cc-415a-4469-bc38-9266290da87c"
        }
      }
    },
    {
      "fullUrl": "urn:uuid:7f40a5cc-415a-4469-bc38-9266290da87c",
      "resource": {
        "resourceType": "Patient",
        "id": "7f40a5cc-415a-4469-bc38-9266290da87c",
        "meta": {
          "profile": [
            "http://hl7.eu/fhir/laboratory/StructureDefinition/Patient-eu-lab"
          ]
        },
        "identifier": [
          {
            "type": {
              "coding": [
                {
                  "code": "NI",
                  "system": "http://terminology.hl7.org/CodeSystem/v2-0203"
                }
              ]
            },
            "system": "http://ec.europa.eu/identifier/eci",
            "value": "4929-255056-0"
          },
          {
            "type": {
              "coding": [
                {
                  "code": "MR",
                  "system": "http://terminology.hl7.org/CodeSystem/v2-0203"
                }
              ]
            },
            "system": "http://local.setting.eu/identifier",
            "value": "93db9510-5478-45dc-8a3b-649c1f3531c3"
          }
        ],
        "name": [
          {
            "given": [
              "Silvana"
            ],
            "family": "Palmer",
            "text": "Silvana Palmer"
          }
        ],
        "address": [
          {
            "line": [
              "Gosposka ulica 35"
            ],
            "use": "home",
            "type": "physical",
            "city": "Mozirje",
            "postalCode": "3330",
            "country": "Slovenia"
          }
        ],
        "telecom": [
          {
            "system": "phone",
            "value": "+386 070-305-791"
          }
        ],
        "gender": "female",
        "birthDate": "1957-02-04"
      }
    },
    {
      "fullUrl": "urn:uuid:2671da54-08ec-4199-934f-82f08b4c47de",
      "resource": {
        "resourceType": "ServiceRequest",
        "id": "2671da54-08ec-4199-934f-82f08b4c47de",
        "meta": {
          "profile": [
            "http://hl7.eu/fhir/laboratory/StructureDefinition/ServiceRequest-eu-lab"
          ]
        },
        "identifier": [
          {
            "system": "http://example.org",
            "value": "ceb6ac23-3cd6-4c87-b350-38601fe146e5"
          }
        ],
        "specimen": [
          {
            "reference": "urn:uuid:a3f141df-e5e8-41b2-b0de-d4c636539af3"
          },
          {
            "reference": "urn:uuid:2c91cde7-ed0c-4d95-98a6-a6087436908d"
          },
          {
            "reference": "urn:uuid:e80fd007-8b20-4720-8a03-3e1be868ea99"
          }
        ],
        "status": "active",
        "intent": "order",
        "code": {
          "coding": [
            {
              "code": "108252007",
              "system": "http://snomed.info/sct",
              "display": "Laboratory procedure"
            }
          ]
        },
        "subject": {
          "reference": "urn:uuid:7f40a5cc-415a-4469-bc38-9266290da87c"
        },
        "requester": {
          "reference": "urn:uuid:061633c5-8c0e-40c2-9404-7ae7c498ac28"
        }
      }
    },
    {
      "fullUrl": "urn:uuid:061633c5-8c0e-40c2-9404-7ae7c498ac28",
      "resource": {
        "resourceType": "PractitionerRole",
        "id": "061633c5-8c0e-40c2-9404-7ae7c498ac28",
        "meta": {
          "profile": [
            "http://hl7.eu/fhir/laboratory/StructureDefinition/PractitionerRole-eu-lab"
          ]
        },
        "organization": {
          "reference": "urn:uuid:a00ae902-70db-4028-b976-5add867e1175"
        }
      }
    },
    {
      "fullUrl": "urn:uuid:a00ae902-70db-4028-b976-5add867e1175",
      "resource": {
        "resourceType": "Organization",
        "id": "a00ae902-70db-4028-b976-5add867e1175",
        "meta": {
          "profile": [
            "http://hl7.org/fhir/uv/ips/StructureDefinition/Organization-uv-ips"
          ]
        },
        "identifier": [
          {
            "assigner": {
              "display": "HL7 Europe"
            },
            "system": "urn:oid:2.16.840.1.113883.2.51.999",
            "value": "b10c42b2-86a4-4325-9eeb-de8dca5ea943"
          }
        ],
        "address": [
          {
            "city": "Vransko",
            "postalCode": "3305",
            "country": "si"
          }
        ],
        "name": "Zdravstveni dom"
      }
    },
    {
      "fullUrl": "urn:uuid:ad5cab29-3333-4b67-a8ee-4b5f2eeab16e",
      "resource": {
        "resourceType": "PractitionerRole",
        "id": "ad5cab29-3333-4b67-a8ee-4b5f2eeab16e",
        "meta": {
          "profile": [
            "http://hl7.eu/fhir/laboratory/StructureDefinition/PractitionerRole-eu-lab"
          ]
        },
        "practitioner": {
          "reference": "urn:uuid:6b34259e-2043-43a8-ac1a-a8756f05c7a6"
        }
      }
    },
    {
      "fullUrl": "urn:uuid:6b34259e-2043-43a8-ac1a-a8756f05c7a6",
      "resource": {
        "resourceType": "Practitioner",
        "id": "6b34259e-2043-43a8-ac1a-a8756f05c7a6",
        "meta": {
          "profile": [
            "http://hl7.eu/fhir/laboratory/StructureDefinition/Practitioner-eu-lab"
          ]
        },
        "identifier": [
          {
            "assigner": {
              "display": "HL7 Europe"
            },
            "system": "urn:oid:2.16.840.1.113883.2.51.999",
            "value": "c5715dbc-7922-4591-9ca0-a9147df194be"
          }
        ],
        "name": [
          {
            "prefix": [
              "dr"
            ],
            "given": [
              "Ex"
            ],
            "family": "Ample"
          }
        ],
        "address": [
          {
            "line": [
              "Boulevard du Jardin Botanique 32"
            ],
            "city": "Brussels",
            "postalCode": "1000"
          }
        ]
      }
    },
    {
      "fullUrl": "urn:uuid:a3f141df-e5e8-41b2-b0de-d4c636539af3",
      "resource": {
        "resourceType": "Specimen",
        "id": "a3f141df-e5e8-41b2-b0de-d4c636539af3",
        "meta": {
          "profile": [
            "http://hl7.eu/fhir/laboratory/StructureDefinition/Specimen-eu-lab"
          ]
        },
        "collection": {
          "collectedDateTime": "2024-11-18"
        },
        "status": "available",
        "type": {
          "coding": [
            {
              "code": "122552005",
              "system": "http://snomed.info/sct",
              "display": "Arterial blood specimen (specimen)"
            }
          ]
        }
      }
    },
    {
      "fullUrl": "urn:uuid:2c91cde7-ed0c-4d95-98a6-a6087436908d",
      "resource": {
        "resourceType": "Specimen",
        "id": "2c91cde7-ed0c-4d95-98a6-a6087436908d",
        "meta": {
          "profile": [
            "http://hl7.eu/fhir/laboratory/StructureDefinition/Specimen-eu-lab"
          ]
        },
        "collection": {
          "collectedDateTime": "2024-11-18"
        },
        "status": "available",
        "type": {
          "coding": [
            {
              "code": "258604001",
              "system": "http://snomed.info/sct",
              "display": "Upper respiratory specimen (specimen)"
            }
          ]
        }
      }
    },
    {
      "fullUrl": "urn:uuid:e80fd007-8b20-4720-8a03-3e1be868ea99",
      "resource": {
        "resourceType": "Specimen",
        "id": "e80fd007-8b20-4720-8a03-3e1be868ea99",
        "meta": {
          "profile": [
            "http://hl7.eu/fhir/laboratory/StructureDefinition/Specimen-eu-lab"
          ]
        },
        "collection": {
          "collectedDateTime": "2024-11-18"
        },
        "status": "available",
        "type": {
          "coding": [
            {
              "code": "258603007",
              "system": "http://snomed.info/sct",
              "display": "Respiratory specimen (specimen)"
            }
          ]
        }
      }
    },
    {
      "fullUrl": "urn:uuid:cd21cd0f-ba3b-41e7-ba3c-48bf871d6ae0",
      "resource": {
        "resourceType": "Observation",
        "id": "cd21cd0f-ba3b-41e7-ba3c-48bf871d6ae0",
        "meta": {
          "profile": [
            "http://hl7.eu/fhir/laboratory/StructureDefinition/Observation-resultslab-eu-lab"
          ]
        },
        "performer": [
          {
            "display": "The Central European Lab"
          }
        ],
        "category": [
          {
            "coding": [
              {
                "code": "laboratory",
                "system": "http://terminology.hl7.org/CodeSystem/observation-category"
              }
            ]
          }
        ],
        "code": {
          "coding": [
            {
              "code": "2708-6",
              "system": "http://loinc.org",
              "display": "Oxygen saturation in Arterial blood"
            }
          ],
          "text": "Oxygen saturation in Arterial blood"
        },
        "valueQuantity": {
          "system": "http://unitsofmeasure.org",
          "value": 80.6,
          "unit": "%",
          "code": "%"
        },
        "referenceRange": [
          {
            "low": {
              "value": 95,
              "code": "%",
              "system": "http://unitsofmeasure.org"
            }
          },
          {
            "high": {
              "value": 100,
              "code": "%",
              "system": "http://unitsofmeasure.org"
            }
          }
        ],
        "interpretation": [
          {
            "coding": [
              {
                "code": "L",
                "system": "http://terminology.hl7.org/CodeSystem/v3-ObservationInterpretation",
                "display": "Low"
              }
            ]
          }
        ],
        "status": "final",
        "subject": {
          "reference": "urn:uuid:7f40a5cc-415a-4469-bc38-9266290da87c"
        },
        "effectiveDateTime": "2024-11-18",
        "specimen": {
          "reference": "urn:uuid:a3f141df-e5e8-41b2-b0de-d4c636539af3"
        }
      }
    },
    {
      "fullUrl": "urn:uuid:a5e402f7-0628-4630-9921-80592be06f0d",
      "resource": {
        "resourceType": "Observation",
        "id": "a5e402f7-0628-4630-9921-80592be06f0d",
        "meta": {
          "profile": [
            "http://hl7.eu/fhir/laboratory/StructureDefinition/Observation-resultslab-eu-lab"
          ]
        },
        "performer": [
          {
            "display": "The Central European Lab"
          }
        ],
        "category": [
          {
            "coding": [
              {
                "code": "laboratory",
                "system": "http://terminology.hl7.org/CodeSystem/observation-category"
              }
            ]
          }
        ],
        "code": {
          "coding": [
            {
              "code": "80382-5",
              "system": "http://loinc.org",
              "display": "Influenza virus A Ag [Presence] in Upper respiratory specimen by Rapid immunoassay"
            }
          ],
          "text": "Influenza virus A Ag [Presence] in Upper respiratory specimen by Rapid immunoassay"
        },
        "status": "final",
        "subject": {
          "reference": "urn:uuid:7f40a5cc-415a-4469-bc38-9266290da87c"
        },
        "effectiveDateTime": "2024-11-18",
        "valueCodeableConcept": {
          "coding": [
            {
              "code": "260415000",
              "system": "http://snomed.info/sct",
              "display": "Not detected"
            }
          ]
        },
        "specimen": {
          "reference": "urn:uuid:2c91cde7-ed0c-4d95-98a6-a6087436908d"
        }
      }
    },
    {
      "fullUrl": "urn:uuid:50de04fa-e065-43a6-9b62-2393dfd734d3",
      "resource": {
        "resourceType": "Observation",
        "id": "50de04fa-e065-43a6-9b62-2393dfd734d3",
        "meta": {
          "profile": [
            "http://hl7.eu/fhir/laboratory/StructureDefinition/Observation-resultslab-eu-lab"
          ]
        },
        "performer": [
          {
            "display": "The Central European Lab"
          }
        ],
        "category": [
          {
            "coding": [
              {
                "code": "laboratory",
                "system": "http://terminology.hl7.org/CodeSystem/observation-category"
              }
            ]
          }
        ],
        "code": {
          "coding": [
            {
              "code": "80383-3",
              "system": "http://loinc.org",
              "display": "Influenza virus B Ag [Presence] in Upper respiratory specimen by Rapid immunoassay"
            }
          ],
          "text": "Influenza virus B Ag [Presence] in Upper respiratory specimen by Rapid immunoassay"
        },
        "status": "final",
        "subject": {
          "reference": "urn:uuid:7f40a5cc-415a-4469-bc38-9266290da87c"
        },
        "effectiveDateTime": "2024-11-18",
        "valueCodeableConcept": {
          "coding": [
            {
              "code": "260415000",
              "system": "http://snomed.info/sct",
              "display": "Not detected"
            }
          ]
        },
        "specimen": {
          "reference": "urn:uuid:2c91cde7-ed0c-4d95-98a6-a6087436908d"
        }
      }
    },
    {
      "fullUrl": "urn:uuid:e53d0133-fa20-4016-a823-4084db5dc4b4",
      "resource": {
        "resourceType": "Observation",
        "id": "e53d0133-fa20-4016-a823-4084db5dc4b4",
        "meta": {
          "profile": [
            "http://hl7.eu/fhir/laboratory/StructureDefinition/Observation-resultslab-eu-lab"
          ]
        },
        "performer": [
          {
            "display": "The Central European Lab"
          }
        ],
        "category": [
          {
            "coding": [
              {
                "code": "laboratory",
                "system": "http://terminology.hl7.org/CodeSystem/observation-category"
              }
            ]
          }
        ],
        "code": {
          "coding": [
            {
              "code": "94531-1",
              "system": "http://loinc.org",
              "display": "SARS-CoV-2 (COVID-19) RNA panel - Respiratory system specimen by NAA with probe detection"
            }
          ],
          "text": "SARS-CoV-2 (COVID-19) RNA panel - Respiratory system specimen by NAA with probe detection"
        },
        "status": "final",
        "subject": {
          "reference": "urn:uuid:7f40a5cc-415a-4469-bc38-9266290da87c"
        },
        "effectiveDateTime": "2024-11-18",
        "valueCodeableConcept": {
          "coding": [
            {
              "code": "260373001",
              "system": "http://snomed.info/sct",
              "display": "Detected"
            }
          ]
        },
        "specimen": {
          "reference": "urn:uuid:e80fd007-8b20-4720-8a03-3e1be868ea99"
        }
      }
    }
  ],
  "type": "document",
  "timestamp": "2024-11-19T18:40:34Z"
}
