<Bundle xmlns="http://hl7.org/fhir">
   <id value="Instance-Bundle-9a060f92-b262-4f8d-b385-6589fbef2940"/>
   <meta>
      <profile value="http://hl7.eu/fhir/laboratory/StructureDefinition/Bundle-eu-lab"/>
   </meta>
   <identifier>
      <system value="urn:oid:2.16.840.1.113883.2.51.999"/>
      <value value="e685f63f-ea47-4f01-8e75-f5e33bf73e86"/>
      <assigner>
         <display value="HL7 Europe"/>
      </assigner>
   </identifier>
   <type value="document"/>
   <timestamp value="2024-11-19T18:40:59Z"/>
   <entry>
      <fullUrl value="urn:uuid:353ec21a-9b32-45dc-addd-16aa6cc0e77b"/>
      <resource>
         <Composition>
            <id value="353ec21a-9b32-45dc-addd-16aa6cc0e77b"/>
            <meta>
               <profile value="http://hl7.eu/fhir/laboratory/StructureDefinition/Composition-eu-lab"/>
            </meta>
            <identifier>
               <system value="urn:oid:2.16.840.1.113883.2.51.999"/>
               <value value="143e75aa-086f-42ac-b3e1-fc45404d1421"/>
               <assigner>
                  <display value="HL7 Europe"/>
               </assigner>
            </identifier>
            <status value="final"/>
            <type>
               <text value="Laboratory Report"/>
            </type>
            <category>
               <coding>
                  <system value="http://loinc.org"/>
                  <code value="26436-6"/>
                  <display value="Laboratory studies (set)"/>
               </coding>
            </category>
            <subject>
               <reference value="urn:uuid:d4b0e5fe-faf5-4cd6-a2f7-64218a33ac97"/>
            </subject>
            <date value="2024-11-19T18:40:59Z"/>
            <author>
               <reference value="urn:uuid:719ef5eb-a864-47d7-a31f-c80e470a799e"/>
            </author>
            <title value="Laboratory Report"/>
            <confidentiality value="N"/>
            <section>
               <title value="Laboratory Report"/>
               <code>
                  <coding>
                     <system value="http://loinc.org"/>
                     <code value="26436-6"/>
                     <display value="Laboratory studies (set)"/>
                  </coding>
                  <text value="Laboratory studies"/>
               </code>
               <section>
                  <title value="Chemistry"/>
                  <code>
                     <coding>
                        <system value="http://loinc.org"/>
                        <code value="18719-5"/>
                        <display value="Chemistry studies (set)"/>
                     </coding>
                     <text value="Chemistry"/>
                  </code>
                  <text>
                     <status value="generated"/>
                     <div xmlns="http://www.w3.org/1999/xhtml">
                        <h3 id="section-1">Chemistry</h3>
                        <table class="hl7__eu__lab__report">
                           <thead>
                              <tr>
                                 <th>Test</th>
                                 <th>18 Nov 2024</th>
                                 <th>Reference Range</th>
                                 <th>Unit</th>
                              </tr>
                           </thead>
                           <tbody>
                              <tr>
                                 <td>Oxygen saturation in Arterial blood</td>
                                 <td>
                                    <strong>84.0 L</strong>
                                 </td>
                                 <td>95 - 100</td>
                                 <td>%</td>
                              </tr>
                           </tbody>
                        </table>
                     </div>
                  </text>
                  <entry>
                     <reference value="urn:uuid:470b431b-b5ec-44f4-ae75-08f753e4e232"/>
                  </entry>
               </section>
               <section>
                  <title value="Microbiology"/>
                  <code>
                     <coding>
                        <system value="http://loinc.org"/>
                        <code value="18725-2"/>
                        <display value="Microbiology studies"/>
                     </coding>
                     <text value="Microbiology"/>
                  </code>
                  <text>
                     <status value="generated"/>
                     <div xmlns="http://www.w3.org/1999/xhtml">
                        <h3 id="section-2">Microbiology</h3>
                        <table class="hl7__eu__lab__report">
                           <thead>
                              <tr>
                                 <th>Test</th>
                                 <th>18 Nov 2024</th>
                                 <th>Reference Range</th>
                                 <th>Unit</th>
                              </tr>
                           </thead>
                           <tbody>
                              <tr>
                                 <td>Influenza virus A Ag [Presence] in Upper respiratory specimen by Rapid immunoassay</td>
                                 <td>Not detected</td>
                                 <td/>
                                 <td/>
                              </tr>
                              <tr>
                                 <td>Influenza virus B Ag [Presence] in Upper respiratory specimen by Rapid immunoassay</td>
                                 <td>Not detected</td>
                                 <td/>
                                 <td/>
                              </tr>
                           </tbody>
                        </table>
                     </div>
                  </text>
                  <entry>
                     <reference value="urn:uuid:d7102b0d-96ab-43ba-b908-25e8ea2c80ad"/>
                  </entry>
                  <entry>
                     <reference value="urn:uuid:cd808e2a-9775-45a9-8d2e-284ab89725d3"/>
                  </entry>
               </section>
               <section>
                  <title value="Microbiology Panel"/>
                  <code>
                     <coding>
                        <system value="http://loinc.org"/>
                        <code value="18725-2"/>
                        <display value="Microbiology studies"/>
                     </coding>
                     <text value="Microbiology Panel"/>
                  </code>
                  <text>
                     <status value="generated"/>
                     <div xmlns="http://www.w3.org/1999/xhtml">
                        <h3 id="section-3">Microbiology Panel</h3>
                        <table class="hl7__eu__lab__report">
                           <thead>
                              <tr>
                                 <th>Test</th>
                                 <th>18 Nov 2024</th>
                                 <th>Reference Range</th>
                                 <th>Unit</th>
                              </tr>
                           </thead>
                           <tbody>
                              <tr>
                                 <td>SARS-CoV-2 (COVID-19) RNA panel - Respiratory system specimen by NAA with probe detection</td>
                                 <td>Not detected</td>
                                 <td/>
                                 <td/>
                              </tr>
                           </tbody>
                        </table>
                     </div>
                  </text>
                  <entry>
                     <reference value="urn:uuid:f1df0f84-0de2-481b-805f-9d4bbd2b6292"/>
                  </entry>
               </section>
            </section>
         </Composition>
      </resource>
   </entry>
   <entry>
      <fullUrl value="urn:uuid:d5194eb5-ce4b-4826-98f2-0e4f516ac69f"/>
      <resource>
         <DiagnosticReport>
            <id value="d5194eb5-ce4b-4826-98f2-0e4f516ac69f"/>
            <meta>
               <profile value="http://hl7.eu/fhir/laboratory/StructureDefinition/DiagnosticReport-eu-lab"/>
            </meta>
            <extension url="http://hl7.org/fhir/5.0/StructureDefinition/extension-DiagnosticReport.composition">
               <valueReference>
                  <reference value="urn:uuid:353ec21a-9b32-45dc-addd-16aa6cc0e77b"/>
               </valueReference>
            </extension>
            <identifier>
               <system value="urn:oid:2.16.840.1.113883.2.51.999"/>
               <value value="7aa0ea7e-11ee-4d42-9eb2-4b9459b277aa"/>
               <assigner>
                  <display value="HL7 Europe"/>
               </assigner>
            </identifier>
            <status value="registered"/>
            <category>
               <coding>
                  <system value="http://loinc.org"/>
                  <code value="18719-5"/>
                  <display value="Chemistry studies (set)"/>
               </coding>
            </category>
            <code>
               <coding>
                  <system value="http://loinc.org"/>
                  <code value="11502-2"/>
                  <display value="Laboratory report"/>
               </coding>
            </code>
            <subject>
               <reference value="urn:uuid:d4b0e5fe-faf5-4cd6-a2f7-64218a33ac97"/>
            </subject>
            <specimen>
               <reference value="urn:uuid:9f4b4896-a780-4f03-bb19-c5e1219c7aac"/>
            </specimen>
            <specimen>
               <reference value="urn:uuid:bf1adb8f-2fd7-4289-8f82-057f8d7588db"/>
            </specimen>
            <specimen>
               <reference value="urn:uuid:56f9e7f1-ee5b-48f6-ab6e-b6c02e10caa5"/>
            </specimen>
            <result>
               <reference value="urn:uuid:470b431b-b5ec-44f4-ae75-08f753e4e232"/>
            </result>
            <result>
               <reference value="urn:uuid:d7102b0d-96ab-43ba-b908-25e8ea2c80ad"/>
            </result>
            <result>
               <reference value="urn:uuid:cd808e2a-9775-45a9-8d2e-284ab89725d3"/>
            </result>
            <result>
               <reference value="urn:uuid:f1df0f84-0de2-481b-805f-9d4bbd2b6292"/>
            </result>
         </DiagnosticReport>
      </resource>
   </entry>
   <entry>
      <fullUrl value="urn:uuid:d4b0e5fe-faf5-4cd6-a2f7-64218a33ac97"/>
      <resource>
         <Patient>
            <id value="d4b0e5fe-faf5-4cd6-a2f7-64218a33ac97"/>
            <meta>
               <profile value="http://hl7.eu/fhir/laboratory/StructureDefinition/Patient-eu-lab"/>
            </meta>
            <identifier>
               <type>
                  <coding>
                     <system value="http://terminology.hl7.org/CodeSystem/v2-0203"/>
                     <code value="NI"/>
                  </coding>
               </type>
               <system value="http://ec.europa.eu/identifier/eci"/>
               <value value="4967-228670-2"/>
            </identifier>
            <identifier>
               <type>
                  <coding>
                     <system value="http://terminology.hl7.org/CodeSystem/v2-0203"/>
                     <code value="MR"/>
                  </coding>
               </type>
               <system value="http://local.setting.eu/identifier"/>
               <value value="30dbd712-971b-44aa-83ae-b67d6e1290e9"/>
            </identifier>
            <name>
               <text value="Celina Laursen"/>
               <family value="Laursen"/>
               <given value="Celina"/>
            </name>
            <telecom>
               <system value="phone"/>
               <value value="+45 23-90-62-36"/>
            </telecom>
            <gender value="female"/>
            <birthDate value="1996-04-06"/>
            <address>
               <use value="home"/>
               <type value="physical"/>
               <line value="Hovbanken 30"/>
               <city value="Tinglev"/>
               <postalCode value="6360"/>
               <country value="Denmark"/>
            </address>
         </Patient>
      </resource>
   </entry>
   <entry>
      <fullUrl value="urn:uuid:57b08af5-4e5f-41ff-965b-07ed88e9d11c"/>
      <resource>
         <ServiceRequest>
            <id value="57b08af5-4e5f-41ff-965b-07ed88e9d11c"/>
            <meta>
               <profile value="http://hl7.eu/fhir/laboratory/StructureDefinition/ServiceRequest-eu-lab"/>
            </meta>
            <identifier>
               <system value="http://example.org"/>
               <value value="46d7c2d5-44d7-44bd-bfb5-accd21a014b4"/>
            </identifier>
            <status value="active"/>
            <intent value="order"/>
            <code>
               <coding>
                  <system value="http://snomed.info/sct"/>
                  <code value="108252007"/>
                  <display value="Laboratory procedure"/>
               </coding>
            </code>
            <subject>
               <reference value="urn:uuid:d4b0e5fe-faf5-4cd6-a2f7-64218a33ac97"/>
            </subject>
            <requester>
               <reference value="urn:uuid:94824aec-b836-433c-b1b3-add9a3d48456"/>
            </requester>
            <specimen>
               <reference value="urn:uuid:9f4b4896-a780-4f03-bb19-c5e1219c7aac"/>
            </specimen>
            <specimen>
               <reference value="urn:uuid:bf1adb8f-2fd7-4289-8f82-057f8d7588db"/>
            </specimen>
            <specimen>
               <reference value="urn:uuid:56f9e7f1-ee5b-48f6-ab6e-b6c02e10caa5"/>
            </specimen>
         </ServiceRequest>
      </resource>
   </entry>
   <entry>
      <fullUrl value="urn:uuid:94824aec-b836-433c-b1b3-add9a3d48456"/>
      <resource>
         <PractitionerRole>
            <id value="94824aec-b836-433c-b1b3-add9a3d48456"/>
            <meta>
               <profile value="http://hl7.eu/fhir/laboratory/StructureDefinition/PractitionerRole-eu-lab"/>
            </meta>
            <organization>
               <reference value="urn:uuid:d001ffff-f611-4f2b-afd3-00df4633a5e0"/>
            </organization>
         </PractitionerRole>
      </resource>
   </entry>
   <entry>
      <fullUrl value="urn:uuid:d001ffff-f611-4f2b-afd3-00df4633a5e0"/>
      <resource>
         <Organization>
            <id value="d001ffff-f611-4f2b-afd3-00df4633a5e0"/>
            <meta>
               <profile value="http://hl7.org/fhir/uv/ips/StructureDefinition/Organization-uv-ips"/>
            </meta>
            <identifier>
               <system value="urn:oid:2.16.840.1.113883.2.51.999"/>
               <value value="59bf86ef-b433-4bbe-a701-a4c502632bbb"/>
               <assigner>
                  <display value="HL7 Europe"/>
               </assigner>
            </identifier>
            <name value="Lægehuset"/>
            <address>
               <city value="Padborg"/>
               <postalCode value="6330"/>
               <country value="dk"/>
            </address>
         </Organization>
      </resource>
   </entry>
   <entry>
      <fullUrl value="urn:uuid:719ef5eb-a864-47d7-a31f-c80e470a799e"/>
      <resource>
         <PractitionerRole>
            <id value="719ef5eb-a864-47d7-a31f-c80e470a799e"/>
            <meta>
               <profile value="http://hl7.eu/fhir/laboratory/StructureDefinition/PractitionerRole-eu-lab"/>
            </meta>
            <practitioner>
               <reference value="urn:uuid:59da6e83-4c70-4bdf-b9ec-8a30093d6be7"/>
            </practitioner>
         </PractitionerRole>
      </resource>
   </entry>
   <entry>
      <fullUrl value="urn:uuid:59da6e83-4c70-4bdf-b9ec-8a30093d6be7"/>
      <resource>
         <Practitioner>
            <id value="59da6e83-4c70-4bdf-b9ec-8a30093d6be7"/>
            <meta>
               <profile value="http://hl7.eu/fhir/laboratory/StructureDefinition/Practitioner-eu-lab"/>
            </meta>
            <identifier>
               <system value="urn:oid:2.16.840.1.113883.2.51.999"/>
               <value value="c4f829c6-6c83-4407-9f34-c5dd02fd5e82"/>
               <assigner>
                  <display value="HL7 Europe"/>
               </assigner>
            </identifier>
            <name>
               <family value="Ample"/>
               <given value="Ex"/>
               <prefix value="dr"/>
            </name>
            <address>
               <line value="Boulevard du Jardin Botanique 32"/>
               <city value="Brussels"/>
               <postalCode value="1000"/>
            </address>
         </Practitioner>
      </resource>
   </entry>
   <entry>
      <fullUrl value="urn:uuid:9f4b4896-a780-4f03-bb19-c5e1219c7aac"/>
      <resource>
         <Specimen>
            <id value="9f4b4896-a780-4f03-bb19-c5e1219c7aac"/>
            <meta>
               <profile value="http://hl7.eu/fhir/laboratory/StructureDefinition/Specimen-eu-lab"/>
            </meta>
            <status value="available"/>
            <type>
               <coding>
                  <system value="http://snomed.info/sct"/>
                  <code value="122552005"/>
                  <display value="Arterial blood specimen (specimen)"/>
               </coding>
            </type>
            <collection>
               <collectedDateTime value="2024-11-18"/>
            </collection>
         </Specimen>
      </resource>
   </entry>
   <entry>
      <fullUrl value="urn:uuid:bf1adb8f-2fd7-4289-8f82-057f8d7588db"/>
      <resource>
         <Specimen>
            <id value="bf1adb8f-2fd7-4289-8f82-057f8d7588db"/>
            <meta>
               <profile value="http://hl7.eu/fhir/laboratory/StructureDefinition/Specimen-eu-lab"/>
            </meta>
            <status value="available"/>
            <type>
               <coding>
                  <system value="http://snomed.info/sct"/>
                  <code value="258604001"/>
                  <display value="Upper respiratory specimen (specimen)"/>
               </coding>
            </type>
            <collection>
               <collectedDateTime value="2024-11-18"/>
            </collection>
         </Specimen>
      </resource>
   </entry>
   <entry>
      <fullUrl value="urn:uuid:56f9e7f1-ee5b-48f6-ab6e-b6c02e10caa5"/>
      <resource>
         <Specimen>
            <id value="56f9e7f1-ee5b-48f6-ab6e-b6c02e10caa5"/>
            <meta>
               <profile value="http://hl7.eu/fhir/laboratory/StructureDefinition/Specimen-eu-lab"/>
            </meta>
            <status value="available"/>
            <type>
               <coding>
                  <system value="http://snomed.info/sct"/>
                  <code value="258603007"/>
                  <display value="Respiratory specimen (specimen)"/>
               </coding>
            </type>
            <collection>
               <collectedDateTime value="2024-11-18"/>
            </collection>
         </Specimen>
      </resource>
   </entry>
   <entry>
      <fullUrl value="urn:uuid:470b431b-b5ec-44f4-ae75-08f753e4e232"/>
      <resource>
         <Observation>
            <id value="470b431b-b5ec-44f4-ae75-08f753e4e232"/>
            <meta>
               <profile value="http://hl7.eu/fhir/laboratory/StructureDefinition/Observation-resultslab-eu-lab"/>
            </meta>
            <status value="final"/>
            <category>
               <coding>
                  <system value="http://terminology.hl7.org/CodeSystem/observation-category"/>
                  <code value="laboratory"/>
               </coding>
            </category>
            <code>
               <coding>
                  <system value="http://loinc.org"/>
                  <code value="2708-6"/>
                  <display value="Oxygen saturation in Arterial blood"/>
               </coding>
               <text value="Oxygen saturation in Arterial blood"/>
            </code>
            <subject>
               <reference value="urn:uuid:d4b0e5fe-faf5-4cd6-a2f7-64218a33ac97"/>
            </subject>
            <effectiveDateTime value="2024-11-18"/>
            <performer>
               <display value="The Central European Lab"/>
            </performer>
            <valueQuantity>
               <value value="84"/>
               <unit value="%"/>
               <system value="http://unitsofmeasure.org"/>
               <code value="%"/>
            </valueQuantity>
            <interpretation>
               <coding>
                  <system value="http://terminology.hl7.org/CodeSystem/v3-ObservationInterpretation"/>
                  <code value="L"/>
                  <display value="Low"/>
               </coding>
            </interpretation>
            <specimen>
               <reference value="urn:uuid:9f4b4896-a780-4f03-bb19-c5e1219c7aac"/>
            </specimen>
            <referenceRange>
               <low>
                  <value value="95"/>
                  <system value="http://unitsofmeasure.org"/>
                  <code value="%"/>
               </low>
            </referenceRange>
            <referenceRange>
               <high>
                  <value value="100"/>
                  <system value="http://unitsofmeasure.org"/>
                  <code value="%"/>
               </high>
            </referenceRange>
         </Observation>
      </resource>
   </entry>
   <entry>
      <fullUrl value="urn:uuid:d7102b0d-96ab-43ba-b908-25e8ea2c80ad"/>
      <resource>
         <Observation>
            <id value="d7102b0d-96ab-43ba-b908-25e8ea2c80ad"/>
            <meta>
               <profile value="http://hl7.eu/fhir/laboratory/StructureDefinition/Observation-resultslab-eu-lab"/>
            </meta>
            <status value="final"/>
            <category>
               <coding>
                  <system value="http://terminology.hl7.org/CodeSystem/observation-category"/>
                  <code value="laboratory"/>
               </coding>
            </category>
            <code>
               <coding>
                  <system value="http://loinc.org"/>
                  <code value="80382-5"/>
                  <display value="Influenza virus A Ag [Presence] in Upper respiratory specimen by Rapid immunoassay"/>
               </coding>
               <text value="Influenza virus A Ag [Presence] in Upper respiratory specimen by Rapid immunoassay"/>
            </code>
            <subject>
               <reference value="urn:uuid:d4b0e5fe-faf5-4cd6-a2f7-64218a33ac97"/>
            </subject>
            <effectiveDateTime value="2024-11-18"/>
            <performer>
               <display value="The Central European Lab"/>
            </performer>
            <valueCodeableConcept>
               <coding>
                  <system value="http://snomed.info/sct"/>
                  <code value="260415000"/>
                  <display value="Not detected"/>
               </coding>
            </valueCodeableConcept>
            <specimen>
               <reference value="urn:uuid:bf1adb8f-2fd7-4289-8f82-057f8d7588db"/>
            </specimen>
         </Observation>
      </resource>
   </entry>
   <entry>
      <fullUrl value="urn:uuid:cd808e2a-9775-45a9-8d2e-284ab89725d3"/>
      <resource>
         <Observation>
            <id value="cd808e2a-9775-45a9-8d2e-284ab89725d3"/>
            <meta>
               <profile value="http://hl7.eu/fhir/laboratory/StructureDefinition/Observation-resultslab-eu-lab"/>
            </meta>
            <status value="final"/>
            <category>
               <coding>
                  <system value="http://terminology.hl7.org/CodeSystem/observation-category"/>
                  <code value="laboratory"/>
               </coding>
            </category>
            <code>
               <coding>
                  <system value="http://loinc.org"/>
                  <code value="80383-3"/>
                  <display value="Influenza virus B Ag [Presence] in Upper respiratory specimen by Rapid immunoassay"/>
               </coding>
               <text value="Influenza virus B Ag [Presence] in Upper respiratory specimen by Rapid immunoassay"/>
            </code>
            <subject>
               <reference value="urn:uuid:d4b0e5fe-faf5-4cd6-a2f7-64218a33ac97"/>
            </subject>
            <effectiveDateTime value="2024-11-18"/>
            <performer>
               <display value="The Central European Lab"/>
            </performer>
            <valueCodeableConcept>
               <coding>
                  <system value="http://snomed.info/sct"/>
                  <code value="260415000"/>
                  <display value="Not detected"/>
               </coding>
            </valueCodeableConcept>
            <specimen>
               <reference value="urn:uuid:bf1adb8f-2fd7-4289-8f82-057f8d7588db"/>
            </specimen>
         </Observation>
      </resource>
   </entry>
   <entry>
      <fullUrl value="urn:uuid:f1df0f84-0de2-481b-805f-9d4bbd2b6292"/>
      <resource>
         <Observation>
            <id value="f1df0f84-0de2-481b-805f-9d4bbd2b6292"/>
            <meta>
               <profile value="http://hl7.eu/fhir/laboratory/StructureDefinition/Observation-resultslab-eu-lab"/>
            </meta>
            <status value="final"/>
            <category>
               <coding>
                  <system value="http://terminology.hl7.org/CodeSystem/observation-category"/>
                  <code value="laboratory"/>
               </coding>
            </category>
            <code>
               <coding>
                  <system value="http://loinc.org"/>
                  <code value="94531-1"/>
                  <display value="SARS-CoV-2 (COVID-19) RNA panel - Respiratory system specimen by NAA with probe detection"/>
               </coding>
               <text value="SARS-CoV-2 (COVID-19) RNA panel - Respiratory system specimen by NAA with probe detection"/>
            </code>
            <subject>
               <reference value="urn:uuid:d4b0e5fe-faf5-4cd6-a2f7-64218a33ac97"/>
            </subject>
            <effectiveDateTime value="2024-11-18"/>
            <performer>
               <display value="The Central European Lab"/>
            </performer>
            <valueCodeableConcept>
               <coding>
                  <system value="http://snomed.info/sct"/>
                  <code value="260415000"/>
                  <display value="Not detected"/>
               </coding>
            </valueCodeableConcept>
            <specimen>
               <reference value="urn:uuid:56f9e7f1-ee5b-48f6-ab6e-b6c02e10caa5"/>
            </specimen>
         </Observation>
      </resource>
   </entry>
</Bundle>
