{
  "resourceType": "Bundle",
  "id": "Instance-Bundle-b5010e36-c8b7-4445-b6ac-5fd3b33dad1b",
  "meta": {
    "profile": [
      "http://hl7.eu/fhir/laboratory/StructureDefinition/Bundle-eu-lab"
    ]
  },
  "identifier": {
    "assigner": {
      "display": "HL7 Europe"
    },
    "system": "urn:oid:2.16.840.1.113883.2.51.999",
    "value": "e03e4cc6-f546-481d-b6c1-2667c205203f"
  },
  "entry": [
    {
      "fullUrl": "urn:uuid:5631f86d-96bd-4c10-b2a5-5625ebbb72cf",
      "resource": {
        "resourceType": "Composition",
        "id": "5631f86d-96bd-4c10-b2a5-5625ebbb72cf",
        "meta": {
          "profile": [
            "http://hl7.eu/fhir/laboratory/StructureDefinition/Composition-eu-lab"
          ]
        },
        "identifier": {
          "assigner": {
            "display": "HL7 Europe"
          },
          "system": "urn:oid:2.16.840.1.113883.2.51.999",
          "value": "74faec23-b5f6-4676-9490-c4372bafad17"
        },
        "author": [
          {
            "reference": "urn:uuid:c795a9a4-2f73-4718-b374-4e6c47d50665"
          }
        ],
        "category": [
          {
            "coding": [
              {
                "code": "26436-6",
                "system": "http://loinc.org",
                "display": "Laboratory studies (set)"
              }
            ]
          }
        ],
        "type": {
          "text": "Laboratory Report"
        },
        "section": [
          {
            "code": {
              "coding": [
                {
                  "code": "26436-6",
                  "system": "http://loinc.org",
                  "display": "Laboratory studies (set)"
                }
              ],
              "text": "Laboratory studies"
            },
            "section": [
              {
                "code": {
                  "coding": [
                    {
                      "code": "18719-5",
                      "system": "http://loinc.org",
                      "display": "Chemistry studies (set)"
                    }
                  ],
                  "text": "Chemistry"
                },
                "entry": [
                  {
                    "reference": "urn:uuid:b96e7bb8-4ef1-48af-9686-3027c1ed4dd1"
                  },
                  {
                    "reference": "urn:uuid:31c99a33-e3f2-4de6-917d-c6c3c813f99e"
                  },
                  {
                    "reference": "urn:uuid:1d99bc75-916c-471a-9c1a-a46178f12044"
                  },
                  {
                    "reference": "urn:uuid:c690be90-962b-40e7-a252-49cfa7226aba"
                  },
                  {
                    "reference": "urn:uuid:65eac519-a27b-46e3-954a-7295a8de1b84"
                  },
                  {
                    "reference": "urn:uuid:7e3b0bd2-a26a-4ef9-82be-3e7a2f44f781"
                  },
                  {
                    "reference": "urn:uuid:5a13fee6-4cfb-4eb5-a6a2-68dc4b5ce2cf"
                  },
                  {
                    "reference": "urn:uuid:52d3a4bf-da9c-4fd5-b33e-90350b28ef9d"
                  },
                  {
                    "reference": "urn:uuid:3555735a-c10f-421d-8d11-3fdcab8ce3b7"
                  }
                ],
                "text": {
                  "status": "generated",
                  "div": "<div xmlns=\"http://www.w3.org/1999/xhtml\"><h3 id=\"section-1\">Chemistry</h3><table class=\"hl7__eu__lab__report\"><thead><tr><th>Test</th><th>18 Nov 2024</th><th>Reference Range</th><th>Unit</th></tr></thead><tbody><tr><td>Glucose [Mass/volume] in Blood</td><td>95.6</td><td>70 - 140</td><td>mg/dL</td></tr><tr><td>Urea nitrogen [Mass/volume] in Blood</td><td>19.1</td><td>7 - 50</td><td>mg/dL</td></tr><tr><td>Creatinine [Mass/volume] in Blood</td><td>0.9</td><td>0.6 - 1.1</td><td>mg/dL</td></tr><tr><td>Calcium [Mass/volume] in Blood</td><td>9.2</td><td>8.5 - 10.4</td><td>mg/dL</td></tr><tr><td>Sodium [Moles/volume] in Blood</td><td>138.9</td><td>135 - 145</td><td>mmol/L</td></tr><tr><td>Potassium [Moles/volume] in Blood</td><td>3.7</td><td>3.5 - 5.1</td><td>mmol/L</td></tr><tr><td>Chloride [Moles/volume] in Blood</td><td>107.6</td><td>98 - 110</td><td>mmol/L</td></tr><tr><td>Carbon dioxide, total [Moles/volume] in Blood</td><td>27.0</td><td>22 - 29</td><td>mmol/L</td></tr><tr><td>Hemoglobin A1c/Hemoglobin.total in Blood</td><td><strong>5.8 H</strong></td><td>4.8 - 5.7</td><td>%</td></tr></tbody></table></div>"
                },
                "title": "Chemistry"
              }
            ],
            "title": "Laboratory Report"
          }
        ],
        "status": "final",
        "subject": {
          "reference": "urn:uuid:a73bda0b-c184-4804-a948-2b4a6064593f"
        },
        "date": "2024-11-19T18:36:36Z",
        "title": "Laboratory Report",
        "confidentiality": "N"
      }
    },
    {
      "fullUrl": "urn:uuid:1d22f9f8-a7f5-47da-9ec3-07d8e5dee8e4",
      "resource": {
        "resourceType": "DiagnosticReport",
        "id": "1d22f9f8-a7f5-47da-9ec3-07d8e5dee8e4",
        "meta": {
          "profile": [
            "http://hl7.eu/fhir/laboratory/StructureDefinition/DiagnosticReport-eu-lab"
          ]
        },
        "identifier": [
          {
            "assigner": {
              "display": "HL7 Europe"
            },
            "system": "urn:oid:2.16.840.1.113883.2.51.999",
            "value": "3ac41468-faf6-439e-addb-16e6262f30b3"
          }
        ],
        "extension": [
          {
            "url": "http://hl7.org/fhir/5.0/StructureDefinition/extension-DiagnosticReport.composition",
            "valueReference": {
              "reference": "urn:uuid:5631f86d-96bd-4c10-b2a5-5625ebbb72cf"
            }
          }
        ],
        "category": [
          {
            "coding": [
              {
                "code": "18719-5",
                "system": "http://loinc.org",
                "display": "Chemistry studies (set)"
              }
            ]
          }
        ],
        "specimen": [
          {
            "reference": "urn:uuid:6787aee8-ca9c-40b9-8b31-4eaaa9421210"
          }
        ],
        "result": [
          {
            "reference": "urn:uuid:b96e7bb8-4ef1-48af-9686-3027c1ed4dd1"
          },
          {
            "reference": "urn:uuid:31c99a33-e3f2-4de6-917d-c6c3c813f99e"
          },
          {
            "reference": "urn:uuid:1d99bc75-916c-471a-9c1a-a46178f12044"
          },
          {
            "reference": "urn:uuid:c690be90-962b-40e7-a252-49cfa7226aba"
          },
          {
            "reference": "urn:uuid:65eac519-a27b-46e3-954a-7295a8de1b84"
          },
          {
            "reference": "urn:uuid:7e3b0bd2-a26a-4ef9-82be-3e7a2f44f781"
          },
          {
            "reference": "urn:uuid:5a13fee6-4cfb-4eb5-a6a2-68dc4b5ce2cf"
          },
          {
            "reference": "urn:uuid:52d3a4bf-da9c-4fd5-b33e-90350b28ef9d"
          },
          {
            "reference": "urn:uuid:3555735a-c10f-421d-8d11-3fdcab8ce3b7"
          }
        ],
        "status": "registered",
        "code": {
          "coding": [
            {
              "code": "11502-2",
              "system": "http://loinc.org",
              "display": "Laboratory report"
            }
          ]
        },
        "subject": {
          "reference": "urn:uuid:a73bda0b-c184-4804-a948-2b4a6064593f"
        }
      }
    },
    {
      "fullUrl": "urn:uuid:a73bda0b-c184-4804-a948-2b4a6064593f",
      "resource": {
        "resourceType": "Patient",
        "id": "a73bda0b-c184-4804-a948-2b4a6064593f",
        "meta": {
          "profile": [
            "http://hl7.eu/fhir/laboratory/StructureDefinition/Patient-eu-lab"
          ]
        },
        "identifier": [
          {
            "type": {
              "coding": [
                {
                  "code": "NI",
                  "system": "http://terminology.hl7.org/CodeSystem/v2-0203"
                }
              ]
            },
            "system": "http://ec.europa.eu/identifier/eci",
            "value": "6105-310961-9"
          },
          {
            "type": {
              "coding": [
                {
                  "code": "MR",
                  "system": "http://terminology.hl7.org/CodeSystem/v2-0203"
                }
              ]
            },
            "system": "http://local.setting.eu/identifier",
            "value": "5dbb9878-34c2-49d0-90e2-51497848e815"
          }
        ],
        "name": [
          {
            "given": [
              "Eliane"
            ],
            "family": "van Capelleveen",
            "text": "Eliane van Capelleveen"
          }
        ],
        "address": [
          {
            "line": [
              "Rue des Tanneurs 364"
            ],
            "use": "home",
            "type": "physical",
            "city": "Pessoux",
            "postalCode": "5590",
            "country": "Belgium"
          }
        ],
        "telecom": [
          {
            "system": "phone",
            "value": "+32 0475 68 74 66"
          }
        ],
        "gender": "female",
        "birthDate": "1969-02-25"
      }
    },
    {
      "fullUrl": "urn:uuid:8e40fe05-3b00-46e1-8d01-f86c505fd992",
      "resource": {
        "resourceType": "ServiceRequest",
        "id": "8e40fe05-3b00-46e1-8d01-f86c505fd992",
        "meta": {
          "profile": [
            "http://hl7.eu/fhir/laboratory/StructureDefinition/ServiceRequest-eu-lab"
          ]
        },
        "identifier": [
          {
            "system": "http://example.org",
            "value": "c88c8a0a-fc17-48e8-80fa-d0f1c7dc85ad"
          }
        ],
        "specimen": [
          {
            "reference": "urn:uuid:6787aee8-ca9c-40b9-8b31-4eaaa9421210"
          }
        ],
        "status": "active",
        "intent": "order",
        "code": {
          "coding": [
            {
              "code": "108252007",
              "system": "http://snomed.info/sct",
              "display": "Laboratory procedure"
            }
          ]
        },
        "subject": {
          "reference": "urn:uuid:a73bda0b-c184-4804-a948-2b4a6064593f"
        },
        "requester": {
          "reference": "urn:uuid:db3de873-e263-4d21-985d-b09433d581f9"
        }
      }
    },
    {
      "fullUrl": "urn:uuid:db3de873-e263-4d21-985d-b09433d581f9",
      "resource": {
        "resourceType": "PractitionerRole",
        "id": "db3de873-e263-4d21-985d-b09433d581f9",
        "meta": {
          "profile": [
            "http://hl7.eu/fhir/laboratory/StructureDefinition/PractitionerRole-eu-lab"
          ]
        },
        "organization": {
          "reference": "urn:uuid:4d987f19-cdef-4fd6-a5f4-9597347b262a"
        }
      }
    },
    {
      "fullUrl": "urn:uuid:4d987f19-cdef-4fd6-a5f4-9597347b262a",
      "resource": {
        "resourceType": "Organization",
        "id": "4d987f19-cdef-4fd6-a5f4-9597347b262a",
        "meta": {
          "profile": [
            "http://hl7.org/fhir/uv/ips/StructureDefinition/Organization-uv-ips"
          ]
        },
        "identifier": [
          {
            "assigner": {
              "display": "HL7 Europe"
            },
            "system": "urn:oid:2.16.840.1.113883.2.51.999",
            "value": "8dffeba5-5335-43a5-8576-117de9cc6b44"
          }
        ],
        "address": [
          {
            "line": [
              "Rue de Néringotte 26A"
            ],
            "city": "Ciney",
            "postalCode": "5590",
            "country": "be"
          }
        ],
        "name": "Franck Bronckart"
      }
    },
    {
      "fullUrl": "urn:uuid:c795a9a4-2f73-4718-b374-4e6c47d50665",
      "resource": {
        "resourceType": "PractitionerRole",
        "id": "c795a9a4-2f73-4718-b374-4e6c47d50665",
        "meta": {
          "profile": [
            "http://hl7.eu/fhir/laboratory/StructureDefinition/PractitionerRole-eu-lab"
          ]
        },
        "practitioner": {
          "reference": "urn:uuid:f809c70e-3f6b-42d6-b70c-d1718b354d85"
        }
      }
    },
    {
      "fullUrl": "urn:uuid:f809c70e-3f6b-42d6-b70c-d1718b354d85",
      "resource": {
        "resourceType": "Practitioner",
        "id": "f809c70e-3f6b-42d6-b70c-d1718b354d85",
        "meta": {
          "profile": [
            "http://hl7.eu/fhir/laboratory/StructureDefinition/Practitioner-eu-lab"
          ]
        },
        "identifier": [
          {
            "assigner": {
              "display": "HL7 Europe"
            },
            "system": "urn:oid:2.16.840.1.113883.2.51.999",
            "value": "84b7ae82-7499-4ef0-934c-6d2483f59330"
          }
        ],
        "name": [
          {
            "prefix": [
              "dr"
            ],
            "given": [
              "Ex"
            ],
            "family": "Ample"
          }
        ],
        "address": [
          {
            "line": [
              "Boulevard du Jardin Botanique 32"
            ],
            "city": "Brussels",
            "postalCode": "1000"
          }
        ]
      }
    },
    {
      "fullUrl": "urn:uuid:6787aee8-ca9c-40b9-8b31-4eaaa9421210",
      "resource": {
        "resourceType": "Specimen",
        "id": "6787aee8-ca9c-40b9-8b31-4eaaa9421210",
        "meta": {
          "profile": [
            "http://hl7.eu/fhir/laboratory/StructureDefinition/Specimen-eu-lab"
          ]
        },
        "collection": {
          "collectedDateTime": "2024-11-18"
        },
        "status": "available",
        "type": {
          "coding": [
            {
              "code": "258580003",
              "system": "http://snomed.info/sct",
              "display": "Whole blood specimen (specimen)"
            }
          ]
        }
      }
    },
    {
      "fullUrl": "urn:uuid:b96e7bb8-4ef1-48af-9686-3027c1ed4dd1",
      "resource": {
        "resourceType": "Observation",
        "id": "b96e7bb8-4ef1-48af-9686-3027c1ed4dd1",
        "meta": {
          "profile": [
            "http://hl7.eu/fhir/laboratory/StructureDefinition/Observation-resultslab-eu-lab"
          ]
        },
        "performer": [
          {
            "display": "The Central European Lab"
          }
        ],
        "category": [
          {
            "coding": [
              {
                "code": "laboratory",
                "system": "http://terminology.hl7.org/CodeSystem/observation-category"
              }
            ]
          }
        ],
        "code": {
          "coding": [
            {
              "code": "2339-0",
              "system": "http://loinc.org",
              "display": "Glucose [Mass/volume] in Blood"
            }
          ],
          "text": "Glucose [Mass/volume] in Blood"
        },
        "valueQuantity": {
          "system": "http://unitsofmeasure.org",
          "value": 95.6,
          "unit": "mg/dL",
          "code": "mg/dL"
        },
        "referenceRange": [
          {
            "low": {
              "value": 70,
              "code": "mg/dL",
              "system": "http://unitsofmeasure.org"
            }
          },
          {
            "high": {
              "value": 140,
              "code": "mg/dL",
              "system": "http://unitsofmeasure.org"
            }
          }
        ],
        "status": "final",
        "subject": {
          "reference": "urn:uuid:a73bda0b-c184-4804-a948-2b4a6064593f"
        },
        "effectiveDateTime": "2024-11-18",
        "specimen": {
          "reference": "urn:uuid:6787aee8-ca9c-40b9-8b31-4eaaa9421210"
        }
      }
    },
    {
      "fullUrl": "urn:uuid:31c99a33-e3f2-4de6-917d-c6c3c813f99e",
      "resource": {
        "resourceType": "Observation",
        "id": "31c99a33-e3f2-4de6-917d-c6c3c813f99e",
        "meta": {
          "profile": [
            "http://hl7.eu/fhir/laboratory/StructureDefinition/Observation-resultslab-eu-lab"
          ]
        },
        "performer": [
          {
            "display": "The Central European Lab"
          }
        ],
        "category": [
          {
            "coding": [
              {
                "code": "laboratory",
                "system": "http://terminology.hl7.org/CodeSystem/observation-category"
              }
            ]
          }
        ],
        "code": {
          "coding": [
            {
              "code": "6299-2",
              "system": "http://loinc.org",
              "display": "Urea nitrogen [Mass/volume] in Blood"
            }
          ],
          "text": "Urea nitrogen [Mass/volume] in Blood"
        },
        "valueQuantity": {
          "system": "http://unitsofmeasure.org",
          "value": 19.1,
          "unit": "mg/dL",
          "code": "mg/dL"
        },
        "referenceRange": [
          {
            "low": {
              "value": 7,
              "code": "mg/dL",
              "system": "http://unitsofmeasure.org"
            }
          },
          {
            "high": {
              "value": 50,
              "code": "mg/dL",
              "system": "http://unitsofmeasure.org"
            }
          }
        ],
        "status": "final",
        "subject": {
          "reference": "urn:uuid:a73bda0b-c184-4804-a948-2b4a6064593f"
        },
        "effectiveDateTime": "2024-11-18",
        "specimen": {
          "reference": "urn:uuid:6787aee8-ca9c-40b9-8b31-4eaaa9421210"
        }
      }
    },
    {
      "fullUrl": "urn:uuid:1d99bc75-916c-471a-9c1a-a46178f12044",
      "resource": {
        "resourceType": "Observation",
        "id": "1d99bc75-916c-471a-9c1a-a46178f12044",
        "meta": {
          "profile": [
            "http://hl7.eu/fhir/laboratory/StructureDefinition/Observation-resultslab-eu-lab"
          ]
        },
        "performer": [
          {
            "display": "The Central European Lab"
          }
        ],
        "category": [
          {
            "coding": [
              {
                "code": "laboratory",
                "system": "http://terminology.hl7.org/CodeSystem/observation-category"
              }
            ]
          }
        ],
        "code": {
          "coding": [
            {
              "code": "38483-4",
              "system": "http://loinc.org",
              "display": "Creatinine [Mass/volume] in Blood"
            }
          ],
          "text": "Creatinine [Mass/volume] in Blood"
        },
        "valueQuantity": {
          "system": "http://unitsofmeasure.org",
          "value": 0.9,
          "unit": "mg/dL",
          "code": "mg/dL"
        },
        "referenceRange": [
          {
            "low": {
              "value": 0.6,
              "code": "mg/dL",
              "system": "http://unitsofmeasure.org"
            }
          },
          {
            "high": {
              "value": 1.1,
              "code": "mg/dL",
              "system": "http://unitsofmeasure.org"
            }
          }
        ],
        "status": "final",
        "subject": {
          "reference": "urn:uuid:a73bda0b-c184-4804-a948-2b4a6064593f"
        },
        "effectiveDateTime": "2024-11-18",
        "specimen": {
          "reference": "urn:uuid:6787aee8-ca9c-40b9-8b31-4eaaa9421210"
        }
      }
    },
    {
      "fullUrl": "urn:uuid:c690be90-962b-40e7-a252-49cfa7226aba",
      "resource": {
        "resourceType": "Observation",
        "id": "c690be90-962b-40e7-a252-49cfa7226aba",
        "meta": {
          "profile": [
            "http://hl7.eu/fhir/laboratory/StructureDefinition/Observation-resultslab-eu-lab"
          ]
        },
        "performer": [
          {
            "display": "The Central European Lab"
          }
        ],
        "category": [
          {
            "coding": [
              {
                "code": "laboratory",
                "system": "http://terminology.hl7.org/CodeSystem/observation-category"
              }
            ]
          }
        ],
        "code": {
          "coding": [
            {
              "code": "49765-1",
              "system": "http://loinc.org",
              "display": "Calcium [Mass/volume] in Blood"
            }
          ],
          "text": "Calcium [Mass/volume] in Blood"
        },
        "valueQuantity": {
          "system": "http://unitsofmeasure.org",
          "value": 9.2,
          "unit": "mg/dL",
          "code": "mg/dL"
        },
        "referenceRange": [
          {
            "low": {
              "value": 8.5,
              "code": "mg/dL",
              "system": "http://unitsofmeasure.org"
            }
          },
          {
            "high": {
              "value": 10.4,
              "code": "mg/dL",
              "system": "http://unitsofmeasure.org"
            }
          }
        ],
        "status": "final",
        "subject": {
          "reference": "urn:uuid:a73bda0b-c184-4804-a948-2b4a6064593f"
        },
        "effectiveDateTime": "2024-11-18",
        "specimen": {
          "reference": "urn:uuid:6787aee8-ca9c-40b9-8b31-4eaaa9421210"
        }
      }
    },
    {
      "fullUrl": "urn:uuid:65eac519-a27b-46e3-954a-7295a8de1b84",
      "resource": {
        "resourceType": "Observation",
        "id": "65eac519-a27b-46e3-954a-7295a8de1b84",
        "meta": {
          "profile": [
            "http://hl7.eu/fhir/laboratory/StructureDefinition/Observation-resultslab-eu-lab"
          ]
        },
        "performer": [
          {
            "display": "The Central European Lab"
          }
        ],
        "category": [
          {
            "coding": [
              {
                "code": "laboratory",
                "system": "http://terminology.hl7.org/CodeSystem/observation-category"
              }
            ]
          }
        ],
        "code": {
          "coding": [
            {
              "code": "2947-0",
              "system": "http://loinc.org",
              "display": "Sodium [Moles/volume] in Blood"
            }
          ],
          "text": "Sodium [Moles/volume] in Blood"
        },
        "valueQuantity": {
          "system": "http://unitsofmeasure.org",
          "value": 138.9,
          "unit": "mmol/L",
          "code": "mmol/L"
        },
        "referenceRange": [
          {
            "low": {
              "value": 135,
              "code": "mmol/L",
              "system": "http://unitsofmeasure.org"
            }
          },
          {
            "high": {
              "value": 145,
              "code": "mmol/L",
              "system": "http://unitsofmeasure.org"
            }
          }
        ],
        "status": "final",
        "subject": {
          "reference": "urn:uuid:a73bda0b-c184-4804-a948-2b4a6064593f"
        },
        "effectiveDateTime": "2024-11-18",
        "specimen": {
          "reference": "urn:uuid:6787aee8-ca9c-40b9-8b31-4eaaa9421210"
        }
      }
    },
    {
      "fullUrl": "urn:uuid:7e3b0bd2-a26a-4ef9-82be-3e7a2f44f781",
      "resource": {
        "resourceType": "Observation",
        "id": "7e3b0bd2-a26a-4ef9-82be-3e7a2f44f781",
        "meta": {
          "profile": [
            "http://hl7.eu/fhir/laboratory/StructureDefinition/Observation-resultslab-eu-lab"
          ]
        },
        "performer": [
          {
            "display": "The Central European Lab"
          }
        ],
        "category": [
          {
            "coding": [
              {
                "code": "laboratory",
                "system": "http://terminology.hl7.org/CodeSystem/observation-category"
              }
            ]
          }
        ],
        "code": {
          "coding": [
            {
              "code": "6298-4",
              "system": "http://loinc.org",
              "display": "Potassium [Moles/volume] in Blood"
            }
          ],
          "text": "Potassium [Moles/volume] in Blood"
        },
        "valueQuantity": {
          "system": "http://unitsofmeasure.org",
          "value": 3.7,
          "unit": "mmol/L",
          "code": "mmol/L"
        },
        "referenceRange": [
          {
            "low": {
              "value": 3.5,
              "code": "mmol/L",
              "system": "http://unitsofmeasure.org"
            }
          },
          {
            "high": {
              "value": 5.1,
              "code": "mmol/L",
              "system": "http://unitsofmeasure.org"
            }
          }
        ],
        "status": "final",
        "subject": {
          "reference": "urn:uuid:a73bda0b-c184-4804-a948-2b4a6064593f"
        },
        "effectiveDateTime": "2024-11-18",
        "specimen": {
          "reference": "urn:uuid:6787aee8-ca9c-40b9-8b31-4eaaa9421210"
        }
      }
    },
    {
      "fullUrl": "urn:uuid:5a13fee6-4cfb-4eb5-a6a2-68dc4b5ce2cf",
      "resource": {
        "resourceType": "Observation",
        "id": "5a13fee6-4cfb-4eb5-a6a2-68dc4b5ce2cf",
        "meta": {
          "profile": [
            "http://hl7.eu/fhir/laboratory/StructureDefinition/Observation-resultslab-eu-lab"
          ]
        },
        "performer": [
          {
            "display": "The Central European Lab"
          }
        ],
        "category": [
          {
            "coding": [
              {
                "code": "laboratory",
                "system": "http://terminology.hl7.org/CodeSystem/observation-category"
              }
            ]
          }
        ],
        "code": {
          "coding": [
            {
              "code": "2069-3",
              "system": "http://loinc.org",
              "display": "Chloride [Moles/volume] in Blood"
            }
          ],
          "text": "Chloride [Moles/volume] in Blood"
        },
        "valueQuantity": {
          "system": "http://unitsofmeasure.org",
          "value": 107.6,
          "unit": "mmol/L",
          "code": "mmol/L"
        },
        "referenceRange": [
          {
            "low": {
              "value": 98,
              "code": "mmol/L",
              "system": "http://unitsofmeasure.org"
            }
          },
          {
            "high": {
              "value": 110,
              "code": "mmol/L",
              "system": "http://unitsofmeasure.org"
            }
          }
        ],
        "status": "final",
        "subject": {
          "reference": "urn:uuid:a73bda0b-c184-4804-a948-2b4a6064593f"
        },
        "effectiveDateTime": "2024-11-18",
        "specimen": {
          "reference": "urn:uuid:6787aee8-ca9c-40b9-8b31-4eaaa9421210"
        }
      }
    },
    {
      "fullUrl": "urn:uuid:52d3a4bf-da9c-4fd5-b33e-90350b28ef9d",
      "resource": {
        "resourceType": "Observation",
        "id": "52d3a4bf-da9c-4fd5-b33e-90350b28ef9d",
        "meta": {
          "profile": [
            "http://hl7.eu/fhir/laboratory/StructureDefinition/Observation-resultslab-eu-lab"
          ]
        },
        "performer": [
          {
            "display": "The Central European Lab"
          }
        ],
        "category": [
          {
            "coding": [
              {
                "code": "laboratory",
                "system": "http://terminology.hl7.org/CodeSystem/observation-category"
              }
            ]
          }
        ],
        "code": {
          "coding": [
            {
              "code": "20565-8",
              "system": "http://loinc.org",
              "display": "Carbon dioxide, total [Moles/volume] in Blood"
            }
          ],
          "text": "Carbon dioxide, total [Moles/volume] in Blood"
        },
        "valueQuantity": {
          "system": "http://unitsofmeasure.org",
          "value": 27,
          "unit": "mmol/L",
          "code": "mmol/L"
        },
        "referenceRange": [
          {
            "low": {
              "value": 22,
              "code": "mmol/L",
              "system": "http://unitsofmeasure.org"
            }
          },
          {
            "high": {
              "value": 29,
              "code": "mmol/L",
              "system": "http://unitsofmeasure.org"
            }
          }
        ],
        "status": "final",
        "subject": {
          "reference": "urn:uuid:a73bda0b-c184-4804-a948-2b4a6064593f"
        },
        "effectiveDateTime": "2024-11-18",
        "specimen": {
          "reference": "urn:uuid:6787aee8-ca9c-40b9-8b31-4eaaa9421210"
        }
      }
    },
    {
      "fullUrl": "urn:uuid:3555735a-c10f-421d-8d11-3fdcab8ce3b7",
      "resource": {
        "resourceType": "Observation",
        "id": "3555735a-c10f-421d-8d11-3fdcab8ce3b7",
        "meta": {
          "profile": [
            "http://hl7.eu/fhir/laboratory/StructureDefinition/Observation-resultslab-eu-lab"
          ]
        },
        "performer": [
          {
            "display": "The Central European Lab"
          }
        ],
        "category": [
          {
            "coding": [
              {
                "code": "laboratory",
                "system": "http://terminology.hl7.org/CodeSystem/observation-category"
              }
            ]
          }
        ],
        "code": {
          "coding": [
            {
              "code": "4548-4",
              "system": "http://loinc.org",
              "display": "Hemoglobin A1c/Hemoglobin.total in Blood"
            }
          ],
          "text": "Hemoglobin A1c/Hemoglobin.total in Blood"
        },
        "valueQuantity": {
          "system": "http://unitsofmeasure.org",
          "value": 5.8,
          "unit": "%",
          "code": "%"
        },
        "referenceRange": [
          {
            "low": {
              "value": 4.8,
              "code": "%",
              "system": "http://unitsofmeasure.org"
            }
          },
          {
            "high": {
              "value": 5.7,
              "code": "%",
              "system": "http://unitsofmeasure.org"
            }
          }
        ],
        "interpretation": [
          {
            "coding": [
              {
                "code": "H",
                "system": "http://terminology.hl7.org/CodeSystem/v3-ObservationInterpretation",
                "display": "High"
              }
            ]
          }
        ],
        "status": "final",
        "subject": {
          "reference": "urn:uuid:a73bda0b-c184-4804-a948-2b4a6064593f"
        },
        "effectiveDateTime": "2024-11-18",
        "specimen": {
          "reference": "urn:uuid:6787aee8-ca9c-40b9-8b31-4eaaa9421210"
        }
      }
    }
  ],
  "type": "document",
  "timestamp": "2024-11-19T18:36:36Z"
}
