{
  "resourceType": "Bundle",
  "id": "Instance-Bundle-cea50d4c-e37d-4424-817c-41acda566fa5",
  "meta": {
    "profile": [
      "http://hl7.eu/fhir/laboratory/StructureDefinition/Bundle-eu-lab"
    ]
  },
  "identifier": {
    "assigner": {
      "display": "HL7 Europe"
    },
    "system": "urn:oid:2.16.840.1.113883.2.51.999",
    "value": "d8a98459-41e6-4108-bb59-098a00784e77"
  },
  "entry": [
    {
      "fullUrl": "urn:uuid:73d55a44-5c08-4370-9ec9-385c504f13e6",
      "resource": {
        "resourceType": "Composition",
        "id": "73d55a44-5c08-4370-9ec9-385c504f13e6",
        "meta": {
          "profile": [
            "http://hl7.eu/fhir/laboratory/StructureDefinition/Composition-eu-lab"
          ]
        },
        "identifier": {
          "assigner": {
            "display": "HL7 Europe"
          },
          "system": "urn:oid:2.16.840.1.113883.2.51.999",
          "value": "d29af7f2-e14e-4e67-9745-18f0f72597cf"
        },
        "author": [
          {
            "reference": "urn:uuid:ddbab04a-0409-4481-9e0f-a2a8365c1823"
          }
        ],
        "category": [
          {
            "coding": [
              {
                "code": "26436-6",
                "system": "http://loinc.org",
                "display": "Laboratory studies (set)"
              }
            ]
          }
        ],
        "type": {
          "text": "Laboratory Report"
        },
        "section": [
          {
            "code": {
              "coding": [
                {
                  "code": "26436-6",
                  "system": "http://loinc.org",
                  "display": "Laboratory studies (set)"
                }
              ],
              "text": "Laboratory studies"
            },
            "section": [
              {
                "code": {
                  "coding": [
                    {
                      "code": "18723-7",
                      "system": "http://loinc.org",
                      "display": "Hematology studies (set)"
                    }
                  ],
                  "text": "Hematology"
                },
                "entry": [
                  {
                    "reference": "urn:uuid:838b9f9c-2078-4d50-85e6-ed1cad888332"
                  },
                  {
                    "reference": "urn:uuid:61e7d96b-8fcd-4a36-94e6-9b621776e840"
                  },
                  {
                    "reference": "urn:uuid:6ded89df-57ca-4d2e-bf2d-71175771fb84"
                  },
                  {
                    "reference": "urn:uuid:b34fe472-8f6a-4b36-8d02-db81248023d3"
                  },
                  {
                    "reference": "urn:uuid:019fef43-8cad-47dc-83cd-f420f9e900bf"
                  },
                  {
                    "reference": "urn:uuid:2f1ccc8d-6d1d-4670-926d-a18755c1a177"
                  },
                  {
                    "reference": "urn:uuid:3eeda493-332a-4a3e-a953-924426f5f461"
                  },
                  {
                    "reference": "urn:uuid:ae53937f-7bd5-48a1-96a5-bd24223d4489"
                  },
                  {
                    "reference": "urn:uuid:92a6bf91-1bd6-450b-a583-5f4d1a4f1fc0"
                  },
                  {
                    "reference": "urn:uuid:cfef3199-c27e-4ba0-a3b2-474d7e53c748"
                  },
                  {
                    "reference": "urn:uuid:c602dfcc-7038-4861-bb0f-c2cbb3318c46"
                  },
                  {
                    "reference": "urn:uuid:0905a732-81fb-4cec-8e7f-252060de7a79"
                  },
                  {
                    "reference": "urn:uuid:ac42b2ee-2c06-4372-960b-200b804c7fce"
                  },
                  {
                    "reference": "urn:uuid:0d546569-5765-4882-ad2d-58057597afa4"
                  },
                  {
                    "reference": "urn:uuid:e93ba20e-5ca1-447b-8f41-aad38bdef05d"
                  },
                  {
                    "reference": "urn:uuid:277c23c3-4d51-48e6-8476-ec72c4f89890"
                  },
                  {
                    "reference": "urn:uuid:cacf0c28-0d6f-41be-9ea4-9a358cee2c0b"
                  },
                  {
                    "reference": "urn:uuid:c3ddd102-057c-431a-89f9-0734126eef92"
                  },
                  {
                    "reference": "urn:uuid:baf667c9-782a-4977-9189-dbc894539d56"
                  }
                ],
                "text": {
                  "status": "generated",
                  "div": "<div xmlns=\"http://www.w3.org/1999/xhtml\"><h3 id=\"section-1\">Hematology</h3><table class=\"hl7__eu__lab__report\"><thead><tr><th>Test</th><th>18 Nov 2024</th><th>Reference Range</th><th>Unit</th></tr></thead><tbody><tr><td>Leukocytes [#/volume] in Blood by Automated count</td><td><strong>3.1 L</strong></td><td>3.4 - 10.6</td><td>10*3/uL</td></tr><tr><td>Erythrocytes [#/volume] in Blood by Automated count</td><td><strong>4.2 L</strong></td><td>4.5 - 5.7</td><td>10*6/uL</td></tr><tr><td>Hemoglobin [Mass/volume] in Blood</td><td><strong>11.2 L</strong></td><td>13.5 - 17.5</td><td>g/dL</td></tr><tr><td>Hematocrit [Volume Fraction] of Blood by Automated count</td><td>45.5</td><td>37 - 52</td><td>%</td></tr><tr><td>MCV [Entitic volume] by Automated count</td><td>96.6</td><td>82 - 98</td><td>fL</td></tr><tr><td>MCH [Entitic mass] by Automated count</td><td>27.1</td><td>27 - 33</td><td>pg</td></tr><tr><td>MCHC [Mass/volume] by Automated count</td><td>32.3</td><td>31 - 36</td><td>g/dL</td></tr><tr><td>Erythrocyte distribution width [Ratio] by Automated count</td><td>14.0</td><td>11.5 - 16</td><td>%</td></tr><tr><td>Platelets [#/volume] in Blood by Automated count</td><td><strong>137.3 L</strong></td><td>150 - 317</td><td>10*3/uL</td></tr><tr><td>Neutrophils/100 leukocytes in Blood by Automated count</td><td><strong>18.1 L</strong></td><td>45 - 75</td><td>%</td></tr><tr><td>Lymphocytes/100 leukocytes in Blood by Automated count</td><td><strong>8.2 L</strong></td><td>20 - 45</td><td>%</td></tr><tr><td>Monocytes/100 leukocytes in Blood by Automated count</td><td><strong>14.9 H</strong></td><td>3 - 10</td><td>%</td></tr><tr><td>Eosinophils/100 leukocytes in Blood by Automated count</td><td>3.3</td><td>0 - 7</td><td>%</td></tr><tr><td>Basophils/100 leukocytes in Blood by Automated count</td><td>3.0</td><td>0 - 3</td><td>%</td></tr><tr><td>Neutrophils [#/volume] in Blood by Automated count</td><td>3.2</td><td>2 - 7</td><td>10*3/uL</td></tr><tr><td>Lymphocytes [#/volume] in Blood by Automated count</td><td>1.1</td><td>1 - 4</td><td>10*3/uL</td></tr><tr><td>Monocytes [#/volume] in Blood by Automated count</td><td><strong>1.1 H</strong></td><td>0.7 - 0.9</td><td>10*3/uL</td></tr><tr><td>Eosinophils [#/volume] in Blood by Automated count</td><td>0.4</td><td>0 - 0.7</td><td>10*3/uL</td></tr><tr><td>Basophils [#/volume] in Blood by Automated count</td><td><strong>0.3 H</strong></td><td>0.1 - 0.2</td><td>10*3/uL</td></tr></tbody></table></div>"
                },
                "title": "Hematology"
              },
              {
                "code": {
                  "coding": [
                    {
                      "code": "18719-5",
                      "system": "http://loinc.org",
                      "display": "Chemistry studies (set)"
                    }
                  ],
                  "text": "Chemistry"
                },
                "entry": [
                  {
                    "reference": "urn:uuid:b2ded4ed-7dcf-4f8f-9ed9-6c22fafd2559"
                  },
                  {
                    "reference": "urn:uuid:2535090a-b97f-4f57-b3d9-fd697851bff5"
                  },
                  {
                    "reference": "urn:uuid:daff25c2-5d2c-4695-bb75-2740e8784e01"
                  },
                  {
                    "reference": "urn:uuid:7541e418-d5f8-432b-b0b2-8336fc68bd2c"
                  },
                  {
                    "reference": "urn:uuid:c0ff5251-9c5d-424b-a209-850433e6ab3b"
                  },
                  {
                    "reference": "urn:uuid:e2e2af0c-d956-431d-9b47-417132323d8d"
                  },
                  {
                    "reference": "urn:uuid:d71dc05b-9977-4b86-8b10-eba6e1dc6084"
                  },
                  {
                    "reference": "urn:uuid:da4111c1-8cea-4851-b095-87d765ce0dc8"
                  },
                  {
                    "reference": "urn:uuid:ef14aa1f-09a5-4a86-95b8-78208718074c"
                  },
                  {
                    "reference": "urn:uuid:e05d90e8-759c-4f43-9d37-acaaf3c16296"
                  },
                  {
                    "reference": "urn:uuid:8198a0d4-7bd7-4ca5-9fc4-00955010c29d"
                  },
                  {
                    "reference": "urn:uuid:3ac4b4b5-28b2-4e84-9440-f02b3e14e209"
                  },
                  {
                    "reference": "urn:uuid:2be9d43f-605a-4600-b4f0-113c30f2d4a4"
                  },
                  {
                    "reference": "urn:uuid:f1f38135-64d1-4e6c-9248-944c35591889"
                  },
                  {
                    "reference": "urn:uuid:79262729-db93-40f5-abc7-a46c924fbf47"
                  },
                  {
                    "reference": "urn:uuid:3bfeac4b-2f5d-45df-8d07-76aeb33332c2"
                  },
                  {
                    "reference": "urn:uuid:814b709d-b942-4dff-b9f0-da63a67bed89"
                  },
                  {
                    "reference": "urn:uuid:8b1ccb08-2ff1-4fd4-ab9c-e4f117751d4a"
                  },
                  {
                    "reference": "urn:uuid:681cde7f-ed59-4ea1-96ef-1b5a58af3ed3"
                  },
                  {
                    "reference": "urn:uuid:eed88c9e-282b-4cce-aaa4-930a3d6ce7bf"
                  },
                  {
                    "reference": "urn:uuid:9b328e35-6c6f-4154-a647-4a620f789ab0"
                  },
                  {
                    "reference": "urn:uuid:e39791cd-377e-4417-af43-b20eb8e78f43"
                  }
                ],
                "text": {
                  "status": "generated",
                  "div": "<div xmlns=\"http://www.w3.org/1999/xhtml\"><h3 id=\"section-2\">Chemistry</h3><table class=\"hl7__eu__lab__report\"><thead><tr><th>Test</th><th>18 Nov 2024</th><th>Reference Range</th><th>Unit</th></tr></thead><tbody><tr><td>Oxygen saturation in Arterial blood</td><td><strong>87.9 L</strong></td><td>95 - 100</td><td>%</td></tr><tr><td>Oxygen saturation in Arterial blood</td><td><strong>85.6 L</strong></td><td>95 - 100</td><td>%</td></tr><tr><td>Glucose [Mass/volume] in Serum or Plasma</td><td>81.7</td><td>70 - 140</td><td>mg/dL</td></tr><tr><td>Urea nitrogen [Mass/volume] in Serum or Plasma</td><td>9.8</td><td>7 - 20</td><td>mg/dL</td></tr><tr><td>Creatinine [Mass/volume] in Serum or Plasma</td><td><strong>2.5 H</strong></td><td>0.9 - 1.3</td><td>mg/dL</td></tr><tr><td>Calcium [Mass/volume] in Serum or Plasma</td><td>9.0</td><td>8.5 - 10.5</td><td>mg/dL</td></tr><tr><td>Sodium [Moles/volume] in Serum or Plasma</td><td>138.0</td><td>135 - 145</td><td>mmol/L</td></tr><tr><td>Potassium [Moles/volume] in Serum or Plasma</td><td>3.8</td><td>3.5 - 5</td><td>mmol/L</td></tr><tr><td>Chloride [Moles/volume] in Serum or Plasma</td><td>105.2</td><td>98 - 108</td><td>mmol/L</td></tr><tr><td>Carbon dioxide, total [Moles/volume] in Serum or Plasma</td><td>28.8</td><td>22 - 32</td><td>mmol/L</td></tr><tr><td>Protein [Mass/volume] in Serum or Plasma</td><td>7.5</td><td>6 - 8.3</td><td>g/dL</td></tr><tr><td>Albumin [Mass/volume] in Serum or Plasma</td><td>5.2</td><td>3.5 - 5.5</td><td>g/dL</td></tr><tr><td>Bilirubin.total [Mass/volume] in Serum or Plasma</td><td><strong>9.5 H</strong></td><td>0.3 - 1.2</td><td>mg/dL</td></tr><tr><td>Alkaline phosphatase [Enzymatic activity/volume] in Serum or Plasma</td><td>57.8</td><td>39 - 147</td><td>U/L</td></tr><tr><td>Alanine aminotransferase [Enzymatic activity/volume] in Serum or Plasma</td><td>26.0</td><td>7 - 60</td><td>U/L</td></tr><tr><td>Aspartate aminotransferase [Enzymatic activity/volume] in Serum or Plasma</td><td>27.7</td><td>10 - 40</td><td>U/L</td></tr><tr><td>Ferritin [Mass/volume] in Serum or Plasma</td><td>356.6</td><td>30 - 400</td><td>ug/L</td></tr><tr><td>Troponin I.cardiac [Mass/volume] in Serum or Plasma by High sensitivity method</td><td>1.8</td><td>0 - 19.9</td><td>pg/mL</td></tr><tr><td>Lactate dehydrogenase [Enzymatic activity/volume] in Serum or Plasma by Lactate to pyruvate reaction</td><td>239.4</td><td>100 - 248</td><td>U/L</td></tr><tr><td>Creatine kinase [Enzymatic activity/volume] in Serum or Plasma</td><td><strong>19.6 L</strong></td><td>38 - 215</td><td>U/L</td></tr><tr><td>C reactive protein [Mass/volume] in Serum or Plasma</td><td>8.6</td><td>0 - 10</td><td>mg/L</td></tr><tr><td>Procalcitonin [Mass/volume] in Serum or Plasma</td><td>0.0</td><td>0 - 0.5</td><td>ng/mL</td></tr></tbody></table></div>"
                },
                "title": "Chemistry"
              },
              {
                "code": {
                  "coding": [
                    {
                      "code": "18720-3",
                      "system": "http://loinc.org",
                      "display": "Coagulation studies (set)"
                    }
                  ],
                  "text": "Coagulation"
                },
                "entry": [
                  {
                    "reference": "urn:uuid:6e4a1bdd-bc88-4570-a5bd-955386c9f421"
                  },
                  {
                    "reference": "urn:uuid:80919029-52c9-4618-870a-81e75d3f06a0"
                  },
                  {
                    "reference": "urn:uuid:8879e970-74bb-4ed1-b14a-d7c40d12ab09"
                  }
                ],
                "text": {
                  "status": "generated",
                  "div": "<div xmlns=\"http://www.w3.org/1999/xhtml\"><h3 id=\"section-3\">Coagulation</h3><table class=\"hl7__eu__lab__report\"><thead><tr><th>Test</th><th>18 Nov 2024</th><th>Reference Range</th><th>Unit</th></tr></thead><tbody><tr><td>Fibrin D-dimer FEU [Mass/volume] in Platelet poor plasma</td><td>0.3</td><td>0 - 0.5</td><td>ug/mL</td></tr><tr><td>Prothrombin time (PT)</td><td><strong>10.9 L</strong></td><td>11 - 13.5</td><td>s</td></tr><tr><td>INR in Platelet poor plasma by Coagulation assay</td><td>1.2</td><td>0.9 - 2</td><td>{INR}</td></tr></tbody></table></div>"
                },
                "title": "Coagulation"
              },
              {
                "code": {
                  "coding": [
                    {
                      "code": "18725-2",
                      "system": "http://loinc.org",
                      "display": "Microbiology studies"
                    }
                  ],
                  "text": "Microbiology"
                },
                "entry": [
                  {
                    "reference": "urn:uuid:b51c584f-f466-481e-98b1-7653c62c1eb6"
                  },
                  {
                    "reference": "urn:uuid:58165091-9e19-40b6-b3dc-b82d070f1589"
                  },
                  {
                    "reference": "urn:uuid:fd28fb3f-57f4-4406-9adb-89b207769b43"
                  },
                  {
                    "reference": "urn:uuid:856fd1b4-0f5b-46f8-be0f-e1d35e0d2b6b"
                  },
                  {
                    "reference": "urn:uuid:59027bf9-c855-4d87-9907-adcaa00004c5"
                  },
                  {
                    "reference": "urn:uuid:949c398f-7517-4412-b944-df82dbf64f54"
                  },
                  {
                    "reference": "urn:uuid:9639449e-cb72-4493-9be5-0c3646319e16"
                  },
                  {
                    "reference": "urn:uuid:460232d9-5fb7-4bf7-9d06-95ce54ecb4c1"
                  },
                  {
                    "reference": "urn:uuid:f567786a-4653-4dfc-8c92-25f1f60ca6c9"
                  }
                ],
                "text": {
                  "status": "generated",
                  "div": "<div xmlns=\"http://www.w3.org/1999/xhtml\"><h3 id=\"section-4\">Microbiology</h3><table class=\"hl7__eu__lab__report\"><thead><tr><th>Test</th><th>18 Nov 2024</th><th>Reference Range</th><th>Unit</th></tr></thead><tbody><tr><td>Influenza virus A RNA [Presence] in Respiratory system specimen by NAA with probe detection</td><td>Negative</td><td></td><td></td></tr><tr><td>Influenza virus B RNA [Presence] in Respiratory system specimen by NAA with probe detection</td><td>Negative</td><td></td><td></td></tr><tr><td>Respiratory syncytial virus RNA [Presence] in Respiratory system specimen by NAA with probe detection</td><td>Negative</td><td></td><td></td></tr><tr><td>Parainfluenza virus 1 RNA [Presence] in Respiratory system specimen by NAA with probe detection</td><td>Negative</td><td></td><td></td></tr><tr><td>Parainfluenza virus 2 RNA [Presence] in Respiratory system specimen by NAA with probe detection</td><td>Negative</td><td></td><td></td></tr><tr><td>Parainfluenza virus 3 RNA [Presence] in Respiratory system specimen by NAA with probe detection</td><td>Negative</td><td></td><td></td></tr><tr><td>Rhinovirus RNA [Presence] in Respiratory system specimen by NAA with probe detection</td><td>Negative</td><td></td><td></td></tr><tr><td>Human metapneumovirus RNA [Presence] in Respiratory system specimen by NAA with probe detection</td><td>Negative</td><td></td><td></td></tr><tr><td>Adenovirus A+B+C+D+E DNA [Presence] in Respiratory system specimen by NAA with probe detection</td><td>Negative</td><td></td><td></td></tr></tbody></table></div>"
                },
                "title": "Microbiology"
              },
              {
                "code": {
                  "coding": [
                    {
                      "code": "18725-2",
                      "system": "http://loinc.org",
                      "display": "Microbiology studies"
                    }
                  ],
                  "text": "Microbiology Panel"
                },
                "entry": [
                  {
                    "reference": "urn:uuid:2aa67204-fec7-4d33-8df9-927ef78e9355"
                  }
                ],
                "text": {
                  "status": "generated",
                  "div": "<div xmlns=\"http://www.w3.org/1999/xhtml\"><h3 id=\"section-5\">Microbiology Panel</h3><table class=\"hl7__eu__lab__report\"><thead><tr><th>Test</th><th>18 Nov 2024</th><th>Reference Range</th><th>Unit</th></tr></thead><tbody><tr><td>SARS-CoV-2 (COVID-19) RNA panel - Respiratory system specimen by NAA with probe detection</td><td>Detected</td><td></td><td></td></tr></tbody></table></div>"
                },
                "title": "Microbiology Panel"
              }
            ],
            "title": "Laboratory Report"
          }
        ],
        "status": "final",
        "subject": {
          "reference": "urn:uuid:71541cd5-9354-4c3c-bec5-48420400fcea"
        },
        "date": "2024-11-19T18:37:48Z",
        "title": "Laboratory Report",
        "confidentiality": "N"
      }
    },
    {
      "fullUrl": "urn:uuid:5b84bc6b-9189-4193-8aab-68bdd8e0717a",
      "resource": {
        "resourceType": "DiagnosticReport",
        "id": "5b84bc6b-9189-4193-8aab-68bdd8e0717a",
        "meta": {
          "profile": [
            "http://hl7.eu/fhir/laboratory/StructureDefinition/DiagnosticReport-eu-lab"
          ]
        },
        "identifier": [
          {
            "assigner": {
              "display": "HL7 Europe"
            },
            "system": "urn:oid:2.16.840.1.113883.2.51.999",
            "value": "5990c689-59f9-4652-9dd1-9782fbe32c22"
          }
        ],
        "extension": [
          {
            "url": "http://hl7.org/fhir/5.0/StructureDefinition/extension-DiagnosticReport.composition",
            "valueReference": {
              "reference": "urn:uuid:73d55a44-5c08-4370-9ec9-385c504f13e6"
            }
          }
        ],
        "category": [
          {
            "coding": [
              {
                "code": "18719-5",
                "system": "http://loinc.org",
                "display": "Chemistry studies (set)"
              }
            ]
          }
        ],
        "specimen": [
          {
            "reference": "urn:uuid:1b8acf04-ab10-4410-8fbd-3885477a5891"
          },
          {
            "reference": "urn:uuid:579e751c-f2fc-4732-954c-d7ef97891546"
          },
          {
            "reference": "urn:uuid:ef652533-ca68-47b0-bd22-97c336586df0"
          },
          {
            "reference": "urn:uuid:d4de5720-6452-4aec-9eeb-1eb0759dd543"
          },
          {
            "reference": "urn:uuid:21dea01c-387c-4272-bb04-02e482797933"
          },
          {
            "reference": "urn:uuid:e1e360e4-386b-4b46-ae52-cf7488cb3099"
          }
        ],
        "result": [
          {
            "reference": "urn:uuid:b2ded4ed-7dcf-4f8f-9ed9-6c22fafd2559"
          },
          {
            "reference": "urn:uuid:b51c584f-f466-481e-98b1-7653c62c1eb6"
          },
          {
            "reference": "urn:uuid:58165091-9e19-40b6-b3dc-b82d070f1589"
          },
          {
            "reference": "urn:uuid:fd28fb3f-57f4-4406-9adb-89b207769b43"
          },
          {
            "reference": "urn:uuid:856fd1b4-0f5b-46f8-be0f-e1d35e0d2b6b"
          },
          {
            "reference": "urn:uuid:59027bf9-c855-4d87-9907-adcaa00004c5"
          },
          {
            "reference": "urn:uuid:949c398f-7517-4412-b944-df82dbf64f54"
          },
          {
            "reference": "urn:uuid:9639449e-cb72-4493-9be5-0c3646319e16"
          },
          {
            "reference": "urn:uuid:460232d9-5fb7-4bf7-9d06-95ce54ecb4c1"
          },
          {
            "reference": "urn:uuid:f567786a-4653-4dfc-8c92-25f1f60ca6c9"
          },
          {
            "reference": "urn:uuid:2aa67204-fec7-4d33-8df9-927ef78e9355"
          },
          {
            "reference": "urn:uuid:2535090a-b97f-4f57-b3d9-fd697851bff5"
          },
          {
            "reference": "urn:uuid:838b9f9c-2078-4d50-85e6-ed1cad888332"
          },
          {
            "reference": "urn:uuid:61e7d96b-8fcd-4a36-94e6-9b621776e840"
          },
          {
            "reference": "urn:uuid:6ded89df-57ca-4d2e-bf2d-71175771fb84"
          },
          {
            "reference": "urn:uuid:b34fe472-8f6a-4b36-8d02-db81248023d3"
          },
          {
            "reference": "urn:uuid:019fef43-8cad-47dc-83cd-f420f9e900bf"
          },
          {
            "reference": "urn:uuid:2f1ccc8d-6d1d-4670-926d-a18755c1a177"
          },
          {
            "reference": "urn:uuid:3eeda493-332a-4a3e-a953-924426f5f461"
          },
          {
            "reference": "urn:uuid:ae53937f-7bd5-48a1-96a5-bd24223d4489"
          },
          {
            "reference": "urn:uuid:92a6bf91-1bd6-450b-a583-5f4d1a4f1fc0"
          },
          {
            "reference": "urn:uuid:cfef3199-c27e-4ba0-a3b2-474d7e53c748"
          },
          {
            "reference": "urn:uuid:c602dfcc-7038-4861-bb0f-c2cbb3318c46"
          },
          {
            "reference": "urn:uuid:0905a732-81fb-4cec-8e7f-252060de7a79"
          },
          {
            "reference": "urn:uuid:ac42b2ee-2c06-4372-960b-200b804c7fce"
          },
          {
            "reference": "urn:uuid:0d546569-5765-4882-ad2d-58057597afa4"
          },
          {
            "reference": "urn:uuid:e93ba20e-5ca1-447b-8f41-aad38bdef05d"
          },
          {
            "reference": "urn:uuid:277c23c3-4d51-48e6-8476-ec72c4f89890"
          },
          {
            "reference": "urn:uuid:cacf0c28-0d6f-41be-9ea4-9a358cee2c0b"
          },
          {
            "reference": "urn:uuid:c3ddd102-057c-431a-89f9-0734126eef92"
          },
          {
            "reference": "urn:uuid:baf667c9-782a-4977-9189-dbc894539d56"
          },
          {
            "reference": "urn:uuid:daff25c2-5d2c-4695-bb75-2740e8784e01"
          },
          {
            "reference": "urn:uuid:7541e418-d5f8-432b-b0b2-8336fc68bd2c"
          },
          {
            "reference": "urn:uuid:c0ff5251-9c5d-424b-a209-850433e6ab3b"
          },
          {
            "reference": "urn:uuid:e2e2af0c-d956-431d-9b47-417132323d8d"
          },
          {
            "reference": "urn:uuid:d71dc05b-9977-4b86-8b10-eba6e1dc6084"
          },
          {
            "reference": "urn:uuid:da4111c1-8cea-4851-b095-87d765ce0dc8"
          },
          {
            "reference": "urn:uuid:ef14aa1f-09a5-4a86-95b8-78208718074c"
          },
          {
            "reference": "urn:uuid:e05d90e8-759c-4f43-9d37-acaaf3c16296"
          },
          {
            "reference": "urn:uuid:8198a0d4-7bd7-4ca5-9fc4-00955010c29d"
          },
          {
            "reference": "urn:uuid:3ac4b4b5-28b2-4e84-9440-f02b3e14e209"
          },
          {
            "reference": "urn:uuid:2be9d43f-605a-4600-b4f0-113c30f2d4a4"
          },
          {
            "reference": "urn:uuid:f1f38135-64d1-4e6c-9248-944c35591889"
          },
          {
            "reference": "urn:uuid:79262729-db93-40f5-abc7-a46c924fbf47"
          },
          {
            "reference": "urn:uuid:3bfeac4b-2f5d-45df-8d07-76aeb33332c2"
          },
          {
            "reference": "urn:uuid:6e4a1bdd-bc88-4570-a5bd-955386c9f421"
          },
          {
            "reference": "urn:uuid:814b709d-b942-4dff-b9f0-da63a67bed89"
          },
          {
            "reference": "urn:uuid:8b1ccb08-2ff1-4fd4-ab9c-e4f117751d4a"
          },
          {
            "reference": "urn:uuid:681cde7f-ed59-4ea1-96ef-1b5a58af3ed3"
          },
          {
            "reference": "urn:uuid:eed88c9e-282b-4cce-aaa4-930a3d6ce7bf"
          },
          {
            "reference": "urn:uuid:9b328e35-6c6f-4154-a647-4a620f789ab0"
          },
          {
            "reference": "urn:uuid:80919029-52c9-4618-870a-81e75d3f06a0"
          },
          {
            "reference": "urn:uuid:8879e970-74bb-4ed1-b14a-d7c40d12ab09"
          },
          {
            "reference": "urn:uuid:e39791cd-377e-4417-af43-b20eb8e78f43"
          }
        ],
        "status": "registered",
        "code": {
          "coding": [
            {
              "code": "11502-2",
              "system": "http://loinc.org",
              "display": "Laboratory report"
            }
          ]
        },
        "subject": {
          "reference": "urn:uuid:71541cd5-9354-4c3c-bec5-48420400fcea"
        }
      }
    },
    {
      "fullUrl": "urn:uuid:71541cd5-9354-4c3c-bec5-48420400fcea",
      "resource": {
        "resourceType": "Patient",
        "id": "71541cd5-9354-4c3c-bec5-48420400fcea",
        "meta": {
          "profile": [
            "http://hl7.eu/fhir/laboratory/StructureDefinition/Patient-eu-lab"
          ]
        },
        "identifier": [
          {
            "type": {
              "coding": [
                {
                  "code": "NI",
                  "system": "http://terminology.hl7.org/CodeSystem/v2-0203"
                }
              ]
            },
            "system": "http://ec.europa.eu/identifier/eci",
            "value": "7626-738165-5"
          },
          {
            "type": {
              "coding": [
                {
                  "code": "MR",
                  "system": "http://terminology.hl7.org/CodeSystem/v2-0203"
                }
              ]
            },
            "system": "http://local.setting.eu/identifier",
            "value": "c961f551-4bf9-4a78-be17-9fdb4104d05e"
          }
        ],
        "name": [
          {
            "given": [
              "Reijer"
            ],
            "family": "Wolff",
            "text": "Reijer Wolff"
          }
        ],
        "address": [
          {
            "line": [
              "Laan van Nieuw Oosteinde 127"
            ],
            "use": "home",
            "type": "physical",
            "city": "Voorburg",
            "postalCode": "2274 EK",
            "country": "Netherlands"
          }
        ],
        "telecom": [
          {
            "system": "phone",
            "value": "+31 06-43655982"
          }
        ],
        "gender": "male",
        "birthDate": "1941-12-26"
      }
    },
    {
      "fullUrl": "urn:uuid:cfdd100d-19b0-4644-8ab5-72fa3f080bf9",
      "resource": {
        "resourceType": "ServiceRequest",
        "id": "cfdd100d-19b0-4644-8ab5-72fa3f080bf9",
        "meta": {
          "profile": [
            "http://hl7.eu/fhir/laboratory/StructureDefinition/ServiceRequest-eu-lab"
          ]
        },
        "identifier": [
          {
            "system": "http://example.org",
            "value": "d0b1d652-9bce-4fd7-9d7a-207791d53394"
          }
        ],
        "specimen": [
          {
            "reference": "urn:uuid:1b8acf04-ab10-4410-8fbd-3885477a5891"
          },
          {
            "reference": "urn:uuid:579e751c-f2fc-4732-954c-d7ef97891546"
          },
          {
            "reference": "urn:uuid:ef652533-ca68-47b0-bd22-97c336586df0"
          },
          {
            "reference": "urn:uuid:d4de5720-6452-4aec-9eeb-1eb0759dd543"
          },
          {
            "reference": "urn:uuid:21dea01c-387c-4272-bb04-02e482797933"
          },
          {
            "reference": "urn:uuid:e1e360e4-386b-4b46-ae52-cf7488cb3099"
          }
        ],
        "status": "active",
        "intent": "order",
        "code": {
          "coding": [
            {
              "code": "108252007",
              "system": "http://snomed.info/sct",
              "display": "Laboratory procedure"
            }
          ]
        },
        "subject": {
          "reference": "urn:uuid:71541cd5-9354-4c3c-bec5-48420400fcea"
        },
        "requester": {
          "reference": "urn:uuid:26323711-4adc-47e9-a896-78ff1588de6b"
        }
      }
    },
    {
      "fullUrl": "urn:uuid:26323711-4adc-47e9-a896-78ff1588de6b",
      "resource": {
        "resourceType": "PractitionerRole",
        "id": "26323711-4adc-47e9-a896-78ff1588de6b",
        "meta": {
          "profile": [
            "http://hl7.eu/fhir/laboratory/StructureDefinition/PractitionerRole-eu-lab"
          ]
        },
        "organization": {
          "reference": "urn:uuid:e6da54e4-e824-466c-8f0b-b60a6b6a27f3"
        }
      }
    },
    {
      "fullUrl": "urn:uuid:e6da54e4-e824-466c-8f0b-b60a6b6a27f3",
      "resource": {
        "resourceType": "Organization",
        "id": "e6da54e4-e824-466c-8f0b-b60a6b6a27f3",
        "meta": {
          "profile": [
            "http://hl7.org/fhir/uv/ips/StructureDefinition/Organization-uv-ips"
          ]
        },
        "identifier": [
          {
            "assigner": {
              "display": "HL7 Europe"
            },
            "system": "urn:oid:2.16.840.1.113883.2.51.999",
            "value": "e894ad16-8f81-4acb-b2b5-d921a3e9d123"
          }
        ],
        "address": [
          {
            "line": [
              "Bronovolaan 5"
            ],
            "city": "Den Haag",
            "postalCode": "2597 AV",
            "country": "nl"
          }
        ],
        "name": "HMC Bronovo"
      }
    },
    {
      "fullUrl": "urn:uuid:ddbab04a-0409-4481-9e0f-a2a8365c1823",
      "resource": {
        "resourceType": "PractitionerRole",
        "id": "ddbab04a-0409-4481-9e0f-a2a8365c1823",
        "meta": {
          "profile": [
            "http://hl7.eu/fhir/laboratory/StructureDefinition/PractitionerRole-eu-lab"
          ]
        },
        "practitioner": {
          "reference": "urn:uuid:d05fae23-9e0c-46c4-ad51-bc624c472b33"
        }
      }
    },
    {
      "fullUrl": "urn:uuid:d05fae23-9e0c-46c4-ad51-bc624c472b33",
      "resource": {
        "resourceType": "Practitioner",
        "id": "d05fae23-9e0c-46c4-ad51-bc624c472b33",
        "meta": {
          "profile": [
            "http://hl7.eu/fhir/laboratory/StructureDefinition/Practitioner-eu-lab"
          ]
        },
        "identifier": [
          {
            "assigner": {
              "display": "HL7 Europe"
            },
            "system": "urn:oid:2.16.840.1.113883.2.51.999",
            "value": "4ea0f090-42f7-40b1-932f-deff549522bc"
          }
        ],
        "name": [
          {
            "prefix": [
              "dr"
            ],
            "given": [
              "Ex"
            ],
            "family": "Ample"
          }
        ],
        "address": [
          {
            "line": [
              "Boulevard du Jardin Botanique 32"
            ],
            "city": "Brussels",
            "postalCode": "1000"
          }
        ]
      }
    },
    {
      "fullUrl": "urn:uuid:1b8acf04-ab10-4410-8fbd-3885477a5891",
      "resource": {
        "resourceType": "Specimen",
        "id": "1b8acf04-ab10-4410-8fbd-3885477a5891",
        "meta": {
          "profile": [
            "http://hl7.eu/fhir/laboratory/StructureDefinition/Specimen-eu-lab"
          ]
        },
        "collection": {
          "collectedDateTime": "2024-11-18"
        },
        "status": "available",
        "type": {
          "coding": [
            {
              "code": "122552005",
              "system": "http://snomed.info/sct",
              "display": "Arterial blood specimen (specimen)"
            }
          ]
        }
      }
    },
    {
      "fullUrl": "urn:uuid:579e751c-f2fc-4732-954c-d7ef97891546",
      "resource": {
        "resourceType": "Specimen",
        "id": "579e751c-f2fc-4732-954c-d7ef97891546",
        "meta": {
          "profile": [
            "http://hl7.eu/fhir/laboratory/StructureDefinition/Specimen-eu-lab"
          ]
        },
        "collection": {
          "collectedDateTime": "2024-11-18"
        },
        "status": "available",
        "type": {
          "coding": [
            {
              "code": "258603007",
              "system": "http://snomed.info/sct",
              "display": "Respiratory specimen (specimen)"
            }
          ]
        }
      }
    },
    {
      "fullUrl": "urn:uuid:ef652533-ca68-47b0-bd22-97c336586df0",
      "resource": {
        "resourceType": "Specimen",
        "id": "ef652533-ca68-47b0-bd22-97c336586df0",
        "meta": {
          "profile": [
            "http://hl7.eu/fhir/laboratory/StructureDefinition/Specimen-eu-lab"
          ]
        },
        "collection": {
          "collectedDateTime": "2024-11-18"
        },
        "status": "available",
        "type": {
          "coding": [
            {
              "code": "258580003",
              "system": "http://snomed.info/sct",
              "display": "Whole blood specimen (specimen)"
            }
          ]
        }
      }
    },
    {
      "fullUrl": "urn:uuid:d4de5720-6452-4aec-9eeb-1eb0759dd543",
      "resource": {
        "resourceType": "Specimen",
        "id": "d4de5720-6452-4aec-9eeb-1eb0759dd543",
        "meta": {
          "profile": [
            "http://hl7.eu/fhir/laboratory/StructureDefinition/Specimen-eu-lab"
          ]
        },
        "collection": {
          "collectedDateTime": "2024-11-18"
        },
        "status": "available",
        "type": {
          "coding": [
            {
              "code": "258580003",
              "system": "http://snomed.info/sct",
              "display": "Whole blood specimen (specimen)"
            }
          ]
        }
      }
    },
    {
      "fullUrl": "urn:uuid:21dea01c-387c-4272-bb04-02e482797933",
      "resource": {
        "resourceType": "Specimen",
        "id": "21dea01c-387c-4272-bb04-02e482797933",
        "meta": {
          "profile": [
            "http://hl7.eu/fhir/laboratory/StructureDefinition/Specimen-eu-lab"
          ]
        },
        "collection": {
          "collectedDateTime": "2024-11-18"
        },
        "status": "available",
        "type": {
          "coding": [
            {
              "code": "122592007",
              "system": "http://snomed.info/sct",
              "display": "Acellular blood (serum or plasma) specimen (specimen)"
            }
          ]
        }
      }
    },
    {
      "fullUrl": "urn:uuid:e1e360e4-386b-4b46-ae52-cf7488cb3099",
      "resource": {
        "resourceType": "Specimen",
        "id": "e1e360e4-386b-4b46-ae52-cf7488cb3099",
        "meta": {
          "profile": [
            "http://hl7.eu/fhir/laboratory/StructureDefinition/Specimen-eu-lab"
          ]
        },
        "collection": {
          "collectedDateTime": "2024-11-18"
        },
        "status": "available",
        "type": {
          "coding": [
            {
              "code": "119362004",
              "system": "http://snomed.info/sct",
              "display": "Platelet poor plasma specimen (specimen) "
            }
          ]
        }
      }
    },
    {
      "fullUrl": "urn:uuid:b2ded4ed-7dcf-4f8f-9ed9-6c22fafd2559",
      "resource": {
        "resourceType": "Observation",
        "id": "b2ded4ed-7dcf-4f8f-9ed9-6c22fafd2559",
        "meta": {
          "profile": [
            "http://hl7.eu/fhir/laboratory/StructureDefinition/Observation-resultslab-eu-lab"
          ]
        },
        "performer": [
          {
            "display": "The Central European Lab"
          }
        ],
        "category": [
          {
            "coding": [
              {
                "code": "laboratory",
                "system": "http://terminology.hl7.org/CodeSystem/observation-category"
              }
            ]
          }
        ],
        "code": {
          "coding": [
            {
              "code": "2708-6",
              "system": "http://loinc.org",
              "display": "Oxygen saturation in Arterial blood"
            }
          ],
          "text": "Oxygen saturation in Arterial blood"
        },
        "valueQuantity": {
          "system": "http://unitsofmeasure.org",
          "value": 87.9,
          "unit": "%",
          "code": "%"
        },
        "referenceRange": [
          {
            "low": {
              "value": 95,
              "code": "%",
              "system": "http://unitsofmeasure.org"
            }
          },
          {
            "high": {
              "value": 100,
              "code": "%",
              "system": "http://unitsofmeasure.org"
            }
          }
        ],
        "interpretation": [
          {
            "coding": [
              {
                "code": "L",
                "system": "http://terminology.hl7.org/CodeSystem/v3-ObservationInterpretation",
                "display": "Low"
              }
            ]
          }
        ],
        "status": "final",
        "subject": {
          "reference": "urn:uuid:71541cd5-9354-4c3c-bec5-48420400fcea"
        },
        "effectiveDateTime": "2024-11-18",
        "specimen": {
          "reference": "urn:uuid:1b8acf04-ab10-4410-8fbd-3885477a5891"
        }
      }
    },
    {
      "fullUrl": "urn:uuid:b51c584f-f466-481e-98b1-7653c62c1eb6",
      "resource": {
        "resourceType": "Observation",
        "id": "b51c584f-f466-481e-98b1-7653c62c1eb6",
        "meta": {
          "profile": [
            "http://hl7.eu/fhir/laboratory/StructureDefinition/Observation-resultslab-eu-lab"
          ]
        },
        "performer": [
          {
            "display": "The Central European Lab"
          }
        ],
        "category": [
          {
            "coding": [
              {
                "code": "laboratory",
                "system": "http://terminology.hl7.org/CodeSystem/observation-category"
              }
            ]
          }
        ],
        "code": {
          "coding": [
            {
              "code": "92142-9",
              "system": "http://loinc.org",
              "display": "Influenza virus A RNA [Presence] in Respiratory system specimen by NAA with probe detection"
            }
          ],
          "text": "Influenza virus A RNA [Presence] in Respiratory system specimen by NAA with probe detection"
        },
        "status": "final",
        "subject": {
          "reference": "urn:uuid:71541cd5-9354-4c3c-bec5-48420400fcea"
        },
        "effectiveDateTime": "2024-11-18",
        "valueCodeableConcept": {
          "coding": [
            {
              "code": "260385009",
              "system": "http://snomed.info/sct",
              "display": "Negative"
            }
          ]
        },
        "specimen": {
          "reference": "urn:uuid:579e751c-f2fc-4732-954c-d7ef97891546"
        }
      }
    },
    {
      "fullUrl": "urn:uuid:58165091-9e19-40b6-b3dc-b82d070f1589",
      "resource": {
        "resourceType": "Observation",
        "id": "58165091-9e19-40b6-b3dc-b82d070f1589",
        "meta": {
          "profile": [
            "http://hl7.eu/fhir/laboratory/StructureDefinition/Observation-resultslab-eu-lab"
          ]
        },
        "performer": [
          {
            "display": "The Central European Lab"
          }
        ],
        "category": [
          {
            "coding": [
              {
                "code": "laboratory",
                "system": "http://terminology.hl7.org/CodeSystem/observation-category"
              }
            ]
          }
        ],
        "code": {
          "coding": [
            {
              "code": "92141-1",
              "system": "http://loinc.org",
              "display": "Influenza virus B RNA [Presence] in Respiratory system specimen by NAA with probe detection"
            }
          ],
          "text": "Influenza virus B RNA [Presence] in Respiratory system specimen by NAA with probe detection"
        },
        "status": "final",
        "subject": {
          "reference": "urn:uuid:71541cd5-9354-4c3c-bec5-48420400fcea"
        },
        "effectiveDateTime": "2024-11-18",
        "valueCodeableConcept": {
          "coding": [
            {
              "code": "260385009",
              "system": "http://snomed.info/sct",
              "display": "Negative"
            }
          ]
        },
        "specimen": {
          "reference": "urn:uuid:579e751c-f2fc-4732-954c-d7ef97891546"
        }
      }
    },
    {
      "fullUrl": "urn:uuid:fd28fb3f-57f4-4406-9adb-89b207769b43",
      "resource": {
        "resourceType": "Observation",
        "id": "fd28fb3f-57f4-4406-9adb-89b207769b43",
        "meta": {
          "profile": [
            "http://hl7.eu/fhir/laboratory/StructureDefinition/Observation-resultslab-eu-lab"
          ]
        },
        "performer": [
          {
            "display": "The Central European Lab"
          }
        ],
        "category": [
          {
            "coding": [
              {
                "code": "laboratory",
                "system": "http://terminology.hl7.org/CodeSystem/observation-category"
              }
            ]
          }
        ],
        "code": {
          "coding": [
            {
              "code": "92131-2",
              "system": "http://loinc.org",
              "display": "Respiratory syncytial virus RNA [Presence] in Respiratory system specimen by NAA with probe detection"
            }
          ],
          "text": "Respiratory syncytial virus RNA [Presence] in Respiratory system specimen by NAA with probe detection"
        },
        "status": "final",
        "subject": {
          "reference": "urn:uuid:71541cd5-9354-4c3c-bec5-48420400fcea"
        },
        "effectiveDateTime": "2024-11-18",
        "valueCodeableConcept": {
          "coding": [
            {
              "code": "260385009",
              "system": "http://snomed.info/sct",
              "display": "Negative"
            }
          ]
        },
        "specimen": {
          "reference": "urn:uuid:579e751c-f2fc-4732-954c-d7ef97891546"
        }
      }
    },
    {
      "fullUrl": "urn:uuid:856fd1b4-0f5b-46f8-be0f-e1d35e0d2b6b",
      "resource": {
        "resourceType": "Observation",
        "id": "856fd1b4-0f5b-46f8-be0f-e1d35e0d2b6b",
        "meta": {
          "profile": [
            "http://hl7.eu/fhir/laboratory/StructureDefinition/Observation-resultslab-eu-lab"
          ]
        },
        "performer": [
          {
            "display": "The Central European Lab"
          }
        ],
        "category": [
          {
            "coding": [
              {
                "code": "laboratory",
                "system": "http://terminology.hl7.org/CodeSystem/observation-category"
              }
            ]
          }
        ],
        "code": {
          "coding": [
            {
              "code": "92140-3",
              "system": "http://loinc.org",
              "display": "Parainfluenza virus 1 RNA [Presence] in Respiratory system specimen by NAA with probe detection"
            }
          ],
          "text": "Parainfluenza virus 1 RNA [Presence] in Respiratory system specimen by NAA with probe detection"
        },
        "status": "final",
        "subject": {
          "reference": "urn:uuid:71541cd5-9354-4c3c-bec5-48420400fcea"
        },
        "effectiveDateTime": "2024-11-18",
        "valueCodeableConcept": {
          "coding": [
            {
              "code": "260385009",
              "system": "http://snomed.info/sct",
              "display": "Negative"
            }
          ]
        },
        "specimen": {
          "reference": "urn:uuid:579e751c-f2fc-4732-954c-d7ef97891546"
        }
      }
    },
    {
      "fullUrl": "urn:uuid:59027bf9-c855-4d87-9907-adcaa00004c5",
      "resource": {
        "resourceType": "Observation",
        "id": "59027bf9-c855-4d87-9907-adcaa00004c5",
        "meta": {
          "profile": [
            "http://hl7.eu/fhir/laboratory/StructureDefinition/Observation-resultslab-eu-lab"
          ]
        },
        "performer": [
          {
            "display": "The Central European Lab"
          }
        ],
        "category": [
          {
            "coding": [
              {
                "code": "laboratory",
                "system": "http://terminology.hl7.org/CodeSystem/observation-category"
              }
            ]
          }
        ],
        "code": {
          "coding": [
            {
              "code": "92139-5",
              "system": "http://loinc.org",
              "display": "Parainfluenza virus 2 RNA [Presence] in Respiratory system specimen by NAA with probe detection"
            }
          ],
          "text": "Parainfluenza virus 2 RNA [Presence] in Respiratory system specimen by NAA with probe detection"
        },
        "status": "final",
        "subject": {
          "reference": "urn:uuid:71541cd5-9354-4c3c-bec5-48420400fcea"
        },
        "effectiveDateTime": "2024-11-18",
        "valueCodeableConcept": {
          "coding": [
            {
              "code": "260385009",
              "system": "http://snomed.info/sct",
              "display": "Negative"
            }
          ]
        },
        "specimen": {
          "reference": "urn:uuid:579e751c-f2fc-4732-954c-d7ef97891546"
        }
      }
    },
    {
      "fullUrl": "urn:uuid:949c398f-7517-4412-b944-df82dbf64f54",
      "resource": {
        "resourceType": "Observation",
        "id": "949c398f-7517-4412-b944-df82dbf64f54",
        "meta": {
          "profile": [
            "http://hl7.eu/fhir/laboratory/StructureDefinition/Observation-resultslab-eu-lab"
          ]
        },
        "performer": [
          {
            "display": "The Central European Lab"
          }
        ],
        "category": [
          {
            "coding": [
              {
                "code": "laboratory",
                "system": "http://terminology.hl7.org/CodeSystem/observation-category"
              }
            ]
          }
        ],
        "code": {
          "coding": [
            {
              "code": "92138-7",
              "system": "http://loinc.org",
              "display": "Parainfluenza virus 3 RNA [Presence] in Respiratory system specimen by NAA with probe detection"
            }
          ],
          "text": "Parainfluenza virus 3 RNA [Presence] in Respiratory system specimen by NAA with probe detection"
        },
        "status": "final",
        "subject": {
          "reference": "urn:uuid:71541cd5-9354-4c3c-bec5-48420400fcea"
        },
        "effectiveDateTime": "2024-11-18",
        "valueCodeableConcept": {
          "coding": [
            {
              "code": "260385009",
              "system": "http://snomed.info/sct",
              "display": "Negative"
            }
          ]
        },
        "specimen": {
          "reference": "urn:uuid:579e751c-f2fc-4732-954c-d7ef97891546"
        }
      }
    },
    {
      "fullUrl": "urn:uuid:9639449e-cb72-4493-9be5-0c3646319e16",
      "resource": {
        "resourceType": "Observation",
        "id": "9639449e-cb72-4493-9be5-0c3646319e16",
        "meta": {
          "profile": [
            "http://hl7.eu/fhir/laboratory/StructureDefinition/Observation-resultslab-eu-lab"
          ]
        },
        "performer": [
          {
            "display": "The Central European Lab"
          }
        ],
        "category": [
          {
            "coding": [
              {
                "code": "laboratory",
                "system": "http://terminology.hl7.org/CodeSystem/observation-category"
              }
            ]
          }
        ],
        "code": {
          "coding": [
            {
              "code": "92130-4",
              "system": "http://loinc.org",
              "display": "Rhinovirus RNA [Presence] in Respiratory system specimen by NAA with probe detection"
            }
          ],
          "text": "Rhinovirus RNA [Presence] in Respiratory system specimen by NAA with probe detection"
        },
        "status": "final",
        "subject": {
          "reference": "urn:uuid:71541cd5-9354-4c3c-bec5-48420400fcea"
        },
        "effectiveDateTime": "2024-11-18",
        "valueCodeableConcept": {
          "coding": [
            {
              "code": "260385009",
              "system": "http://snomed.info/sct",
              "display": "Negative"
            }
          ]
        },
        "specimen": {
          "reference": "urn:uuid:579e751c-f2fc-4732-954c-d7ef97891546"
        }
      }
    },
    {
      "fullUrl": "urn:uuid:460232d9-5fb7-4bf7-9d06-95ce54ecb4c1",
      "resource": {
        "resourceType": "Observation",
        "id": "460232d9-5fb7-4bf7-9d06-95ce54ecb4c1",
        "meta": {
          "profile": [
            "http://hl7.eu/fhir/laboratory/StructureDefinition/Observation-resultslab-eu-lab"
          ]
        },
        "performer": [
          {
            "display": "The Central European Lab"
          }
        ],
        "category": [
          {
            "coding": [
              {
                "code": "laboratory",
                "system": "http://terminology.hl7.org/CodeSystem/observation-category"
              }
            ]
          }
        ],
        "code": {
          "coding": [
            {
              "code": "92134-6",
              "system": "http://loinc.org",
              "display": "Human metapneumovirus RNA [Presence] in Respiratory system specimen by NAA with probe detection"
            }
          ],
          "text": "Human metapneumovirus RNA [Presence] in Respiratory system specimen by NAA with probe detection"
        },
        "status": "final",
        "subject": {
          "reference": "urn:uuid:71541cd5-9354-4c3c-bec5-48420400fcea"
        },
        "effectiveDateTime": "2024-11-18",
        "valueCodeableConcept": {
          "coding": [
            {
              "code": "260385009",
              "system": "http://snomed.info/sct",
              "display": "Negative"
            }
          ]
        },
        "specimen": {
          "reference": "urn:uuid:579e751c-f2fc-4732-954c-d7ef97891546"
        }
      }
    },
    {
      "fullUrl": "urn:uuid:f567786a-4653-4dfc-8c92-25f1f60ca6c9",
      "resource": {
        "resourceType": "Observation",
        "id": "f567786a-4653-4dfc-8c92-25f1f60ca6c9",
        "meta": {
          "profile": [
            "http://hl7.eu/fhir/laboratory/StructureDefinition/Observation-resultslab-eu-lab"
          ]
        },
        "performer": [
          {
            "display": "The Central European Lab"
          }
        ],
        "category": [
          {
            "coding": [
              {
                "code": "laboratory",
                "system": "http://terminology.hl7.org/CodeSystem/observation-category"
              }
            ]
          }
        ],
        "code": {
          "coding": [
            {
              "code": "94040-3",
              "system": "http://loinc.org",
              "display": "Adenovirus A+B+C+D+E DNA [Presence] in Respiratory system specimen by NAA with probe detection"
            }
          ],
          "text": "Adenovirus A+B+C+D+E DNA [Presence] in Respiratory system specimen by NAA with probe detection"
        },
        "status": "final",
        "subject": {
          "reference": "urn:uuid:71541cd5-9354-4c3c-bec5-48420400fcea"
        },
        "effectiveDateTime": "2024-11-18",
        "valueCodeableConcept": {
          "coding": [
            {
              "code": "260385009",
              "system": "http://snomed.info/sct",
              "display": "Negative"
            }
          ]
        },
        "specimen": {
          "reference": "urn:uuid:579e751c-f2fc-4732-954c-d7ef97891546"
        }
      }
    },
    {
      "fullUrl": "urn:uuid:2aa67204-fec7-4d33-8df9-927ef78e9355",
      "resource": {
        "resourceType": "Observation",
        "id": "2aa67204-fec7-4d33-8df9-927ef78e9355",
        "meta": {
          "profile": [
            "http://hl7.eu/fhir/laboratory/StructureDefinition/Observation-resultslab-eu-lab"
          ]
        },
        "performer": [
          {
            "display": "The Central European Lab"
          }
        ],
        "category": [
          {
            "coding": [
              {
                "code": "laboratory",
                "system": "http://terminology.hl7.org/CodeSystem/observation-category"
              }
            ]
          }
        ],
        "code": {
          "coding": [
            {
              "code": "94531-1",
              "system": "http://loinc.org",
              "display": "SARS-CoV-2 (COVID-19) RNA panel - Respiratory system specimen by NAA with probe detection"
            }
          ],
          "text": "SARS-CoV-2 (COVID-19) RNA panel - Respiratory system specimen by NAA with probe detection"
        },
        "status": "final",
        "subject": {
          "reference": "urn:uuid:71541cd5-9354-4c3c-bec5-48420400fcea"
        },
        "effectiveDateTime": "2024-11-18",
        "valueCodeableConcept": {
          "coding": [
            {
              "code": "260373001",
              "system": "http://snomed.info/sct",
              "display": "Detected"
            }
          ]
        },
        "specimen": {
          "reference": "urn:uuid:579e751c-f2fc-4732-954c-d7ef97891546"
        }
      }
    },
    {
      "fullUrl": "urn:uuid:2535090a-b97f-4f57-b3d9-fd697851bff5",
      "resource": {
        "resourceType": "Observation",
        "id": "2535090a-b97f-4f57-b3d9-fd697851bff5",
        "meta": {
          "profile": [
            "http://hl7.eu/fhir/laboratory/StructureDefinition/Observation-resultslab-eu-lab"
          ]
        },
        "performer": [
          {
            "display": "The Central European Lab"
          }
        ],
        "category": [
          {
            "coding": [
              {
                "code": "laboratory",
                "system": "http://terminology.hl7.org/CodeSystem/observation-category"
              }
            ]
          }
        ],
        "code": {
          "coding": [
            {
              "code": "2708-6",
              "system": "http://loinc.org",
              "display": "Oxygen saturation in Arterial blood"
            }
          ],
          "text": "Oxygen saturation in Arterial blood"
        },
        "valueQuantity": {
          "system": "http://unitsofmeasure.org",
          "value": 85.6,
          "unit": "%",
          "code": "%"
        },
        "referenceRange": [
          {
            "low": {
              "value": 95,
              "code": "%",
              "system": "http://unitsofmeasure.org"
            }
          },
          {
            "high": {
              "value": 100,
              "code": "%",
              "system": "http://unitsofmeasure.org"
            }
          }
        ],
        "interpretation": [
          {
            "coding": [
              {
                "code": "L",
                "system": "http://terminology.hl7.org/CodeSystem/v3-ObservationInterpretation",
                "display": "Low"
              }
            ]
          }
        ],
        "status": "final",
        "subject": {
          "reference": "urn:uuid:71541cd5-9354-4c3c-bec5-48420400fcea"
        },
        "effectiveDateTime": "2024-11-18",
        "specimen": {
          "reference": "urn:uuid:1b8acf04-ab10-4410-8fbd-3885477a5891"
        }
      }
    },
    {
      "fullUrl": "urn:uuid:838b9f9c-2078-4d50-85e6-ed1cad888332",
      "resource": {
        "resourceType": "Observation",
        "id": "838b9f9c-2078-4d50-85e6-ed1cad888332",
        "meta": {
          "profile": [
            "http://hl7.eu/fhir/laboratory/StructureDefinition/Observation-resultslab-eu-lab"
          ]
        },
        "performer": [
          {
            "display": "The Central European Lab"
          }
        ],
        "category": [
          {
            "coding": [
              {
                "code": "laboratory",
                "system": "http://terminology.hl7.org/CodeSystem/observation-category"
              }
            ]
          }
        ],
        "code": {
          "coding": [
            {
              "code": "6690-2",
              "system": "http://loinc.org",
              "display": "Leukocytes [#/volume] in Blood by Automated count"
            }
          ],
          "text": "Leukocytes [#/volume] in Blood by Automated count"
        },
        "valueQuantity": {
          "system": "http://unitsofmeasure.org",
          "value": 3.1,
          "unit": "10*3/uL",
          "code": "10*3/uL"
        },
        "referenceRange": [
          {
            "low": {
              "value": 3.4,
              "code": "10*3/uL",
              "system": "http://unitsofmeasure.org"
            }
          },
          {
            "high": {
              "value": 10.6,
              "code": "10*3/uL",
              "system": "http://unitsofmeasure.org"
            }
          }
        ],
        "interpretation": [
          {
            "coding": [
              {
                "code": "L",
                "system": "http://terminology.hl7.org/CodeSystem/v3-ObservationInterpretation",
                "display": "Low"
              }
            ]
          }
        ],
        "status": "final",
        "subject": {
          "reference": "urn:uuid:71541cd5-9354-4c3c-bec5-48420400fcea"
        },
        "effectiveDateTime": "2024-11-18",
        "specimen": {
          "reference": "urn:uuid:ef652533-ca68-47b0-bd22-97c336586df0"
        }
      }
    },
    {
      "fullUrl": "urn:uuid:61e7d96b-8fcd-4a36-94e6-9b621776e840",
      "resource": {
        "resourceType": "Observation",
        "id": "61e7d96b-8fcd-4a36-94e6-9b621776e840",
        "meta": {
          "profile": [
            "http://hl7.eu/fhir/laboratory/StructureDefinition/Observation-resultslab-eu-lab"
          ]
        },
        "performer": [
          {
            "display": "The Central European Lab"
          }
        ],
        "category": [
          {
            "coding": [
              {
                "code": "laboratory",
                "system": "http://terminology.hl7.org/CodeSystem/observation-category"
              }
            ]
          }
        ],
        "code": {
          "coding": [
            {
              "code": "789-8",
              "system": "http://loinc.org",
              "display": "Erythrocytes [#/volume] in Blood by Automated count"
            }
          ],
          "text": "Erythrocytes [#/volume] in Blood by Automated count"
        },
        "valueQuantity": {
          "system": "http://unitsofmeasure.org",
          "value": 4.2,
          "unit": "10*6/uL",
          "code": "10*6/uL"
        },
        "referenceRange": [
          {
            "low": {
              "value": 4.5,
              "code": "10*6/uL",
              "system": "http://unitsofmeasure.org"
            }
          },
          {
            "high": {
              "value": 5.7,
              "code": "10*6/uL",
              "system": "http://unitsofmeasure.org"
            }
          }
        ],
        "interpretation": [
          {
            "coding": [
              {
                "code": "L",
                "system": "http://terminology.hl7.org/CodeSystem/v3-ObservationInterpretation",
                "display": "Low"
              }
            ]
          }
        ],
        "status": "final",
        "subject": {
          "reference": "urn:uuid:71541cd5-9354-4c3c-bec5-48420400fcea"
        },
        "effectiveDateTime": "2024-11-18",
        "specimen": {
          "reference": "urn:uuid:ef652533-ca68-47b0-bd22-97c336586df0"
        }
      }
    },
    {
      "fullUrl": "urn:uuid:6ded89df-57ca-4d2e-bf2d-71175771fb84",
      "resource": {
        "resourceType": "Observation",
        "id": "6ded89df-57ca-4d2e-bf2d-71175771fb84",
        "meta": {
          "profile": [
            "http://hl7.eu/fhir/laboratory/StructureDefinition/Observation-resultslab-eu-lab"
          ]
        },
        "performer": [
          {
            "display": "The Central European Lab"
          }
        ],
        "category": [
          {
            "coding": [
              {
                "code": "laboratory",
                "system": "http://terminology.hl7.org/CodeSystem/observation-category"
              }
            ]
          }
        ],
        "code": {
          "coding": [
            {
              "code": "718-7",
              "system": "http://loinc.org",
              "display": "Hemoglobin [Mass/volume] in Blood"
            }
          ],
          "text": "Hemoglobin [Mass/volume] in Blood"
        },
        "valueQuantity": {
          "system": "http://unitsofmeasure.org",
          "value": 11.2,
          "unit": "g/dL",
          "code": "g/dL"
        },
        "referenceRange": [
          {
            "low": {
              "value": 13.5,
              "code": "g/dL",
              "system": "http://unitsofmeasure.org"
            }
          },
          {
            "high": {
              "value": 17.5,
              "code": "g/dL",
              "system": "http://unitsofmeasure.org"
            }
          }
        ],
        "interpretation": [
          {
            "coding": [
              {
                "code": "L",
                "system": "http://terminology.hl7.org/CodeSystem/v3-ObservationInterpretation",
                "display": "Low"
              }
            ]
          }
        ],
        "status": "final",
        "subject": {
          "reference": "urn:uuid:71541cd5-9354-4c3c-bec5-48420400fcea"
        },
        "effectiveDateTime": "2024-11-18",
        "specimen": {
          "reference": "urn:uuid:ef652533-ca68-47b0-bd22-97c336586df0"
        }
      }
    },
    {
      "fullUrl": "urn:uuid:b34fe472-8f6a-4b36-8d02-db81248023d3",
      "resource": {
        "resourceType": "Observation",
        "id": "b34fe472-8f6a-4b36-8d02-db81248023d3",
        "meta": {
          "profile": [
            "http://hl7.eu/fhir/laboratory/StructureDefinition/Observation-resultslab-eu-lab"
          ]
        },
        "performer": [
          {
            "display": "The Central European Lab"
          }
        ],
        "category": [
          {
            "coding": [
              {
                "code": "laboratory",
                "system": "http://terminology.hl7.org/CodeSystem/observation-category"
              }
            ]
          }
        ],
        "code": {
          "coding": [
            {
              "code": "4544-3",
              "system": "http://loinc.org",
              "display": "Hematocrit [Volume Fraction] of Blood by Automated count"
            }
          ],
          "text": "Hematocrit [Volume Fraction] of Blood by Automated count"
        },
        "valueQuantity": {
          "system": "http://unitsofmeasure.org",
          "value": 45.5,
          "unit": "%",
          "code": "%"
        },
        "referenceRange": [
          {
            "low": {
              "value": 37,
              "code": "%",
              "system": "http://unitsofmeasure.org"
            }
          },
          {
            "high": {
              "value": 52,
              "code": "%",
              "system": "http://unitsofmeasure.org"
            }
          }
        ],
        "status": "final",
        "subject": {
          "reference": "urn:uuid:71541cd5-9354-4c3c-bec5-48420400fcea"
        },
        "effectiveDateTime": "2024-11-18",
        "specimen": {
          "reference": "urn:uuid:ef652533-ca68-47b0-bd22-97c336586df0"
        }
      }
    },
    {
      "fullUrl": "urn:uuid:019fef43-8cad-47dc-83cd-f420f9e900bf",
      "resource": {
        "resourceType": "Observation",
        "id": "019fef43-8cad-47dc-83cd-f420f9e900bf",
        "meta": {
          "profile": [
            "http://hl7.eu/fhir/laboratory/StructureDefinition/Observation-resultslab-eu-lab"
          ]
        },
        "performer": [
          {
            "display": "The Central European Lab"
          }
        ],
        "category": [
          {
            "coding": [
              {
                "code": "laboratory",
                "system": "http://terminology.hl7.org/CodeSystem/observation-category"
              }
            ]
          }
        ],
        "code": {
          "coding": [
            {
              "code": "787-2",
              "system": "http://loinc.org",
              "display": "MCV [Entitic volume] by Automated count"
            }
          ],
          "text": "MCV [Entitic volume] by Automated count"
        },
        "valueQuantity": {
          "system": "http://unitsofmeasure.org",
          "value": 96.6,
          "unit": "fL",
          "code": "fL"
        },
        "referenceRange": [
          {
            "low": {
              "value": 82,
              "code": "fL",
              "system": "http://unitsofmeasure.org"
            }
          },
          {
            "high": {
              "value": 98,
              "code": "fL",
              "system": "http://unitsofmeasure.org"
            }
          }
        ],
        "status": "final",
        "subject": {
          "reference": "urn:uuid:71541cd5-9354-4c3c-bec5-48420400fcea"
        },
        "effectiveDateTime": "2024-11-18",
        "specimen": {
          "reference": "urn:uuid:d4de5720-6452-4aec-9eeb-1eb0759dd543"
        }
      }
    },
    {
      "fullUrl": "urn:uuid:2f1ccc8d-6d1d-4670-926d-a18755c1a177",
      "resource": {
        "resourceType": "Observation",
        "id": "2f1ccc8d-6d1d-4670-926d-a18755c1a177",
        "meta": {
          "profile": [
            "http://hl7.eu/fhir/laboratory/StructureDefinition/Observation-resultslab-eu-lab"
          ]
        },
        "performer": [
          {
            "display": "The Central European Lab"
          }
        ],
        "category": [
          {
            "coding": [
              {
                "code": "laboratory",
                "system": "http://terminology.hl7.org/CodeSystem/observation-category"
              }
            ]
          }
        ],
        "code": {
          "coding": [
            {
              "code": "785-6",
              "system": "http://loinc.org",
              "display": "MCH [Entitic mass] by Automated count"
            }
          ],
          "text": "MCH [Entitic mass] by Automated count"
        },
        "valueQuantity": {
          "system": "http://unitsofmeasure.org",
          "value": 27.1,
          "unit": "pg",
          "code": "pg"
        },
        "referenceRange": [
          {
            "low": {
              "value": 27,
              "code": "pg",
              "system": "http://unitsofmeasure.org"
            }
          },
          {
            "high": {
              "value": 33,
              "code": "pg",
              "system": "http://unitsofmeasure.org"
            }
          }
        ],
        "status": "final",
        "subject": {
          "reference": "urn:uuid:71541cd5-9354-4c3c-bec5-48420400fcea"
        },
        "effectiveDateTime": "2024-11-18",
        "specimen": {
          "reference": "urn:uuid:d4de5720-6452-4aec-9eeb-1eb0759dd543"
        }
      }
    },
    {
      "fullUrl": "urn:uuid:3eeda493-332a-4a3e-a953-924426f5f461",
      "resource": {
        "resourceType": "Observation",
        "id": "3eeda493-332a-4a3e-a953-924426f5f461",
        "meta": {
          "profile": [
            "http://hl7.eu/fhir/laboratory/StructureDefinition/Observation-resultslab-eu-lab"
          ]
        },
        "performer": [
          {
            "display": "The Central European Lab"
          }
        ],
        "category": [
          {
            "coding": [
              {
                "code": "laboratory",
                "system": "http://terminology.hl7.org/CodeSystem/observation-category"
              }
            ]
          }
        ],
        "code": {
          "coding": [
            {
              "code": "786-4",
              "system": "http://loinc.org",
              "display": "MCHC [Mass/volume] by Automated count"
            }
          ],
          "text": "MCHC [Mass/volume] by Automated count"
        },
        "valueQuantity": {
          "system": "http://unitsofmeasure.org",
          "value": 32.3,
          "unit": "g/dL",
          "code": "g/dL"
        },
        "referenceRange": [
          {
            "low": {
              "value": 31,
              "code": "g/dL",
              "system": "http://unitsofmeasure.org"
            }
          },
          {
            "high": {
              "value": 36,
              "code": "g/dL",
              "system": "http://unitsofmeasure.org"
            }
          }
        ],
        "status": "final",
        "subject": {
          "reference": "urn:uuid:71541cd5-9354-4c3c-bec5-48420400fcea"
        },
        "effectiveDateTime": "2024-11-18",
        "specimen": {
          "reference": "urn:uuid:d4de5720-6452-4aec-9eeb-1eb0759dd543"
        }
      }
    },
    {
      "fullUrl": "urn:uuid:ae53937f-7bd5-48a1-96a5-bd24223d4489",
      "resource": {
        "resourceType": "Observation",
        "id": "ae53937f-7bd5-48a1-96a5-bd24223d4489",
        "meta": {
          "profile": [
            "http://hl7.eu/fhir/laboratory/StructureDefinition/Observation-resultslab-eu-lab"
          ]
        },
        "performer": [
          {
            "display": "The Central European Lab"
          }
        ],
        "category": [
          {
            "coding": [
              {
                "code": "laboratory",
                "system": "http://terminology.hl7.org/CodeSystem/observation-category"
              }
            ]
          }
        ],
        "code": {
          "coding": [
            {
              "code": "788-0",
              "system": "http://loinc.org",
              "display": "Erythrocyte distribution width [Ratio] by Automated count"
            }
          ],
          "text": "Erythrocyte distribution width [Ratio] by Automated count"
        },
        "valueQuantity": {
          "system": "http://unitsofmeasure.org",
          "value": 14,
          "unit": "%",
          "code": "%"
        },
        "referenceRange": [
          {
            "low": {
              "value": 11.5,
              "code": "%",
              "system": "http://unitsofmeasure.org"
            }
          },
          {
            "high": {
              "value": 16,
              "code": "%",
              "system": "http://unitsofmeasure.org"
            }
          }
        ],
        "status": "final",
        "subject": {
          "reference": "urn:uuid:71541cd5-9354-4c3c-bec5-48420400fcea"
        },
        "effectiveDateTime": "2024-11-18",
        "specimen": {
          "reference": "urn:uuid:d4de5720-6452-4aec-9eeb-1eb0759dd543"
        }
      }
    },
    {
      "fullUrl": "urn:uuid:92a6bf91-1bd6-450b-a583-5f4d1a4f1fc0",
      "resource": {
        "resourceType": "Observation",
        "id": "92a6bf91-1bd6-450b-a583-5f4d1a4f1fc0",
        "meta": {
          "profile": [
            "http://hl7.eu/fhir/laboratory/StructureDefinition/Observation-resultslab-eu-lab"
          ]
        },
        "performer": [
          {
            "display": "The Central European Lab"
          }
        ],
        "category": [
          {
            "coding": [
              {
                "code": "laboratory",
                "system": "http://terminology.hl7.org/CodeSystem/observation-category"
              }
            ]
          }
        ],
        "code": {
          "coding": [
            {
              "code": "777-3",
              "system": "http://loinc.org",
              "display": "Platelets [#/volume] in Blood by Automated count"
            }
          ],
          "text": "Platelets [#/volume] in Blood by Automated count"
        },
        "valueQuantity": {
          "system": "http://unitsofmeasure.org",
          "value": 137.3,
          "unit": "10*3/uL",
          "code": "10*3/uL"
        },
        "referenceRange": [
          {
            "low": {
              "value": 150,
              "code": "10*3/uL",
              "system": "http://unitsofmeasure.org"
            }
          },
          {
            "high": {
              "value": 317,
              "code": "10*3/uL",
              "system": "http://unitsofmeasure.org"
            }
          }
        ],
        "interpretation": [
          {
            "coding": [
              {
                "code": "L",
                "system": "http://terminology.hl7.org/CodeSystem/v3-ObservationInterpretation",
                "display": "Low"
              }
            ]
          }
        ],
        "status": "final",
        "subject": {
          "reference": "urn:uuid:71541cd5-9354-4c3c-bec5-48420400fcea"
        },
        "effectiveDateTime": "2024-11-18",
        "specimen": {
          "reference": "urn:uuid:ef652533-ca68-47b0-bd22-97c336586df0"
        }
      }
    },
    {
      "fullUrl": "urn:uuid:cfef3199-c27e-4ba0-a3b2-474d7e53c748",
      "resource": {
        "resourceType": "Observation",
        "id": "cfef3199-c27e-4ba0-a3b2-474d7e53c748",
        "meta": {
          "profile": [
            "http://hl7.eu/fhir/laboratory/StructureDefinition/Observation-resultslab-eu-lab"
          ]
        },
        "performer": [
          {
            "display": "The Central European Lab"
          }
        ],
        "category": [
          {
            "coding": [
              {
                "code": "laboratory",
                "system": "http://terminology.hl7.org/CodeSystem/observation-category"
              }
            ]
          }
        ],
        "code": {
          "coding": [
            {
              "code": "770-8",
              "system": "http://loinc.org",
              "display": "Neutrophils/100 leukocytes in Blood by Automated count"
            }
          ],
          "text": "Neutrophils/100 leukocytes in Blood by Automated count"
        },
        "valueQuantity": {
          "system": "http://unitsofmeasure.org",
          "value": 18.1,
          "unit": "%",
          "code": "%"
        },
        "referenceRange": [
          {
            "low": {
              "value": 45,
              "code": "%",
              "system": "http://unitsofmeasure.org"
            }
          },
          {
            "high": {
              "value": 75,
              "code": "%",
              "system": "http://unitsofmeasure.org"
            }
          }
        ],
        "interpretation": [
          {
            "coding": [
              {
                "code": "L",
                "system": "http://terminology.hl7.org/CodeSystem/v3-ObservationInterpretation",
                "display": "Low"
              }
            ]
          }
        ],
        "status": "final",
        "subject": {
          "reference": "urn:uuid:71541cd5-9354-4c3c-bec5-48420400fcea"
        },
        "effectiveDateTime": "2024-11-18",
        "specimen": {
          "reference": "urn:uuid:ef652533-ca68-47b0-bd22-97c336586df0"
        }
      }
    },
    {
      "fullUrl": "urn:uuid:c602dfcc-7038-4861-bb0f-c2cbb3318c46",
      "resource": {
        "resourceType": "Observation",
        "id": "c602dfcc-7038-4861-bb0f-c2cbb3318c46",
        "meta": {
          "profile": [
            "http://hl7.eu/fhir/laboratory/StructureDefinition/Observation-resultslab-eu-lab"
          ]
        },
        "performer": [
          {
            "display": "The Central European Lab"
          }
        ],
        "category": [
          {
            "coding": [
              {
                "code": "laboratory",
                "system": "http://terminology.hl7.org/CodeSystem/observation-category"
              }
            ]
          }
        ],
        "code": {
          "coding": [
            {
              "code": "736-9",
              "system": "http://loinc.org",
              "display": "Lymphocytes/100 leukocytes in Blood by Automated count"
            }
          ],
          "text": "Lymphocytes/100 leukocytes in Blood by Automated count"
        },
        "valueQuantity": {
          "system": "http://unitsofmeasure.org",
          "value": 8.2,
          "unit": "%",
          "code": "%"
        },
        "referenceRange": [
          {
            "low": {
              "value": 20,
              "code": "%",
              "system": "http://unitsofmeasure.org"
            }
          },
          {
            "high": {
              "value": 45,
              "code": "%",
              "system": "http://unitsofmeasure.org"
            }
          }
        ],
        "interpretation": [
          {
            "coding": [
              {
                "code": "L",
                "system": "http://terminology.hl7.org/CodeSystem/v3-ObservationInterpretation",
                "display": "Low"
              }
            ]
          }
        ],
        "status": "final",
        "subject": {
          "reference": "urn:uuid:71541cd5-9354-4c3c-bec5-48420400fcea"
        },
        "effectiveDateTime": "2024-11-18",
        "specimen": {
          "reference": "urn:uuid:ef652533-ca68-47b0-bd22-97c336586df0"
        }
      }
    },
    {
      "fullUrl": "urn:uuid:0905a732-81fb-4cec-8e7f-252060de7a79",
      "resource": {
        "resourceType": "Observation",
        "id": "0905a732-81fb-4cec-8e7f-252060de7a79",
        "meta": {
          "profile": [
            "http://hl7.eu/fhir/laboratory/StructureDefinition/Observation-resultslab-eu-lab"
          ]
        },
        "performer": [
          {
            "display": "The Central European Lab"
          }
        ],
        "category": [
          {
            "coding": [
              {
                "code": "laboratory",
                "system": "http://terminology.hl7.org/CodeSystem/observation-category"
              }
            ]
          }
        ],
        "code": {
          "coding": [
            {
              "code": "5905-5",
              "system": "http://loinc.org",
              "display": "Monocytes/100 leukocytes in Blood by Automated count"
            }
          ],
          "text": "Monocytes/100 leukocytes in Blood by Automated count"
        },
        "valueQuantity": {
          "system": "http://unitsofmeasure.org",
          "value": 14.9,
          "unit": "%",
          "code": "%"
        },
        "referenceRange": [
          {
            "low": {
              "value": 3,
              "code": "%",
              "system": "http://unitsofmeasure.org"
            }
          },
          {
            "high": {
              "value": 10,
              "code": "%",
              "system": "http://unitsofmeasure.org"
            }
          }
        ],
        "interpretation": [
          {
            "coding": [
              {
                "code": "H",
                "system": "http://terminology.hl7.org/CodeSystem/v3-ObservationInterpretation",
                "display": "High"
              }
            ]
          }
        ],
        "status": "final",
        "subject": {
          "reference": "urn:uuid:71541cd5-9354-4c3c-bec5-48420400fcea"
        },
        "effectiveDateTime": "2024-11-18",
        "specimen": {
          "reference": "urn:uuid:ef652533-ca68-47b0-bd22-97c336586df0"
        }
      }
    },
    {
      "fullUrl": "urn:uuid:ac42b2ee-2c06-4372-960b-200b804c7fce",
      "resource": {
        "resourceType": "Observation",
        "id": "ac42b2ee-2c06-4372-960b-200b804c7fce",
        "meta": {
          "profile": [
            "http://hl7.eu/fhir/laboratory/StructureDefinition/Observation-resultslab-eu-lab"
          ]
        },
        "performer": [
          {
            "display": "The Central European Lab"
          }
        ],
        "category": [
          {
            "coding": [
              {
                "code": "laboratory",
                "system": "http://terminology.hl7.org/CodeSystem/observation-category"
              }
            ]
          }
        ],
        "code": {
          "coding": [
            {
              "code": "713-8",
              "system": "http://loinc.org",
              "display": "Eosinophils/100 leukocytes in Blood by Automated count"
            }
          ],
          "text": "Eosinophils/100 leukocytes in Blood by Automated count"
        },
        "valueQuantity": {
          "system": "http://unitsofmeasure.org",
          "value": 3.3,
          "unit": "%",
          "code": "%"
        },
        "referenceRange": [
          {
            "low": {
              "value": 0,
              "code": "%",
              "system": "http://unitsofmeasure.org"
            }
          },
          {
            "high": {
              "value": 7,
              "code": "%",
              "system": "http://unitsofmeasure.org"
            }
          }
        ],
        "status": "final",
        "subject": {
          "reference": "urn:uuid:71541cd5-9354-4c3c-bec5-48420400fcea"
        },
        "effectiveDateTime": "2024-11-18",
        "specimen": {
          "reference": "urn:uuid:ef652533-ca68-47b0-bd22-97c336586df0"
        }
      }
    },
    {
      "fullUrl": "urn:uuid:0d546569-5765-4882-ad2d-58057597afa4",
      "resource": {
        "resourceType": "Observation",
        "id": "0d546569-5765-4882-ad2d-58057597afa4",
        "meta": {
          "profile": [
            "http://hl7.eu/fhir/laboratory/StructureDefinition/Observation-resultslab-eu-lab"
          ]
        },
        "performer": [
          {
            "display": "The Central European Lab"
          }
        ],
        "category": [
          {
            "coding": [
              {
                "code": "laboratory",
                "system": "http://terminology.hl7.org/CodeSystem/observation-category"
              }
            ]
          }
        ],
        "code": {
          "coding": [
            {
              "code": "706-2",
              "system": "http://loinc.org",
              "display": "Basophils/100 leukocytes in Blood by Automated count"
            }
          ],
          "text": "Basophils/100 leukocytes in Blood by Automated count"
        },
        "valueQuantity": {
          "system": "http://unitsofmeasure.org",
          "value": 3,
          "unit": "%",
          "code": "%"
        },
        "referenceRange": [
          {
            "low": {
              "value": 0,
              "code": "%",
              "system": "http://unitsofmeasure.org"
            }
          },
          {
            "high": {
              "value": 3,
              "code": "%",
              "system": "http://unitsofmeasure.org"
            }
          }
        ],
        "status": "final",
        "subject": {
          "reference": "urn:uuid:71541cd5-9354-4c3c-bec5-48420400fcea"
        },
        "effectiveDateTime": "2024-11-18",
        "specimen": {
          "reference": "urn:uuid:ef652533-ca68-47b0-bd22-97c336586df0"
        }
      }
    },
    {
      "fullUrl": "urn:uuid:e93ba20e-5ca1-447b-8f41-aad38bdef05d",
      "resource": {
        "resourceType": "Observation",
        "id": "e93ba20e-5ca1-447b-8f41-aad38bdef05d",
        "meta": {
          "profile": [
            "http://hl7.eu/fhir/laboratory/StructureDefinition/Observation-resultslab-eu-lab"
          ]
        },
        "performer": [
          {
            "display": "The Central European Lab"
          }
        ],
        "category": [
          {
            "coding": [
              {
                "code": "laboratory",
                "system": "http://terminology.hl7.org/CodeSystem/observation-category"
              }
            ]
          }
        ],
        "code": {
          "coding": [
            {
              "code": "751-8",
              "system": "http://loinc.org",
              "display": "Neutrophils [#/volume] in Blood by Automated count"
            }
          ],
          "text": "Neutrophils [#/volume] in Blood by Automated count"
        },
        "valueQuantity": {
          "system": "http://unitsofmeasure.org",
          "value": 3.2,
          "unit": "10*3/uL",
          "code": "10*3/uL"
        },
        "referenceRange": [
          {
            "low": {
              "value": 2,
              "code": "10*3/uL",
              "system": "http://unitsofmeasure.org"
            }
          },
          {
            "high": {
              "value": 7,
              "code": "10*3/uL",
              "system": "http://unitsofmeasure.org"
            }
          }
        ],
        "status": "final",
        "subject": {
          "reference": "urn:uuid:71541cd5-9354-4c3c-bec5-48420400fcea"
        },
        "effectiveDateTime": "2024-11-18",
        "specimen": {
          "reference": "urn:uuid:ef652533-ca68-47b0-bd22-97c336586df0"
        }
      }
    },
    {
      "fullUrl": "urn:uuid:277c23c3-4d51-48e6-8476-ec72c4f89890",
      "resource": {
        "resourceType": "Observation",
        "id": "277c23c3-4d51-48e6-8476-ec72c4f89890",
        "meta": {
          "profile": [
            "http://hl7.eu/fhir/laboratory/StructureDefinition/Observation-resultslab-eu-lab"
          ]
        },
        "performer": [
          {
            "display": "The Central European Lab"
          }
        ],
        "category": [
          {
            "coding": [
              {
                "code": "laboratory",
                "system": "http://terminology.hl7.org/CodeSystem/observation-category"
              }
            ]
          }
        ],
        "code": {
          "coding": [
            {
              "code": "731-0",
              "system": "http://loinc.org",
              "display": "Lymphocytes [#/volume] in Blood by Automated count"
            }
          ],
          "text": "Lymphocytes [#/volume] in Blood by Automated count"
        },
        "valueQuantity": {
          "system": "http://unitsofmeasure.org",
          "value": 1.1,
          "unit": "10*3/uL",
          "code": "10*3/uL"
        },
        "referenceRange": [
          {
            "low": {
              "value": 1,
              "code": "10*3/uL",
              "system": "http://unitsofmeasure.org"
            }
          },
          {
            "high": {
              "value": 4,
              "code": "10*3/uL",
              "system": "http://unitsofmeasure.org"
            }
          }
        ],
        "status": "final",
        "subject": {
          "reference": "urn:uuid:71541cd5-9354-4c3c-bec5-48420400fcea"
        },
        "effectiveDateTime": "2024-11-18",
        "specimen": {
          "reference": "urn:uuid:ef652533-ca68-47b0-bd22-97c336586df0"
        }
      }
    },
    {
      "fullUrl": "urn:uuid:cacf0c28-0d6f-41be-9ea4-9a358cee2c0b",
      "resource": {
        "resourceType": "Observation",
        "id": "cacf0c28-0d6f-41be-9ea4-9a358cee2c0b",
        "meta": {
          "profile": [
            "http://hl7.eu/fhir/laboratory/StructureDefinition/Observation-resultslab-eu-lab"
          ]
        },
        "performer": [
          {
            "display": "The Central European Lab"
          }
        ],
        "category": [
          {
            "coding": [
              {
                "code": "laboratory",
                "system": "http://terminology.hl7.org/CodeSystem/observation-category"
              }
            ]
          }
        ],
        "code": {
          "coding": [
            {
              "code": "742-7",
              "system": "http://loinc.org",
              "display": "Monocytes [#/volume] in Blood by Automated count"
            }
          ],
          "text": "Monocytes [#/volume] in Blood by Automated count"
        },
        "valueQuantity": {
          "system": "http://unitsofmeasure.org",
          "value": 1.1,
          "unit": "10*3/uL",
          "code": "10*3/uL"
        },
        "referenceRange": [
          {
            "low": {
              "value": 0.7,
              "code": "10*3/uL",
              "system": "http://unitsofmeasure.org"
            }
          },
          {
            "high": {
              "value": 0.9,
              "code": "10*3/uL",
              "system": "http://unitsofmeasure.org"
            }
          }
        ],
        "interpretation": [
          {
            "coding": [
              {
                "code": "H",
                "system": "http://terminology.hl7.org/CodeSystem/v3-ObservationInterpretation",
                "display": "High"
              }
            ]
          }
        ],
        "status": "final",
        "subject": {
          "reference": "urn:uuid:71541cd5-9354-4c3c-bec5-48420400fcea"
        },
        "effectiveDateTime": "2024-11-18",
        "specimen": {
          "reference": "urn:uuid:ef652533-ca68-47b0-bd22-97c336586df0"
        }
      }
    },
    {
      "fullUrl": "urn:uuid:c3ddd102-057c-431a-89f9-0734126eef92",
      "resource": {
        "resourceType": "Observation",
        "id": "c3ddd102-057c-431a-89f9-0734126eef92",
        "meta": {
          "profile": [
            "http://hl7.eu/fhir/laboratory/StructureDefinition/Observation-resultslab-eu-lab"
          ]
        },
        "performer": [
          {
            "display": "The Central European Lab"
          }
        ],
        "category": [
          {
            "coding": [
              {
                "code": "laboratory",
                "system": "http://terminology.hl7.org/CodeSystem/observation-category"
              }
            ]
          }
        ],
        "code": {
          "coding": [
            {
              "code": "711-2",
              "system": "http://loinc.org",
              "display": "Eosinophils [#/volume] in Blood by Automated count"
            }
          ],
          "text": "Eosinophils [#/volume] in Blood by Automated count"
        },
        "valueQuantity": {
          "system": "http://unitsofmeasure.org",
          "value": 0.4,
          "unit": "10*3/uL",
          "code": "10*3/uL"
        },
        "referenceRange": [
          {
            "low": {
              "value": 0,
              "code": "10*3/uL",
              "system": "http://unitsofmeasure.org"
            }
          },
          {
            "high": {
              "value": 0.7,
              "code": "10*3/uL",
              "system": "http://unitsofmeasure.org"
            }
          }
        ],
        "status": "final",
        "subject": {
          "reference": "urn:uuid:71541cd5-9354-4c3c-bec5-48420400fcea"
        },
        "effectiveDateTime": "2024-11-18",
        "specimen": {
          "reference": "urn:uuid:ef652533-ca68-47b0-bd22-97c336586df0"
        }
      }
    },
    {
      "fullUrl": "urn:uuid:baf667c9-782a-4977-9189-dbc894539d56",
      "resource": {
        "resourceType": "Observation",
        "id": "baf667c9-782a-4977-9189-dbc894539d56",
        "meta": {
          "profile": [
            "http://hl7.eu/fhir/laboratory/StructureDefinition/Observation-resultslab-eu-lab"
          ]
        },
        "performer": [
          {
            "display": "The Central European Lab"
          }
        ],
        "category": [
          {
            "coding": [
              {
                "code": "laboratory",
                "system": "http://terminology.hl7.org/CodeSystem/observation-category"
              }
            ]
          }
        ],
        "code": {
          "coding": [
            {
              "code": "704-7",
              "system": "http://loinc.org",
              "display": "Basophils [#/volume] in Blood by Automated count"
            }
          ],
          "text": "Basophils [#/volume] in Blood by Automated count"
        },
        "valueQuantity": {
          "system": "http://unitsofmeasure.org",
          "value": 0.3,
          "unit": "10*3/uL",
          "code": "10*3/uL"
        },
        "referenceRange": [
          {
            "low": {
              "value": 0.1,
              "code": "10*3/uL",
              "system": "http://unitsofmeasure.org"
            }
          },
          {
            "high": {
              "value": 0.2,
              "code": "10*3/uL",
              "system": "http://unitsofmeasure.org"
            }
          }
        ],
        "interpretation": [
          {
            "coding": [
              {
                "code": "H",
                "system": "http://terminology.hl7.org/CodeSystem/v3-ObservationInterpretation",
                "display": "High"
              }
            ]
          }
        ],
        "status": "final",
        "subject": {
          "reference": "urn:uuid:71541cd5-9354-4c3c-bec5-48420400fcea"
        },
        "effectiveDateTime": "2024-11-18",
        "specimen": {
          "reference": "urn:uuid:ef652533-ca68-47b0-bd22-97c336586df0"
        }
      }
    },
    {
      "fullUrl": "urn:uuid:daff25c2-5d2c-4695-bb75-2740e8784e01",
      "resource": {
        "resourceType": "Observation",
        "id": "daff25c2-5d2c-4695-bb75-2740e8784e01",
        "meta": {
          "profile": [
            "http://hl7.eu/fhir/laboratory/StructureDefinition/Observation-resultslab-eu-lab"
          ]
        },
        "performer": [
          {
            "display": "The Central European Lab"
          }
        ],
        "category": [
          {
            "coding": [
              {
                "code": "laboratory",
                "system": "http://terminology.hl7.org/CodeSystem/observation-category"
              }
            ]
          }
        ],
        "code": {
          "coding": [
            {
              "code": "2345-7",
              "system": "http://loinc.org",
              "display": "Glucose [Mass/volume] in Serum or Plasma"
            }
          ],
          "text": "Glucose [Mass/volume] in Serum or Plasma"
        },
        "valueQuantity": {
          "system": "http://unitsofmeasure.org",
          "value": 81.7,
          "unit": "mg/dL",
          "code": "mg/dL"
        },
        "referenceRange": [
          {
            "low": {
              "value": 70,
              "code": "mg/dL",
              "system": "http://unitsofmeasure.org"
            }
          },
          {
            "high": {
              "value": 140,
              "code": "mg/dL",
              "system": "http://unitsofmeasure.org"
            }
          }
        ],
        "status": "final",
        "subject": {
          "reference": "urn:uuid:71541cd5-9354-4c3c-bec5-48420400fcea"
        },
        "effectiveDateTime": "2024-11-18",
        "specimen": {
          "reference": "urn:uuid:21dea01c-387c-4272-bb04-02e482797933"
        }
      }
    },
    {
      "fullUrl": "urn:uuid:7541e418-d5f8-432b-b0b2-8336fc68bd2c",
      "resource": {
        "resourceType": "Observation",
        "id": "7541e418-d5f8-432b-b0b2-8336fc68bd2c",
        "meta": {
          "profile": [
            "http://hl7.eu/fhir/laboratory/StructureDefinition/Observation-resultslab-eu-lab"
          ]
        },
        "performer": [
          {
            "display": "The Central European Lab"
          }
        ],
        "category": [
          {
            "coding": [
              {
                "code": "laboratory",
                "system": "http://terminology.hl7.org/CodeSystem/observation-category"
              }
            ]
          }
        ],
        "code": {
          "coding": [
            {
              "code": "3094-0",
              "system": "http://loinc.org",
              "display": "Urea nitrogen [Mass/volume] in Serum or Plasma"
            }
          ],
          "text": "Urea nitrogen [Mass/volume] in Serum or Plasma"
        },
        "valueQuantity": {
          "system": "http://unitsofmeasure.org",
          "value": 9.8,
          "unit": "mg/dL",
          "code": "mg/dL"
        },
        "referenceRange": [
          {
            "low": {
              "value": 7,
              "code": "mg/dL",
              "system": "http://unitsofmeasure.org"
            }
          },
          {
            "high": {
              "value": 20,
              "code": "mg/dL",
              "system": "http://unitsofmeasure.org"
            }
          }
        ],
        "status": "final",
        "subject": {
          "reference": "urn:uuid:71541cd5-9354-4c3c-bec5-48420400fcea"
        },
        "effectiveDateTime": "2024-11-18",
        "specimen": {
          "reference": "urn:uuid:21dea01c-387c-4272-bb04-02e482797933"
        }
      }
    },
    {
      "fullUrl": "urn:uuid:c0ff5251-9c5d-424b-a209-850433e6ab3b",
      "resource": {
        "resourceType": "Observation",
        "id": "c0ff5251-9c5d-424b-a209-850433e6ab3b",
        "meta": {
          "profile": [
            "http://hl7.eu/fhir/laboratory/StructureDefinition/Observation-resultslab-eu-lab"
          ]
        },
        "performer": [
          {
            "display": "The Central European Lab"
          }
        ],
        "category": [
          {
            "coding": [
              {
                "code": "laboratory",
                "system": "http://terminology.hl7.org/CodeSystem/observation-category"
              }
            ]
          }
        ],
        "code": {
          "coding": [
            {
              "code": "2160-0",
              "system": "http://loinc.org",
              "display": "Creatinine [Mass/volume] in Serum or Plasma"
            }
          ],
          "text": "Creatinine [Mass/volume] in Serum or Plasma"
        },
        "valueQuantity": {
          "system": "http://unitsofmeasure.org",
          "value": 2.5,
          "unit": "mg/dL",
          "code": "mg/dL"
        },
        "referenceRange": [
          {
            "low": {
              "value": 0.9,
              "code": "mg/dL",
              "system": "http://unitsofmeasure.org"
            }
          },
          {
            "high": {
              "value": 1.3,
              "code": "mg/dL",
              "system": "http://unitsofmeasure.org"
            }
          }
        ],
        "interpretation": [
          {
            "coding": [
              {
                "code": "H",
                "system": "http://terminology.hl7.org/CodeSystem/v3-ObservationInterpretation",
                "display": "High"
              }
            ]
          }
        ],
        "status": "final",
        "subject": {
          "reference": "urn:uuid:71541cd5-9354-4c3c-bec5-48420400fcea"
        },
        "effectiveDateTime": "2024-11-18",
        "specimen": {
          "reference": "urn:uuid:21dea01c-387c-4272-bb04-02e482797933"
        }
      }
    },
    {
      "fullUrl": "urn:uuid:e2e2af0c-d956-431d-9b47-417132323d8d",
      "resource": {
        "resourceType": "Observation",
        "id": "e2e2af0c-d956-431d-9b47-417132323d8d",
        "meta": {
          "profile": [
            "http://hl7.eu/fhir/laboratory/StructureDefinition/Observation-resultslab-eu-lab"
          ]
        },
        "performer": [
          {
            "display": "The Central European Lab"
          }
        ],
        "category": [
          {
            "coding": [
              {
                "code": "laboratory",
                "system": "http://terminology.hl7.org/CodeSystem/observation-category"
              }
            ]
          }
        ],
        "code": {
          "coding": [
            {
              "code": "17861-6",
              "system": "http://loinc.org",
              "display": "Calcium [Mass/volume] in Serum or Plasma"
            }
          ],
          "text": "Calcium [Mass/volume] in Serum or Plasma"
        },
        "valueQuantity": {
          "system": "http://unitsofmeasure.org",
          "value": 9,
          "unit": "mg/dL",
          "code": "mg/dL"
        },
        "referenceRange": [
          {
            "low": {
              "value": 8.5,
              "code": "mg/dL",
              "system": "http://unitsofmeasure.org"
            }
          },
          {
            "high": {
              "value": 10.5,
              "code": "mg/dL",
              "system": "http://unitsofmeasure.org"
            }
          }
        ],
        "status": "final",
        "subject": {
          "reference": "urn:uuid:71541cd5-9354-4c3c-bec5-48420400fcea"
        },
        "effectiveDateTime": "2024-11-18",
        "specimen": {
          "reference": "urn:uuid:21dea01c-387c-4272-bb04-02e482797933"
        }
      }
    },
    {
      "fullUrl": "urn:uuid:d71dc05b-9977-4b86-8b10-eba6e1dc6084",
      "resource": {
        "resourceType": "Observation",
        "id": "d71dc05b-9977-4b86-8b10-eba6e1dc6084",
        "meta": {
          "profile": [
            "http://hl7.eu/fhir/laboratory/StructureDefinition/Observation-resultslab-eu-lab"
          ]
        },
        "performer": [
          {
            "display": "The Central European Lab"
          }
        ],
        "category": [
          {
            "coding": [
              {
                "code": "laboratory",
                "system": "http://terminology.hl7.org/CodeSystem/observation-category"
              }
            ]
          }
        ],
        "code": {
          "coding": [
            {
              "code": "2951-2",
              "system": "http://loinc.org",
              "display": "Sodium [Moles/volume] in Serum or Plasma"
            }
          ],
          "text": "Sodium [Moles/volume] in Serum or Plasma"
        },
        "valueQuantity": {
          "system": "http://unitsofmeasure.org",
          "value": 138,
          "unit": "mmol/L",
          "code": "mmol/L"
        },
        "referenceRange": [
          {
            "low": {
              "value": 135,
              "code": "mmol/L",
              "system": "http://unitsofmeasure.org"
            }
          },
          {
            "high": {
              "value": 145,
              "code": "mmol/L",
              "system": "http://unitsofmeasure.org"
            }
          }
        ],
        "status": "final",
        "subject": {
          "reference": "urn:uuid:71541cd5-9354-4c3c-bec5-48420400fcea"
        },
        "effectiveDateTime": "2024-11-18",
        "specimen": {
          "reference": "urn:uuid:21dea01c-387c-4272-bb04-02e482797933"
        }
      }
    },
    {
      "fullUrl": "urn:uuid:da4111c1-8cea-4851-b095-87d765ce0dc8",
      "resource": {
        "resourceType": "Observation",
        "id": "da4111c1-8cea-4851-b095-87d765ce0dc8",
        "meta": {
          "profile": [
            "http://hl7.eu/fhir/laboratory/StructureDefinition/Observation-resultslab-eu-lab"
          ]
        },
        "performer": [
          {
            "display": "The Central European Lab"
          }
        ],
        "category": [
          {
            "coding": [
              {
                "code": "laboratory",
                "system": "http://terminology.hl7.org/CodeSystem/observation-category"
              }
            ]
          }
        ],
        "code": {
          "coding": [
            {
              "code": "2823-3",
              "system": "http://loinc.org",
              "display": "Potassium [Moles/volume] in Serum or Plasma"
            }
          ],
          "text": "Potassium [Moles/volume] in Serum or Plasma"
        },
        "valueQuantity": {
          "system": "http://unitsofmeasure.org",
          "value": 3.8,
          "unit": "mmol/L",
          "code": "mmol/L"
        },
        "referenceRange": [
          {
            "low": {
              "value": 3.5,
              "code": "mmol/L",
              "system": "http://unitsofmeasure.org"
            }
          },
          {
            "high": {
              "value": 5,
              "code": "mmol/L",
              "system": "http://unitsofmeasure.org"
            }
          }
        ],
        "status": "final",
        "subject": {
          "reference": "urn:uuid:71541cd5-9354-4c3c-bec5-48420400fcea"
        },
        "effectiveDateTime": "2024-11-18",
        "specimen": {
          "reference": "urn:uuid:21dea01c-387c-4272-bb04-02e482797933"
        }
      }
    },
    {
      "fullUrl": "urn:uuid:ef14aa1f-09a5-4a86-95b8-78208718074c",
      "resource": {
        "resourceType": "Observation",
        "id": "ef14aa1f-09a5-4a86-95b8-78208718074c",
        "meta": {
          "profile": [
            "http://hl7.eu/fhir/laboratory/StructureDefinition/Observation-resultslab-eu-lab"
          ]
        },
        "performer": [
          {
            "display": "The Central European Lab"
          }
        ],
        "category": [
          {
            "coding": [
              {
                "code": "laboratory",
                "system": "http://terminology.hl7.org/CodeSystem/observation-category"
              }
            ]
          }
        ],
        "code": {
          "coding": [
            {
              "code": "2075-0",
              "system": "http://loinc.org",
              "display": "Chloride [Moles/volume] in Serum or Plasma"
            }
          ],
          "text": "Chloride [Moles/volume] in Serum or Plasma"
        },
        "valueQuantity": {
          "system": "http://unitsofmeasure.org",
          "value": 105.2,
          "unit": "mmol/L",
          "code": "mmol/L"
        },
        "referenceRange": [
          {
            "low": {
              "value": 98,
              "code": "mmol/L",
              "system": "http://unitsofmeasure.org"
            }
          },
          {
            "high": {
              "value": 108,
              "code": "mmol/L",
              "system": "http://unitsofmeasure.org"
            }
          }
        ],
        "status": "final",
        "subject": {
          "reference": "urn:uuid:71541cd5-9354-4c3c-bec5-48420400fcea"
        },
        "effectiveDateTime": "2024-11-18",
        "specimen": {
          "reference": "urn:uuid:21dea01c-387c-4272-bb04-02e482797933"
        }
      }
    },
    {
      "fullUrl": "urn:uuid:e05d90e8-759c-4f43-9d37-acaaf3c16296",
      "resource": {
        "resourceType": "Observation",
        "id": "e05d90e8-759c-4f43-9d37-acaaf3c16296",
        "meta": {
          "profile": [
            "http://hl7.eu/fhir/laboratory/StructureDefinition/Observation-resultslab-eu-lab"
          ]
        },
        "performer": [
          {
            "display": "The Central European Lab"
          }
        ],
        "category": [
          {
            "coding": [
              {
                "code": "laboratory",
                "system": "http://terminology.hl7.org/CodeSystem/observation-category"
              }
            ]
          }
        ],
        "code": {
          "coding": [
            {
              "code": "2028-9",
              "system": "http://loinc.org",
              "display": "Carbon dioxide, total [Moles/volume] in Serum or Plasma"
            }
          ],
          "text": "Carbon dioxide, total [Moles/volume] in Serum or Plasma"
        },
        "valueQuantity": {
          "system": "http://unitsofmeasure.org",
          "value": 28.8,
          "unit": "mmol/L",
          "code": "mmol/L"
        },
        "referenceRange": [
          {
            "low": {
              "value": 22,
              "code": "mmol/L",
              "system": "http://unitsofmeasure.org"
            }
          },
          {
            "high": {
              "value": 32,
              "code": "mmol/L",
              "system": "http://unitsofmeasure.org"
            }
          }
        ],
        "status": "final",
        "subject": {
          "reference": "urn:uuid:71541cd5-9354-4c3c-bec5-48420400fcea"
        },
        "effectiveDateTime": "2024-11-18",
        "specimen": {
          "reference": "urn:uuid:21dea01c-387c-4272-bb04-02e482797933"
        }
      }
    },
    {
      "fullUrl": "urn:uuid:8198a0d4-7bd7-4ca5-9fc4-00955010c29d",
      "resource": {
        "resourceType": "Observation",
        "id": "8198a0d4-7bd7-4ca5-9fc4-00955010c29d",
        "meta": {
          "profile": [
            "http://hl7.eu/fhir/laboratory/StructureDefinition/Observation-resultslab-eu-lab"
          ]
        },
        "performer": [
          {
            "display": "The Central European Lab"
          }
        ],
        "category": [
          {
            "coding": [
              {
                "code": "laboratory",
                "system": "http://terminology.hl7.org/CodeSystem/observation-category"
              }
            ]
          }
        ],
        "code": {
          "coding": [
            {
              "code": "2885-2",
              "system": "http://loinc.org",
              "display": "Protein [Mass/volume] in Serum or Plasma"
            }
          ],
          "text": "Protein [Mass/volume] in Serum or Plasma"
        },
        "valueQuantity": {
          "system": "http://unitsofmeasure.org",
          "value": 7.5,
          "unit": "g/dL",
          "code": "g/dL"
        },
        "referenceRange": [
          {
            "low": {
              "value": 6,
              "code": "g/dL",
              "system": "http://unitsofmeasure.org"
            }
          },
          {
            "high": {
              "value": 8.3,
              "code": "g/dL",
              "system": "http://unitsofmeasure.org"
            }
          }
        ],
        "status": "final",
        "subject": {
          "reference": "urn:uuid:71541cd5-9354-4c3c-bec5-48420400fcea"
        },
        "effectiveDateTime": "2024-11-18",
        "specimen": {
          "reference": "urn:uuid:21dea01c-387c-4272-bb04-02e482797933"
        }
      }
    },
    {
      "fullUrl": "urn:uuid:3ac4b4b5-28b2-4e84-9440-f02b3e14e209",
      "resource": {
        "resourceType": "Observation",
        "id": "3ac4b4b5-28b2-4e84-9440-f02b3e14e209",
        "meta": {
          "profile": [
            "http://hl7.eu/fhir/laboratory/StructureDefinition/Observation-resultslab-eu-lab"
          ]
        },
        "performer": [
          {
            "display": "The Central European Lab"
          }
        ],
        "category": [
          {
            "coding": [
              {
                "code": "laboratory",
                "system": "http://terminology.hl7.org/CodeSystem/observation-category"
              }
            ]
          }
        ],
        "code": {
          "coding": [
            {
              "code": "1751-7",
              "system": "http://loinc.org",
              "display": "Albumin [Mass/volume] in Serum or Plasma"
            }
          ],
          "text": "Albumin [Mass/volume] in Serum or Plasma"
        },
        "valueQuantity": {
          "system": "http://unitsofmeasure.org",
          "value": 5.2,
          "unit": "g/dL",
          "code": "g/dL"
        },
        "referenceRange": [
          {
            "low": {
              "value": 3.5,
              "code": "g/dL",
              "system": "http://unitsofmeasure.org"
            }
          },
          {
            "high": {
              "value": 5.5,
              "code": "g/dL",
              "system": "http://unitsofmeasure.org"
            }
          }
        ],
        "status": "final",
        "subject": {
          "reference": "urn:uuid:71541cd5-9354-4c3c-bec5-48420400fcea"
        },
        "effectiveDateTime": "2024-11-18",
        "specimen": {
          "reference": "urn:uuid:21dea01c-387c-4272-bb04-02e482797933"
        }
      }
    },
    {
      "fullUrl": "urn:uuid:2be9d43f-605a-4600-b4f0-113c30f2d4a4",
      "resource": {
        "resourceType": "Observation",
        "id": "2be9d43f-605a-4600-b4f0-113c30f2d4a4",
        "meta": {
          "profile": [
            "http://hl7.eu/fhir/laboratory/StructureDefinition/Observation-resultslab-eu-lab"
          ]
        },
        "performer": [
          {
            "display": "The Central European Lab"
          }
        ],
        "category": [
          {
            "coding": [
              {
                "code": "laboratory",
                "system": "http://terminology.hl7.org/CodeSystem/observation-category"
              }
            ]
          }
        ],
        "code": {
          "coding": [
            {
              "code": "1975-2",
              "system": "http://loinc.org",
              "display": "Bilirubin.total [Mass/volume] in Serum or Plasma"
            }
          ],
          "text": "Bilirubin.total [Mass/volume] in Serum or Plasma"
        },
        "valueQuantity": {
          "system": "http://unitsofmeasure.org",
          "value": 9.5,
          "unit": "mg/dL",
          "code": "mg/dL"
        },
        "referenceRange": [
          {
            "low": {
              "value": 0.3,
              "code": "mg/dL",
              "system": "http://unitsofmeasure.org"
            }
          },
          {
            "high": {
              "value": 1.2,
              "code": "mg/dL",
              "system": "http://unitsofmeasure.org"
            }
          }
        ],
        "interpretation": [
          {
            "coding": [
              {
                "code": "H",
                "system": "http://terminology.hl7.org/CodeSystem/v3-ObservationInterpretation",
                "display": "High"
              }
            ]
          }
        ],
        "status": "final",
        "subject": {
          "reference": "urn:uuid:71541cd5-9354-4c3c-bec5-48420400fcea"
        },
        "effectiveDateTime": "2024-11-18",
        "specimen": {
          "reference": "urn:uuid:21dea01c-387c-4272-bb04-02e482797933"
        }
      }
    },
    {
      "fullUrl": "urn:uuid:f1f38135-64d1-4e6c-9248-944c35591889",
      "resource": {
        "resourceType": "Observation",
        "id": "f1f38135-64d1-4e6c-9248-944c35591889",
        "meta": {
          "profile": [
            "http://hl7.eu/fhir/laboratory/StructureDefinition/Observation-resultslab-eu-lab"
          ]
        },
        "performer": [
          {
            "display": "The Central European Lab"
          }
        ],
        "category": [
          {
            "coding": [
              {
                "code": "laboratory",
                "system": "http://terminology.hl7.org/CodeSystem/observation-category"
              }
            ]
          }
        ],
        "code": {
          "coding": [
            {
              "code": "6768-6",
              "system": "http://loinc.org",
              "display": "Alkaline phosphatase [Enzymatic activity/volume] in Serum or Plasma"
            }
          ],
          "text": "Alkaline phosphatase [Enzymatic activity/volume] in Serum or Plasma"
        },
        "valueQuantity": {
          "system": "http://unitsofmeasure.org",
          "value": 57.8,
          "unit": "U/L",
          "code": "U/L"
        },
        "referenceRange": [
          {
            "low": {
              "value": 39,
              "code": "U/L",
              "system": "http://unitsofmeasure.org"
            }
          },
          {
            "high": {
              "value": 147,
              "code": "U/L",
              "system": "http://unitsofmeasure.org"
            }
          }
        ],
        "status": "final",
        "subject": {
          "reference": "urn:uuid:71541cd5-9354-4c3c-bec5-48420400fcea"
        },
        "effectiveDateTime": "2024-11-18",
        "specimen": {
          "reference": "urn:uuid:21dea01c-387c-4272-bb04-02e482797933"
        }
      }
    },
    {
      "fullUrl": "urn:uuid:79262729-db93-40f5-abc7-a46c924fbf47",
      "resource": {
        "resourceType": "Observation",
        "id": "79262729-db93-40f5-abc7-a46c924fbf47",
        "meta": {
          "profile": [
            "http://hl7.eu/fhir/laboratory/StructureDefinition/Observation-resultslab-eu-lab"
          ]
        },
        "performer": [
          {
            "display": "The Central European Lab"
          }
        ],
        "category": [
          {
            "coding": [
              {
                "code": "laboratory",
                "system": "http://terminology.hl7.org/CodeSystem/observation-category"
              }
            ]
          }
        ],
        "code": {
          "coding": [
            {
              "code": "1742-6",
              "system": "http://loinc.org",
              "display": "Alanine aminotransferase [Enzymatic activity/volume] in Serum or Plasma"
            }
          ],
          "text": "Alanine aminotransferase [Enzymatic activity/volume] in Serum or Plasma"
        },
        "valueQuantity": {
          "system": "http://unitsofmeasure.org",
          "value": 26,
          "unit": "U/L",
          "code": "U/L"
        },
        "referenceRange": [
          {
            "low": {
              "value": 7,
              "code": "U/L",
              "system": "http://unitsofmeasure.org"
            }
          },
          {
            "high": {
              "value": 60,
              "code": "U/L",
              "system": "http://unitsofmeasure.org"
            }
          }
        ],
        "status": "final",
        "subject": {
          "reference": "urn:uuid:71541cd5-9354-4c3c-bec5-48420400fcea"
        },
        "effectiveDateTime": "2024-11-18",
        "specimen": {
          "reference": "urn:uuid:21dea01c-387c-4272-bb04-02e482797933"
        }
      }
    },
    {
      "fullUrl": "urn:uuid:3bfeac4b-2f5d-45df-8d07-76aeb33332c2",
      "resource": {
        "resourceType": "Observation",
        "id": "3bfeac4b-2f5d-45df-8d07-76aeb33332c2",
        "meta": {
          "profile": [
            "http://hl7.eu/fhir/laboratory/StructureDefinition/Observation-resultslab-eu-lab"
          ]
        },
        "performer": [
          {
            "display": "The Central European Lab"
          }
        ],
        "category": [
          {
            "coding": [
              {
                "code": "laboratory",
                "system": "http://terminology.hl7.org/CodeSystem/observation-category"
              }
            ]
          }
        ],
        "code": {
          "coding": [
            {
              "code": "1920-8",
              "system": "http://loinc.org",
              "display": "Aspartate aminotransferase [Enzymatic activity/volume] in Serum or Plasma"
            }
          ],
          "text": "Aspartate aminotransferase [Enzymatic activity/volume] in Serum or Plasma"
        },
        "valueQuantity": {
          "system": "http://unitsofmeasure.org",
          "value": 27.7,
          "unit": "U/L",
          "code": "U/L"
        },
        "referenceRange": [
          {
            "low": {
              "value": 10,
              "code": "U/L",
              "system": "http://unitsofmeasure.org"
            }
          },
          {
            "high": {
              "value": 40,
              "code": "U/L",
              "system": "http://unitsofmeasure.org"
            }
          }
        ],
        "status": "final",
        "subject": {
          "reference": "urn:uuid:71541cd5-9354-4c3c-bec5-48420400fcea"
        },
        "effectiveDateTime": "2024-11-18",
        "specimen": {
          "reference": "urn:uuid:21dea01c-387c-4272-bb04-02e482797933"
        }
      }
    },
    {
      "fullUrl": "urn:uuid:6e4a1bdd-bc88-4570-a5bd-955386c9f421",
      "resource": {
        "resourceType": "Observation",
        "id": "6e4a1bdd-bc88-4570-a5bd-955386c9f421",
        "meta": {
          "profile": [
            "http://hl7.eu/fhir/laboratory/StructureDefinition/Observation-resultslab-eu-lab"
          ]
        },
        "performer": [
          {
            "display": "The Central European Lab"
          }
        ],
        "category": [
          {
            "coding": [
              {
                "code": "laboratory",
                "system": "http://terminology.hl7.org/CodeSystem/observation-category"
              }
            ]
          }
        ],
        "code": {
          "coding": [
            {
              "code": "48065-7",
              "system": "http://loinc.org",
              "display": "Fibrin D-dimer FEU [Mass/volume] in Platelet poor plasma"
            }
          ],
          "text": "Fibrin D-dimer FEU [Mass/volume] in Platelet poor plasma"
        },
        "valueQuantity": {
          "system": "http://unitsofmeasure.org",
          "value": 0.3,
          "unit": "ug/mL",
          "code": "ug/mL"
        },
        "referenceRange": [
          {
            "low": {
              "value": 0,
              "code": "ug/mL",
              "system": "http://unitsofmeasure.org"
            }
          },
          {
            "high": {
              "value": 0.5,
              "code": "ug/mL",
              "system": "http://unitsofmeasure.org"
            }
          }
        ],
        "status": "final",
        "subject": {
          "reference": "urn:uuid:71541cd5-9354-4c3c-bec5-48420400fcea"
        },
        "effectiveDateTime": "2024-11-18",
        "specimen": {
          "reference": "urn:uuid:e1e360e4-386b-4b46-ae52-cf7488cb3099"
        }
      }
    },
    {
      "fullUrl": "urn:uuid:814b709d-b942-4dff-b9f0-da63a67bed89",
      "resource": {
        "resourceType": "Observation",
        "id": "814b709d-b942-4dff-b9f0-da63a67bed89",
        "meta": {
          "profile": [
            "http://hl7.eu/fhir/laboratory/StructureDefinition/Observation-resultslab-eu-lab"
          ]
        },
        "performer": [
          {
            "display": "The Central European Lab"
          }
        ],
        "category": [
          {
            "coding": [
              {
                "code": "laboratory",
                "system": "http://terminology.hl7.org/CodeSystem/observation-category"
              }
            ]
          }
        ],
        "code": {
          "coding": [
            {
              "code": "2276-4",
              "system": "http://loinc.org",
              "display": "Ferritin [Mass/volume] in Serum or Plasma"
            }
          ],
          "text": "Ferritin [Mass/volume] in Serum or Plasma"
        },
        "valueQuantity": {
          "system": "http://unitsofmeasure.org",
          "value": 356.6,
          "unit": "ug/L",
          "code": "ug/L"
        },
        "referenceRange": [
          {
            "low": {
              "value": 30,
              "code": "ug/L",
              "system": "http://unitsofmeasure.org"
            }
          },
          {
            "high": {
              "value": 400,
              "code": "ug/L",
              "system": "http://unitsofmeasure.org"
            }
          }
        ],
        "status": "final",
        "subject": {
          "reference": "urn:uuid:71541cd5-9354-4c3c-bec5-48420400fcea"
        },
        "effectiveDateTime": "2024-11-18",
        "specimen": {
          "reference": "urn:uuid:21dea01c-387c-4272-bb04-02e482797933"
        }
      }
    },
    {
      "fullUrl": "urn:uuid:8b1ccb08-2ff1-4fd4-ab9c-e4f117751d4a",
      "resource": {
        "resourceType": "Observation",
        "id": "8b1ccb08-2ff1-4fd4-ab9c-e4f117751d4a",
        "meta": {
          "profile": [
            "http://hl7.eu/fhir/laboratory/StructureDefinition/Observation-resultslab-eu-lab"
          ]
        },
        "performer": [
          {
            "display": "The Central European Lab"
          }
        ],
        "category": [
          {
            "coding": [
              {
                "code": "laboratory",
                "system": "http://terminology.hl7.org/CodeSystem/observation-category"
              }
            ]
          }
        ],
        "code": {
          "coding": [
            {
              "code": "89579-7",
              "system": "http://loinc.org",
              "display": "Troponin I.cardiac [Mass/volume] in Serum or Plasma by High sensitivity method"
            }
          ],
          "text": "Troponin I.cardiac [Mass/volume] in Serum or Plasma by High sensitivity method"
        },
        "valueQuantity": {
          "system": "http://unitsofmeasure.org",
          "value": 1.8,
          "unit": "pg/mL",
          "code": "pg/mL"
        },
        "referenceRange": [
          {
            "low": {
              "value": 0,
              "code": "pg/mL",
              "system": "http://unitsofmeasure.org"
            }
          },
          {
            "high": {
              "value": 19.9,
              "code": "pg/mL",
              "system": "http://unitsofmeasure.org"
            }
          }
        ],
        "status": "final",
        "subject": {
          "reference": "urn:uuid:71541cd5-9354-4c3c-bec5-48420400fcea"
        },
        "effectiveDateTime": "2024-11-18",
        "specimen": {
          "reference": "urn:uuid:21dea01c-387c-4272-bb04-02e482797933"
        }
      }
    },
    {
      "fullUrl": "urn:uuid:681cde7f-ed59-4ea1-96ef-1b5a58af3ed3",
      "resource": {
        "resourceType": "Observation",
        "id": "681cde7f-ed59-4ea1-96ef-1b5a58af3ed3",
        "meta": {
          "profile": [
            "http://hl7.eu/fhir/laboratory/StructureDefinition/Observation-resultslab-eu-lab"
          ]
        },
        "performer": [
          {
            "display": "The Central European Lab"
          }
        ],
        "category": [
          {
            "coding": [
              {
                "code": "laboratory",
                "system": "http://terminology.hl7.org/CodeSystem/observation-category"
              }
            ]
          }
        ],
        "code": {
          "coding": [
            {
              "code": "14804-9",
              "system": "http://loinc.org",
              "display": "Lactate dehydrogenase [Enzymatic activity/volume] in Serum or Plasma by Lactate to pyruvate reaction"
            }
          ],
          "text": "Lactate dehydrogenase [Enzymatic activity/volume] in Serum or Plasma by Lactate to pyruvate reaction"
        },
        "valueQuantity": {
          "system": "http://unitsofmeasure.org",
          "value": 239.4,
          "unit": "U/L",
          "code": "U/L"
        },
        "referenceRange": [
          {
            "low": {
              "value": 100,
              "code": "U/L",
              "system": "http://unitsofmeasure.org"
            }
          },
          {
            "high": {
              "value": 248,
              "code": "U/L",
              "system": "http://unitsofmeasure.org"
            }
          }
        ],
        "status": "final",
        "subject": {
          "reference": "urn:uuid:71541cd5-9354-4c3c-bec5-48420400fcea"
        },
        "effectiveDateTime": "2024-11-18",
        "specimen": {
          "reference": "urn:uuid:21dea01c-387c-4272-bb04-02e482797933"
        }
      }
    },
    {
      "fullUrl": "urn:uuid:eed88c9e-282b-4cce-aaa4-930a3d6ce7bf",
      "resource": {
        "resourceType": "Observation",
        "id": "eed88c9e-282b-4cce-aaa4-930a3d6ce7bf",
        "meta": {
          "profile": [
            "http://hl7.eu/fhir/laboratory/StructureDefinition/Observation-resultslab-eu-lab"
          ]
        },
        "performer": [
          {
            "display": "The Central European Lab"
          }
        ],
        "category": [
          {
            "coding": [
              {
                "code": "laboratory",
                "system": "http://terminology.hl7.org/CodeSystem/observation-category"
              }
            ]
          }
        ],
        "code": {
          "coding": [
            {
              "code": "2157-6",
              "system": "http://loinc.org",
              "display": "Creatine kinase [Enzymatic activity/volume] in Serum or Plasma"
            }
          ],
          "text": "Creatine kinase [Enzymatic activity/volume] in Serum or Plasma"
        },
        "valueQuantity": {
          "system": "http://unitsofmeasure.org",
          "value": 19.6,
          "unit": "U/L",
          "code": "U/L"
        },
        "referenceRange": [
          {
            "low": {
              "value": 38,
              "code": "U/L",
              "system": "http://unitsofmeasure.org"
            }
          },
          {
            "high": {
              "value": 215,
              "code": "U/L",
              "system": "http://unitsofmeasure.org"
            }
          }
        ],
        "interpretation": [
          {
            "coding": [
              {
                "code": "L",
                "system": "http://terminology.hl7.org/CodeSystem/v3-ObservationInterpretation",
                "display": "Low"
              }
            ]
          }
        ],
        "status": "final",
        "subject": {
          "reference": "urn:uuid:71541cd5-9354-4c3c-bec5-48420400fcea"
        },
        "effectiveDateTime": "2024-11-18",
        "specimen": {
          "reference": "urn:uuid:21dea01c-387c-4272-bb04-02e482797933"
        }
      }
    },
    {
      "fullUrl": "urn:uuid:9b328e35-6c6f-4154-a647-4a620f789ab0",
      "resource": {
        "resourceType": "Observation",
        "id": "9b328e35-6c6f-4154-a647-4a620f789ab0",
        "meta": {
          "profile": [
            "http://hl7.eu/fhir/laboratory/StructureDefinition/Observation-resultslab-eu-lab"
          ]
        },
        "performer": [
          {
            "display": "The Central European Lab"
          }
        ],
        "category": [
          {
            "coding": [
              {
                "code": "laboratory",
                "system": "http://terminology.hl7.org/CodeSystem/observation-category"
              }
            ]
          }
        ],
        "code": {
          "coding": [
            {
              "code": "1988-5",
              "system": "http://loinc.org",
              "display": "C reactive protein [Mass/volume] in Serum or Plasma"
            }
          ],
          "text": "C reactive protein [Mass/volume] in Serum or Plasma"
        },
        "valueQuantity": {
          "system": "http://unitsofmeasure.org",
          "value": 8.6,
          "unit": "mg/L",
          "code": "mg/L"
        },
        "referenceRange": [
          {
            "low": {
              "value": 0,
              "code": "mg/L",
              "system": "http://unitsofmeasure.org"
            }
          },
          {
            "high": {
              "value": 10,
              "code": "mg/L",
              "system": "http://unitsofmeasure.org"
            }
          }
        ],
        "status": "final",
        "subject": {
          "reference": "urn:uuid:71541cd5-9354-4c3c-bec5-48420400fcea"
        },
        "effectiveDateTime": "2024-11-18",
        "specimen": {
          "reference": "urn:uuid:21dea01c-387c-4272-bb04-02e482797933"
        }
      }
    },
    {
      "fullUrl": "urn:uuid:80919029-52c9-4618-870a-81e75d3f06a0",
      "resource": {
        "resourceType": "Observation",
        "id": "80919029-52c9-4618-870a-81e75d3f06a0",
        "meta": {
          "profile": [
            "http://hl7.eu/fhir/laboratory/StructureDefinition/Observation-resultslab-eu-lab"
          ]
        },
        "performer": [
          {
            "display": "The Central European Lab"
          }
        ],
        "category": [
          {
            "coding": [
              {
                "code": "laboratory",
                "system": "http://terminology.hl7.org/CodeSystem/observation-category"
              }
            ]
          }
        ],
        "code": {
          "coding": [
            {
              "code": "5902-2",
              "system": "http://loinc.org",
              "display": "Prothrombin time (PT)"
            }
          ],
          "text": "Prothrombin time (PT)"
        },
        "valueQuantity": {
          "system": "http://unitsofmeasure.org",
          "value": 10.9,
          "unit": "s",
          "code": "s"
        },
        "referenceRange": [
          {
            "low": {
              "value": 11,
              "code": "s",
              "system": "http://unitsofmeasure.org"
            }
          },
          {
            "high": {
              "value": 13.5,
              "code": "s",
              "system": "http://unitsofmeasure.org"
            }
          }
        ],
        "interpretation": [
          {
            "coding": [
              {
                "code": "L",
                "system": "http://terminology.hl7.org/CodeSystem/v3-ObservationInterpretation",
                "display": "Low"
              }
            ]
          }
        ],
        "status": "final",
        "subject": {
          "reference": "urn:uuid:71541cd5-9354-4c3c-bec5-48420400fcea"
        },
        "effectiveDateTime": "2024-11-18",
        "specimen": {
          "reference": "urn:uuid:e1e360e4-386b-4b46-ae52-cf7488cb3099"
        }
      }
    },
    {
      "fullUrl": "urn:uuid:8879e970-74bb-4ed1-b14a-d7c40d12ab09",
      "resource": {
        "resourceType": "Observation",
        "id": "8879e970-74bb-4ed1-b14a-d7c40d12ab09",
        "meta": {
          "profile": [
            "http://hl7.eu/fhir/laboratory/StructureDefinition/Observation-resultslab-eu-lab"
          ]
        },
        "performer": [
          {
            "display": "The Central European Lab"
          }
        ],
        "category": [
          {
            "coding": [
              {
                "code": "laboratory",
                "system": "http://terminology.hl7.org/CodeSystem/observation-category"
              }
            ]
          }
        ],
        "code": {
          "coding": [
            {
              "code": "6301-6",
              "system": "http://loinc.org",
              "display": "INR in Platelet poor plasma by Coagulation assay"
            }
          ],
          "text": "INR in Platelet poor plasma by Coagulation assay"
        },
        "valueQuantity": {
          "system": "http://unitsofmeasure.org",
          "value": 1.2,
          "unit": "{INR}",
          "code": "{INR}"
        },
        "referenceRange": [
          {
            "low": {
              "value": 0.9,
              "code": "{INR}",
              "system": "http://unitsofmeasure.org"
            }
          },
          {
            "high": {
              "value": 2,
              "code": "{INR}",
              "system": "http://unitsofmeasure.org"
            }
          }
        ],
        "status": "final",
        "subject": {
          "reference": "urn:uuid:71541cd5-9354-4c3c-bec5-48420400fcea"
        },
        "effectiveDateTime": "2024-11-18",
        "specimen": {
          "reference": "urn:uuid:e1e360e4-386b-4b46-ae52-cf7488cb3099"
        }
      }
    },
    {
      "fullUrl": "urn:uuid:e39791cd-377e-4417-af43-b20eb8e78f43",
      "resource": {
        "resourceType": "Observation",
        "id": "e39791cd-377e-4417-af43-b20eb8e78f43",
        "meta": {
          "profile": [
            "http://hl7.eu/fhir/laboratory/StructureDefinition/Observation-resultslab-eu-lab"
          ]
        },
        "performer": [
          {
            "display": "The Central European Lab"
          }
        ],
        "category": [
          {
            "coding": [
              {
                "code": "laboratory",
                "system": "http://terminology.hl7.org/CodeSystem/observation-category"
              }
            ]
          }
        ],
        "code": {
          "coding": [
            {
              "code": "33959-8",
              "system": "http://loinc.org",
              "display": "Procalcitonin [Mass/volume] in Serum or Plasma"
            }
          ],
          "text": "Procalcitonin [Mass/volume] in Serum or Plasma"
        },
        "valueQuantity": {
          "system": "http://unitsofmeasure.org",
          "value": 0,
          "unit": "ng/mL",
          "code": "ng/mL"
        },
        "referenceRange": [
          {
            "low": {
              "value": 0,
              "code": "ng/mL",
              "system": "http://unitsofmeasure.org"
            }
          },
          {
            "high": {
              "value": 0.5,
              "code": "ng/mL",
              "system": "http://unitsofmeasure.org"
            }
          }
        ],
        "status": "final",
        "subject": {
          "reference": "urn:uuid:71541cd5-9354-4c3c-bec5-48420400fcea"
        },
        "effectiveDateTime": "2024-11-18",
        "specimen": {
          "reference": "urn:uuid:21dea01c-387c-4272-bb04-02e482797933"
        }
      }
    }
  ],
  "type": "document",
  "timestamp": "2024-11-19T18:37:48Z"
}
