{
  "resourceType": "Bundle",
  "id": "e5991aa4-8bb0-45a3-b6ba-e7ee716d0571",
  "meta": {
    "profile": [
      "http://hl7.eu/fhir/laboratory/StructureDefinition/Bundle-eu-lab"
    ]
  },
  "identifier": {
    "assigner": {
      "display": "HL7 Europe"
    },
    "system": "urn:oid:2.16.840.1.113883.2.51.999",
    "value": "d4d3a36d-d9ac-4f64-b5df-e9943eeeccef"
  },
  "entry": [
    {
      "fullUrl": "urn:uuid:62d2d330-bc22-4174-be8f-410c6201b05e",
      "resource": {
        "resourceType": "Composition",
        "id": "62d2d330-bc22-4174-be8f-410c6201b05e",
        "meta": {
          "profile": [
            "http://hl7.eu/fhir/laboratory/StructureDefinition/Composition-eu-lab"
          ]
        },
        "identifier": {
          "assigner": {
            "display": "HL7 Europe"
          },
          "system": "urn:oid:2.16.840.1.113883.2.51.999",
          "value": "6ffdf15b-21ed-4901-8d9f-1f99ac04955b"
        },
        "author": [
          {
            "reference": "urn:uuid:31c8472b-d39c-4c96-a36d-a067a8eae3e1"
          }
        ],
        "category": [
          {
            "coding": [
              {
                "code": "26436-6",
                "system": "http://loinc.org",
                "display": "Laboratory studies (set)"
              }
            ]
          }
        ],
        "type": {
          "coding": [
            {
              "code": "11502-2",
              "system": "http://loinc.org",
              "display": "Laboratory report"
            }
          ],
          "text": "Laboratory Report"
        },
        "section": [
          {
            "code": {
              "coding": [
                {
                  "code": "26436-6",
                  "system": "http://loinc.org",
                  "display": "Laboratory studies (set)"
                }
              ],
              "text": "Laboratory studies"
            },
            "section": [
              {
                "code": {
                  "coding": [
                    {
                      "code": "$18719-5",
                      "system": "http://loinc.org",
                      "display": "Chemistry studies (set)"
                    }
                  ],
                  "text": "Chemistry"
                },
                "entry": [
                  {
                    "reference": "urn:uuid:99e39f55-36e6-4d45-a66d-40eb7e4598d7"
                  },
                  {
                    "reference": "urn:uuid:48f3dade-54b2-4d68-a9ca-8a0305c22aaf"
                  },
                  {
                    "reference": "urn:uuid:9aa0f032-5db8-48e4-9fcf-723aedef2710"
                  },
                  {
                    "reference": "urn:uuid:d68fc283-0e35-4248-a87d-5fd8278239f1"
                  },
                  {
                    "reference": "urn:uuid:1829258f-1f07-4607-8433-771567372773"
                  },
                  {
                    "reference": "urn:uuid:6fe7328c-9523-4ea5-bed4-a0abc7561a50"
                  },
                  {
                    "reference": "urn:uuid:48aa1175-ccb3-4585-904a-ad23aa883e73"
                  },
                  {
                    "reference": "urn:uuid:59d4d583-423a-48c9-9733-5ce800e9ee8a"
                  },
                  {
                    "reference": "urn:uuid:3c8d325b-2e6c-4800-ab2b-15aeec9bbfdd"
                  },
                  {
                    "reference": "urn:uuid:7d0235c2-1c7a-4d84-a369-2c42d274fb13"
                  },
                  {
                    "reference": "urn:uuid:af345334-7928-4abe-b21f-f46cd1143a17"
                  },
                  {
                    "reference": "urn:uuid:56622279-4265-473b-b713-f751538c9990"
                  },
                  {
                    "reference": "urn:uuid:cac694b6-492c-4c60-aff3-2c10b7a51e71"
                  }
                ],
                "text": {
                  "status": "generated",
                  "div": "<div xmlns=\"http://www.w3.org/1999/xhtml\"><h3>Chemistry</h3><table class=\"hl7__eu__lab__report\"><thead><tr><th>Test</th><th>22-SEP-2017</th><th>Reference&#xA0;Range</th><th>Unit</th></tr></thead><tbody><tr><td>Hemoglobin A1c/Hemoglobin.total in Blood</td><td><strong>4.0 L</strong></td><td>4.6 - 6.4</td><td>%</td></tr><tr><td>Glucose [Mass/volume] in Blood</td><td>95.9</td><td>70 - 110</td><td>mg/dL</td></tr><tr><td>Urea nitrogen [Mass/volume] in Blood</td><td>19.7</td><td>7 - 43</td><td>mg/dL</td></tr><tr><td>Creatinine [Mass/volume] in Blood</td><td>0.9</td><td>0.9 - 1.3</td><td>mg/dL</td></tr><tr><td>Calcium [Mass/volume] in Blood</td><td>8.8</td><td>8.5 - 10.5</td><td>mg/dL</td></tr><tr><td>Sodium [Moles/volume] in Blood</td><td>137.6</td><td>135 - 145</td><td>mmol/L</td></tr><tr><td>Potassium [Moles/volume] in Blood</td><td>4.3</td><td>3.5 - 5.3</td><td>mmol/L</td></tr><tr><td>Chloride [Moles/volume] in Blood</td><td>101.3</td><td>98 - 108</td><td>mmol/L</td></tr><tr><td>Carbon dioxide, total [Moles/volume] in Blood</td><td>25.3</td><td>22 - 29</td><td>mmol/L</td></tr><tr><td>Cholesterol [Mass/volume] in Serum or Plasma</td><td><strong>221.7 H</strong></td><td>0 - 200</td><td>mg/dL</td></tr><tr><td>Triglyceride [Mass/volume] in Serum or Plasma</td><td>106.0</td><td>0 - 199</td><td>mg/dL</td></tr><tr><td>Cholesterol in LDL [Mass/volume] in Serum or Plasma by Direct assay</td><td><strong>170.7 H</strong></td><td>0 - 130</td><td>mg/dL</td></tr><tr><td>Cholesterol in HDL [Mass/volume] in Serum or Plasma</td><td><strong>29.8 L</strong></td><td>40 - 100</td><td>mg/dL</td></tr></tbody></table></div>"
                },
                "title": "Chemistry"
              }
            ],
            "title": "Laboratory Report"
          },
          {
            "text": {
              "status": "generated",
              "div": "<div xmlns=\"http://www.w3.org/1999/xhtml\"><h3>Annotation</h3><table class=\"hl7__eu__lab__report\"><tr><th>Conclusion and Recommendations based on this report and previous findings known to us</th></tr><tr><td>The patient shows low HbA1c, likely reflecting absence of diabetes or possible hypoglycemia. Renal and electrolyte parameters are within normal limits. Lipid profile reveals elevated total and LDL cholesterol and low HDL cholesterol, indicating increased cardiovascular risk. Recommend clinical correlation and consideration of lipid-lowering therapy and lifestyle modification.</td></tr></table></div>"
            },
            "code": {
              "coding": [
                {
                  "system": "http://loinc.org",
                  "code": "48767-8",
                  "display": "Annotation comment"
                }
              ]
            },
            "title": "Annotation comment"
          }
        ],
        "status": "final",
        "subject": {
          "reference": "urn:uuid:2532f8da-6203-4897-b23c-22e0bc9fdfce",
          "display": "Gabrielius Gaičiūnas"
        },
        "date": "2017-09-22T18:05:46Z",
        "title": "Laboratory Report",
        "confidentiality": "N"
      }
    },
    {
      "fullUrl": "urn:uuid:b7658e05-2071-4fc2-a545-58810b22727f",
      "resource": {
        "resourceType": "DiagnosticReport",
        "id": "b7658e05-2071-4fc2-a545-58810b22727f",
        "meta": {
          "profile": [
            "http://hl7.eu/fhir/laboratory/StructureDefinition/DiagnosticReport-eu-lab"
          ]
        },
        "identifier": [
          {
            "assigner": {
              "display": "HL7 Europe"
            },
            "system": "urn:oid:2.16.840.1.113883.2.51.999",
            "value": "6c26a9a1-4dab-4c9d-8db9-e9cf9307f002"
          }
        ],
        "extension": [
          {
            "url": "http://hl7.org/fhir/5.0/StructureDefinition/extension-DiagnosticReport.composition",
            "valueReference": {
              "reference": "urn:uuid:6ffdf15b-21ed-4901-8d9f-1f99ac04955b"
            }
          }
        ],
        "category": [
          {
            "coding": [
              {
                "code": "26436-6",
                "system": "http://loinc.org",
                "display": "Laboratory studies (set)"
              }
            ]
          }
        ],
        "specimen": [
          {
            "reference": "urn:uuid:308ef362-4eaa-417a-a0b0-f7c13ef6384a"
          },
          {
            "reference": "urn:uuid:0d4c925d-4f52-42c7-965d-b34ca25bff49"
          }
        ],
        "result": [
          {
            "reference": "urn:uuid:99e39f55-36e6-4d45-a66d-40eb7e4598d7"
          },
          {
            "reference": "urn:uuid:48f3dade-54b2-4d68-a9ca-8a0305c22aaf"
          },
          {
            "reference": "urn:uuid:9aa0f032-5db8-48e4-9fcf-723aedef2710"
          },
          {
            "reference": "urn:uuid:d68fc283-0e35-4248-a87d-5fd8278239f1"
          },
          {
            "reference": "urn:uuid:1829258f-1f07-4607-8433-771567372773"
          },
          {
            "reference": "urn:uuid:6fe7328c-9523-4ea5-bed4-a0abc7561a50"
          },
          {
            "reference": "urn:uuid:48aa1175-ccb3-4585-904a-ad23aa883e73"
          },
          {
            "reference": "urn:uuid:59d4d583-423a-48c9-9733-5ce800e9ee8a"
          },
          {
            "reference": "urn:uuid:3c8d325b-2e6c-4800-ab2b-15aeec9bbfdd"
          },
          {
            "reference": "urn:uuid:7d0235c2-1c7a-4d84-a369-2c42d274fb13"
          },
          {
            "reference": "urn:uuid:af345334-7928-4abe-b21f-f46cd1143a17"
          },
          {
            "reference": "urn:uuid:56622279-4265-473b-b713-f751538c9990"
          },
          {
            "reference": "urn:uuid:cac694b6-492c-4c60-aff3-2c10b7a51e71"
          }
        ],
        "status": "registered",
        "code": {
          "coding": [
            {
              "code": "11502-2",
              "system": "http://loinc.org",
              "display": "Laboratory report"
            }
          ]
        },
        "subject": {
          "reference": "urn:uuid:2532f8da-6203-4897-b23c-22e0bc9fdfce",
          "display": "Gabrielius Gaičiūnas"
        }
      }
    },
    {
      "fullUrl": "urn:uuid:2532f8da-6203-4897-b23c-22e0bc9fdfce",
      "resource": {
        "resourceType": "Patient",
        "id": "2532f8da-6203-4897-b23c-22e0bc9fdfce",
        "meta": {
          "security": [
            {
              "system": "http://terminology.hl7.org/CodeSystem/v3-ActReason",
              "code": "HTEST"
            },
            {
              "system": "http://terminology.hl7.org/CodeSystem/v3-ActReason",
              "code": "TRAIN"
            }
          ],
          "tag": [
            {
              "system": "https://synderai.net/fhir/CodeSystem/tags",
              "code": "synthetic",
              "display": "SYNDERAI Synthetic data"
            }
          ],
          "profile": [
            "http://hl7.eu/fhir/base/StructureDefinition/patient-eu-core"
          ]
        },
        "identifier": [
          {
            "type": {
              "coding": [
                {
                  "code": "PT",
                  "system": "http://terminology.hl7.org/CodeSystem/v2-0203"
                }
              ]
            },
            "system": "http://ec.europa.eu/identifier/eci",
            "value": "5711-320329-3"
          },
          {
            "type": {
              "coding": [
                {
                  "code": "MR",
                  "system": "http://terminology.hl7.org/CodeSystem/v2-0203"
                }
              ]
            },
            "system": "http://local.setting.eu/identifier",
            "value": "b2cdf95b-c12d-3f56-84e4-d085f70edd0c"
          }
        ],
        "name": [
          {
            "family": "Gaičiūnas"
          },
          {
            "given": [
              "Gabrielius"
            ]
          },
          {
            "text": "Gabrielius Gaičiūnas"
          }
        ],
        "address": [
          {
            "line": [
              "5951 Monika Rapid"
            ],
            "use": "home",
            "type": "physical",
            "postalCode": "97190",
            "city": "Poškaton",
            "country": "Lithuania"
          }
        ],
        "telecom": [
          {
            "system": "phone",
            "value": "+370 71605146"
          }
        ],
        "extension": [
          {
            "url": "http://hl7.org/fhir/StructureDefinition/patient-nationality",
            "valueCodeableConcept": {
              "coding": [
                {
                  "code": "LT",
                  "system": "http://hl7.org/fhir/ValueSet/country"
                }
              ]
            }
          }
        ],
        "text": {
          "status": "generated",
          "div": "<div xmlns=\"http://www.w3.org/1999/xhtml\"><table class=\"hl7__ips\"><tr><td>Gabrielius Gaičiūnas</td><td>male</td><td>19-May-1948</td></tr></table></div>"
        },
        "gender": "male",
        "birthDate": "1948-05-19"
      }
    },
    {
      "fullUrl": "urn:uuid:38e2d580-ac8b-430b-bd99-c3afe997e462",
      "resource": {
        "resourceType": "ServiceRequest",
        "id": "38e2d580-ac8b-430b-bd99-c3afe997e462",
        "meta": {
          "profile": [
            "http://hl7.eu/fhir/laboratory/StructureDefinition/ServiceRequest-eu-lab"
          ]
        },
        "identifier": [
          {
            "system": "http://example.org",
            "value": "9a172c5f-d246-485f-a9a4-7c517db18571"
          }
        ],
        "specimen": [
          {
            "reference": "urn:uuid:308ef362-4eaa-417a-a0b0-f7c13ef6384a"
          },
          {
            "reference": "urn:uuid:0d4c925d-4f52-42c7-965d-b34ca25bff49"
          }
        ],
        "reasonCode": [
          {
            "coding": [
              {
                "code": "414545008",
                "system": "http://snomed.info/sct",
                "display": "Ischemic heart disease"
              }
            ]
          },
          {
            "coding": [
              {
                "code": "157141000119108",
                "system": "http://snomed.info/sct",
                "display": "Proteinuria due to type 2 diabetes mellitus"
              }
            ]
          },
          {
            "coding": [
              {
                "code": "401303003",
                "system": "http://snomed.info/sct",
                "display": "Acute ST segment elevation myocardial infarction"
              }
            ]
          },
          {
            "coding": [
              {
                "code": "40055000",
                "system": "http://snomed.info/sct",
                "display": "Chronic sinusitis"
              }
            ]
          },
          {
            "coding": [
              {
                "code": "90781000119102",
                "system": "http://snomed.info/sct",
                "display": "Microalbuminuria due to type 2 diabetes mellitus"
              }
            ]
          },
          {
            "coding": [
              {
                "code": "127013003",
                "system": "http://snomed.info/sct",
                "display": "Disorder of kidney due to diabetes mellitus"
              }
            ]
          },
          {
            "coding": [
              {
                "code": "59621000",
                "system": "http://snomed.info/sct",
                "display": "Essential hypertension"
              }
            ]
          },
          {
            "coding": [
              {
                "code": "15777000",
                "system": "http://snomed.info/sct",
                "display": "Prediabetes"
              }
            ]
          },
          {
            "coding": [
              {
                "code": "271737000",
                "system": "http://snomed.info/sct",
                "display": "Anemia"
              }
            ]
          }
        ],
        "status": "active",
        "intent": "order",
        "code": {
          "coding": [
            {
              "code": "108252007",
              "system": "http://snomed.info/sct",
              "display": "Laboratory procedure"
            }
          ]
        },
        "subject": {
          "reference": "urn:uuid:2532f8da-6203-4897-b23c-22e0bc9fdfce",
          "display": "Gabrielius Gaičiūnas"
        },
        "requester": {
          "reference": "urn:uuid:3cbbcdac-d349-4a4b-b673-85d66532c0d5"
        }
      }
    },
    {
      "fullUrl": "urn:uuid:3cbbcdac-d349-4a4b-b673-85d66532c0d5",
      "resource": {
        "resourceType": "PractitionerRole",
        "id": "3cbbcdac-d349-4a4b-b673-85d66532c0d5",
        "meta": {
          "profile": [
            "http://hl7.eu/fhir/base/StructureDefinition/practitionerRole-eu"
          ]
        },
        "text": {
          "status": "generated",
          "div": "<div xmlns=\"http://www.w3.org/1999/xhtml\">Provider Role Id: 3cbbcdac-d349-4a4b-b673-85d66532c0d5</div>"
        },
        "organization": {
          "reference": "urn:uuid:0983e45f-e8bd-4c48-b170-1212c43c9445"
        }
      }
    },
    {
      "fullUrl": "urn:uuid:0983e45f-e8bd-4c48-b170-1212c43c9445",
      "resource": {
        "resourceType": "Organization",
        "id": "0983e45f-e8bd-4c48-b170-1212c43c9445",
        "meta": {
          "profile": [
            "http://hl7.eu/fhir/base/StructureDefinition/organization-eu"
          ]
        },
        "identifier": [
          {
            "assigner": {
              "display": "HL7 Europe"
            },
            "system": "urn:oid:2.16.840.1.113883.2.51.999",
            "value": "37d08a7a-c9c2-467d-a2aa-784bd56a3927"
          }
        ],
        "address": [
          {
            "line": [
              "182 Savanorių pr."
            ],
            "city": "Klaipėda",
            "postalCode": "LT-91200",
            "country": "Lithuania"
          }
        ],
        "text": {
          "status": "generated",
          "div": "<div xmlns=\"http://www.w3.org/1999/xhtml\">Provider Organization: Dr. Tomas Bakas</div>"
        },
        "name": "Dr. Tomas Bakas"
      }
    },
    {
      "fullUrl": "urn:uuid:308ef362-4eaa-417a-a0b0-f7c13ef6384a",
      "resource": {
        "resourceType": "Specimen",
        "id": "308ef362-4eaa-417a-a0b0-f7c13ef6384a",
        "meta": {
          "profile": [
            "http://hl7.eu/fhir/laboratory/StructureDefinition/Specimen-eu-lab"
          ]
        },
        "collection": {
          "collectedDateTime": "2017-09-22"
        },
        "text": {
          "status": "generated",
          "div": "<div xmlns=\"http://www.w3.org/1999/xhtml\"><table class=\"hl7__eu__lab__report\"><tr><th>Specimen</th><th>Collection Date</th></tr><tr><td>Whole blood specimen (specimen)</td><td><span class=\"nb\">22-Sep-2017</span></td></tr></table></div>"
        },
        "type": {
          "coding": [
            {
              "code": "258580003",
              "system": "http://snomed.info/sct",
              "display": "Whole blood specimen (specimen)"
            }
          ]
        }
      }
    },
    {
      "fullUrl": "urn:uuid:0d4c925d-4f52-42c7-965d-b34ca25bff49",
      "resource": {
        "resourceType": "Specimen",
        "id": "0d4c925d-4f52-42c7-965d-b34ca25bff49",
        "meta": {
          "profile": [
            "http://hl7.eu/fhir/laboratory/StructureDefinition/Specimen-eu-lab"
          ]
        },
        "collection": {
          "collectedDateTime": "2017-09-22"
        },
        "text": {
          "status": "generated",
          "div": "<div xmlns=\"http://www.w3.org/1999/xhtml\"><table class=\"hl7__eu__lab__report\"><tr><th>Specimen</th><th>Collection Date</th></tr><tr><td>Acellular blood (serum or plasma) specimen</td><td><span class=\"nb\">22-Sep-2017</span></td></tr></table></div>"
        },
        "type": {
          "coding": [
            {
              "code": "122592007",
              "system": "http://snomed.info/sct",
              "display": "Acellular blood (serum or plasma) specimen"
            }
          ]
        }
      }
    },
    {
      "fullUrl": "urn:uuid:99e39f55-36e6-4d45-a66d-40eb7e4598d7",
      "resource": {
        "resourceType": "Observation",
        "id": "99e39f55-36e6-4d45-a66d-40eb7e4598d7",
        "meta": {
          "profile": [
            "http://hl7.eu/fhir/laboratory/StructureDefinition/Observation-resultslab-eu-lab"
          ]
        },
        "performer": [
          {
            "display": "The Central European Lab"
          }
        ],
        "category": [
          {
            "coding": [
              {
                "system": "http://terminology.hl7.org/CodeSystem/observation-category",
                "code": "laboratory"
              }
            ]
          }
        ],
        "code": {
          "coding": [
            {
              "code": "4548-4",
              "system": "http://loinc.org",
              "display": "Hemoglobin A1c/Hemoglobin.total in Blood"
            }
          ],
          "text": "Hemoglobin A1c/Hemoglobin.total in Blood"
        },
        "valueQuantity": {
          "system": "http://unitsofmeasure.org",
          "value": 4,
          "unit": "%",
          "code": "%"
        },
        "referenceRange": [
          {
            "low": {
              "value": 4.6,
              "code": "%",
              "system": "http://unitsofmeasure.org"
            }
          },
          {
            "high": {
              "value": 6.4,
              "code": "%",
              "system": "http://unitsofmeasure.org"
            }
          }
        ],
        "interpretation": [
          {
            "coding": [
              {
                "code": "L",
                "system": "http://terminology.hl7.org/CodeSystem/v3-ObservationInterpretation",
                "display": "Low"
              }
            ]
          }
        ],
        "text": {
          "status": "generated",
          "div": "<div xmlns=\"http://www.w3.org/1999/xhtml\"><table class=\"hl7__eu__lab__report\"><tr><th>Test</th><th>22-Sep-2017</th><th>Reference&#xA0;Range</th><th>Unit</th></tr><tr><td>Hemoglobin A1c/Hemoglobin.total in Blood</td><td>4.0</td><td>4.6 - 6.4</td><td>L</td><td>%</td></tr></table></div>"
        },
        "status": "final",
        "subject": {
          "reference": "urn:uuid:2532f8da-6203-4897-b23c-22e0bc9fdfce",
          "display": "Gabrielius Gaičiūnas"
        },
        "effectiveDateTime": "2017-09-22T16:05:46Z",
        "specimen": {
          "reference": "urn:uuid:308ef362-4eaa-417a-a0b0-f7c13ef6384a"
        }
      }
    },
    {
      "fullUrl": "urn:uuid:48f3dade-54b2-4d68-a9ca-8a0305c22aaf",
      "resource": {
        "resourceType": "Observation",
        "id": "48f3dade-54b2-4d68-a9ca-8a0305c22aaf",
        "meta": {
          "profile": [
            "http://hl7.eu/fhir/laboratory/StructureDefinition/Observation-resultslab-eu-lab"
          ]
        },
        "performer": [
          {
            "display": "The Central European Lab"
          }
        ],
        "category": [
          {
            "coding": [
              {
                "system": "http://terminology.hl7.org/CodeSystem/observation-category",
                "code": "laboratory"
              }
            ]
          }
        ],
        "code": {
          "coding": [
            {
              "code": "2339-0",
              "system": "http://loinc.org",
              "display": "Glucose [Mass/volume] in Blood"
            }
          ],
          "text": "Glucose [Mass/volume] in Blood"
        },
        "valueQuantity": {
          "system": "http://unitsofmeasure.org",
          "value": 95.9,
          "unit": "mg/dL",
          "code": "mg/dL"
        },
        "referenceRange": [
          {
            "low": {
              "value": 70,
              "code": "mg/dL",
              "system": "http://unitsofmeasure.org"
            }
          },
          {
            "high": {
              "value": 110,
              "code": "mg/dL",
              "system": "http://unitsofmeasure.org"
            }
          }
        ],
        "text": {
          "status": "generated",
          "div": "<div xmlns=\"http://www.w3.org/1999/xhtml\"><table class=\"hl7__eu__lab__report\"><tr><th>Test</th><th>22-Sep-2017</th><th>Reference&#xA0;Range</th><th>Unit</th></tr><tr><td>Glucose [Mass/volume] in Blood</td><td>95.9</td><td>70 - 110</td><td></td><td>mg/dL</td></tr></table></div>"
        },
        "status": "final",
        "subject": {
          "reference": "urn:uuid:2532f8da-6203-4897-b23c-22e0bc9fdfce",
          "display": "Gabrielius Gaičiūnas"
        },
        "effectiveDateTime": "2017-09-22T16:05:46Z",
        "specimen": {
          "reference": "urn:uuid:308ef362-4eaa-417a-a0b0-f7c13ef6384a"
        }
      }
    },
    {
      "fullUrl": "urn:uuid:9aa0f032-5db8-48e4-9fcf-723aedef2710",
      "resource": {
        "resourceType": "Observation",
        "id": "9aa0f032-5db8-48e4-9fcf-723aedef2710",
        "meta": {
          "profile": [
            "http://hl7.eu/fhir/laboratory/StructureDefinition/Observation-resultslab-eu-lab"
          ]
        },
        "performer": [
          {
            "display": "The Central European Lab"
          }
        ],
        "category": [
          {
            "coding": [
              {
                "system": "http://terminology.hl7.org/CodeSystem/observation-category",
                "code": "laboratory"
              }
            ]
          }
        ],
        "code": {
          "coding": [
            {
              "code": "6299-2",
              "system": "http://loinc.org",
              "display": "Urea nitrogen [Mass/volume] in Blood"
            }
          ],
          "text": "Urea nitrogen [Mass/volume] in Blood"
        },
        "valueQuantity": {
          "system": "http://unitsofmeasure.org",
          "value": 19.7,
          "unit": "mg/dL",
          "code": "mg/dL"
        },
        "referenceRange": [
          {
            "low": {
              "value": 7,
              "code": "mg/dL",
              "system": "http://unitsofmeasure.org"
            }
          },
          {
            "high": {
              "value": 43,
              "code": "mg/dL",
              "system": "http://unitsofmeasure.org"
            }
          }
        ],
        "text": {
          "status": "generated",
          "div": "<div xmlns=\"http://www.w3.org/1999/xhtml\"><table class=\"hl7__eu__lab__report\"><tr><th>Test</th><th>22-Sep-2017</th><th>Reference&#xA0;Range</th><th>Unit</th></tr><tr><td>Urea nitrogen [Mass/volume] in Blood</td><td>19.7</td><td>7 - 43</td><td></td><td>mg/dL</td></tr></table></div>"
        },
        "status": "final",
        "subject": {
          "reference": "urn:uuid:2532f8da-6203-4897-b23c-22e0bc9fdfce",
          "display": "Gabrielius Gaičiūnas"
        },
        "effectiveDateTime": "2017-09-22T16:05:46Z",
        "specimen": {
          "reference": "urn:uuid:308ef362-4eaa-417a-a0b0-f7c13ef6384a"
        }
      }
    },
    {
      "fullUrl": "urn:uuid:d68fc283-0e35-4248-a87d-5fd8278239f1",
      "resource": {
        "resourceType": "Observation",
        "id": "d68fc283-0e35-4248-a87d-5fd8278239f1",
        "meta": {
          "profile": [
            "http://hl7.eu/fhir/laboratory/StructureDefinition/Observation-resultslab-eu-lab"
          ]
        },
        "performer": [
          {
            "display": "The Central European Lab"
          }
        ],
        "category": [
          {
            "coding": [
              {
                "system": "http://terminology.hl7.org/CodeSystem/observation-category",
                "code": "laboratory"
              }
            ]
          }
        ],
        "code": {
          "coding": [
            {
              "code": "38483-4",
              "system": "http://loinc.org",
              "display": "Creatinine [Mass/volume] in Blood"
            }
          ],
          "text": "Creatinine [Mass/volume] in Blood"
        },
        "valueQuantity": {
          "system": "http://unitsofmeasure.org",
          "value": 0.9,
          "unit": "mg/dL",
          "code": "mg/dL"
        },
        "referenceRange": [
          {
            "low": {
              "value": 0.9,
              "code": "mg/dL",
              "system": "http://unitsofmeasure.org"
            }
          },
          {
            "high": {
              "value": 1.3,
              "code": "mg/dL",
              "system": "http://unitsofmeasure.org"
            }
          }
        ],
        "text": {
          "status": "generated",
          "div": "<div xmlns=\"http://www.w3.org/1999/xhtml\"><table class=\"hl7__eu__lab__report\"><tr><th>Test</th><th>22-Sep-2017</th><th>Reference&#xA0;Range</th><th>Unit</th></tr><tr><td>Creatinine [Mass/volume] in Blood</td><td>0.9</td><td>0.9 - 1.3</td><td></td><td>mg/dL</td></tr></table></div>"
        },
        "status": "final",
        "subject": {
          "reference": "urn:uuid:2532f8da-6203-4897-b23c-22e0bc9fdfce",
          "display": "Gabrielius Gaičiūnas"
        },
        "effectiveDateTime": "2017-09-22T16:05:46Z",
        "specimen": {
          "reference": "urn:uuid:308ef362-4eaa-417a-a0b0-f7c13ef6384a"
        }
      }
    },
    {
      "fullUrl": "urn:uuid:1829258f-1f07-4607-8433-771567372773",
      "resource": {
        "resourceType": "Observation",
        "id": "1829258f-1f07-4607-8433-771567372773",
        "meta": {
          "profile": [
            "http://hl7.eu/fhir/laboratory/StructureDefinition/Observation-resultslab-eu-lab"
          ]
        },
        "performer": [
          {
            "display": "The Central European Lab"
          }
        ],
        "category": [
          {
            "coding": [
              {
                "system": "http://terminology.hl7.org/CodeSystem/observation-category",
                "code": "laboratory"
              }
            ]
          }
        ],
        "code": {
          "coding": [
            {
              "code": "49765-1",
              "system": "http://loinc.org",
              "display": "Calcium [Mass/volume] in Blood"
            }
          ],
          "text": "Calcium [Mass/volume] in Blood"
        },
        "valueQuantity": {
          "system": "http://unitsofmeasure.org",
          "value": 8.8,
          "unit": "mg/dL",
          "code": "mg/dL"
        },
        "referenceRange": [
          {
            "low": {
              "value": 8.5,
              "code": "mg/dL",
              "system": "http://unitsofmeasure.org"
            }
          },
          {
            "high": {
              "value": 10.5,
              "code": "mg/dL",
              "system": "http://unitsofmeasure.org"
            }
          }
        ],
        "text": {
          "status": "generated",
          "div": "<div xmlns=\"http://www.w3.org/1999/xhtml\"><table class=\"hl7__eu__lab__report\"><tr><th>Test</th><th>22-Sep-2017</th><th>Reference&#xA0;Range</th><th>Unit</th></tr><tr><td>Calcium [Mass/volume] in Blood</td><td>8.8</td><td>8.5 - 10.5</td><td></td><td>mg/dL</td></tr></table></div>"
        },
        "status": "final",
        "subject": {
          "reference": "urn:uuid:2532f8da-6203-4897-b23c-22e0bc9fdfce",
          "display": "Gabrielius Gaičiūnas"
        },
        "effectiveDateTime": "2017-09-22T16:05:46Z",
        "specimen": {
          "reference": "urn:uuid:308ef362-4eaa-417a-a0b0-f7c13ef6384a"
        }
      }
    },
    {
      "fullUrl": "urn:uuid:6fe7328c-9523-4ea5-bed4-a0abc7561a50",
      "resource": {
        "resourceType": "Observation",
        "id": "6fe7328c-9523-4ea5-bed4-a0abc7561a50",
        "meta": {
          "profile": [
            "http://hl7.eu/fhir/laboratory/StructureDefinition/Observation-resultslab-eu-lab"
          ]
        },
        "performer": [
          {
            "display": "The Central European Lab"
          }
        ],
        "category": [
          {
            "coding": [
              {
                "system": "http://terminology.hl7.org/CodeSystem/observation-category",
                "code": "laboratory"
              }
            ]
          }
        ],
        "code": {
          "coding": [
            {
              "code": "2947-0",
              "system": "http://loinc.org",
              "display": "Sodium [Moles/volume] in Blood"
            }
          ],
          "text": "Sodium [Moles/volume] in Blood"
        },
        "valueQuantity": {
          "system": "http://unitsofmeasure.org",
          "value": 137.6,
          "unit": "mmol/L",
          "code": "mmol/L"
        },
        "referenceRange": [
          {
            "low": {
              "value": 135,
              "code": "mmol/L",
              "system": "http://unitsofmeasure.org"
            }
          },
          {
            "high": {
              "value": 145,
              "code": "mmol/L",
              "system": "http://unitsofmeasure.org"
            }
          }
        ],
        "text": {
          "status": "generated",
          "div": "<div xmlns=\"http://www.w3.org/1999/xhtml\"><table class=\"hl7__eu__lab__report\"><tr><th>Test</th><th>22-Sep-2017</th><th>Reference&#xA0;Range</th><th>Unit</th></tr><tr><td>Sodium [Moles/volume] in Blood</td><td>137.6</td><td>135 - 145</td><td></td><td>mmol/L</td></tr></table></div>"
        },
        "status": "final",
        "subject": {
          "reference": "urn:uuid:2532f8da-6203-4897-b23c-22e0bc9fdfce",
          "display": "Gabrielius Gaičiūnas"
        },
        "effectiveDateTime": "2017-09-22T16:05:46Z",
        "specimen": {
          "reference": "urn:uuid:308ef362-4eaa-417a-a0b0-f7c13ef6384a"
        }
      }
    },
    {
      "fullUrl": "urn:uuid:48aa1175-ccb3-4585-904a-ad23aa883e73",
      "resource": {
        "resourceType": "Observation",
        "id": "48aa1175-ccb3-4585-904a-ad23aa883e73",
        "meta": {
          "profile": [
            "http://hl7.eu/fhir/laboratory/StructureDefinition/Observation-resultslab-eu-lab"
          ]
        },
        "performer": [
          {
            "display": "The Central European Lab"
          }
        ],
        "category": [
          {
            "coding": [
              {
                "system": "http://terminology.hl7.org/CodeSystem/observation-category",
                "code": "laboratory"
              }
            ]
          }
        ],
        "code": {
          "coding": [
            {
              "code": "6298-4",
              "system": "http://loinc.org",
              "display": "Potassium [Moles/volume] in Blood"
            }
          ],
          "text": "Potassium [Moles/volume] in Blood"
        },
        "valueQuantity": {
          "system": "http://unitsofmeasure.org",
          "value": 4.3,
          "unit": "mmol/L",
          "code": "mmol/L"
        },
        "referenceRange": [
          {
            "low": {
              "value": 3.5,
              "code": "mmol/L",
              "system": "http://unitsofmeasure.org"
            }
          },
          {
            "high": {
              "value": 5.3,
              "code": "mmol/L",
              "system": "http://unitsofmeasure.org"
            }
          }
        ],
        "text": {
          "status": "generated",
          "div": "<div xmlns=\"http://www.w3.org/1999/xhtml\"><table class=\"hl7__eu__lab__report\"><tr><th>Test</th><th>22-Sep-2017</th><th>Reference&#xA0;Range</th><th>Unit</th></tr><tr><td>Potassium [Moles/volume] in Blood</td><td>4.3</td><td>3.5 - 5.3</td><td></td><td>mmol/L</td></tr></table></div>"
        },
        "status": "final",
        "subject": {
          "reference": "urn:uuid:2532f8da-6203-4897-b23c-22e0bc9fdfce",
          "display": "Gabrielius Gaičiūnas"
        },
        "effectiveDateTime": "2017-09-22T16:05:46Z",
        "specimen": {
          "reference": "urn:uuid:308ef362-4eaa-417a-a0b0-f7c13ef6384a"
        }
      }
    },
    {
      "fullUrl": "urn:uuid:59d4d583-423a-48c9-9733-5ce800e9ee8a",
      "resource": {
        "resourceType": "Observation",
        "id": "59d4d583-423a-48c9-9733-5ce800e9ee8a",
        "meta": {
          "profile": [
            "http://hl7.eu/fhir/laboratory/StructureDefinition/Observation-resultslab-eu-lab"
          ]
        },
        "performer": [
          {
            "display": "The Central European Lab"
          }
        ],
        "category": [
          {
            "coding": [
              {
                "system": "http://terminology.hl7.org/CodeSystem/observation-category",
                "code": "laboratory"
              }
            ]
          }
        ],
        "code": {
          "coding": [
            {
              "code": "2069-3",
              "system": "http://loinc.org",
              "display": "Chloride [Moles/volume] in Blood"
            }
          ],
          "text": "Chloride [Moles/volume] in Blood"
        },
        "valueQuantity": {
          "system": "http://unitsofmeasure.org",
          "value": 101.3,
          "unit": "mmol/L",
          "code": "mmol/L"
        },
        "referenceRange": [
          {
            "low": {
              "value": 98,
              "code": "mmol/L",
              "system": "http://unitsofmeasure.org"
            }
          },
          {
            "high": {
              "value": 108,
              "code": "mmol/L",
              "system": "http://unitsofmeasure.org"
            }
          }
        ],
        "text": {
          "status": "generated",
          "div": "<div xmlns=\"http://www.w3.org/1999/xhtml\"><table class=\"hl7__eu__lab__report\"><tr><th>Test</th><th>22-Sep-2017</th><th>Reference&#xA0;Range</th><th>Unit</th></tr><tr><td>Chloride [Moles/volume] in Blood</td><td>101.3</td><td>98 - 108</td><td></td><td>mmol/L</td></tr></table></div>"
        },
        "status": "final",
        "subject": {
          "reference": "urn:uuid:2532f8da-6203-4897-b23c-22e0bc9fdfce",
          "display": "Gabrielius Gaičiūnas"
        },
        "effectiveDateTime": "2017-09-22T16:05:46Z",
        "specimen": {
          "reference": "urn:uuid:308ef362-4eaa-417a-a0b0-f7c13ef6384a"
        }
      }
    },
    {
      "fullUrl": "urn:uuid:3c8d325b-2e6c-4800-ab2b-15aeec9bbfdd",
      "resource": {
        "resourceType": "Observation",
        "id": "3c8d325b-2e6c-4800-ab2b-15aeec9bbfdd",
        "meta": {
          "profile": [
            "http://hl7.eu/fhir/laboratory/StructureDefinition/Observation-resultslab-eu-lab"
          ]
        },
        "performer": [
          {
            "display": "The Central European Lab"
          }
        ],
        "category": [
          {
            "coding": [
              {
                "system": "http://terminology.hl7.org/CodeSystem/observation-category",
                "code": "laboratory"
              }
            ]
          }
        ],
        "code": {
          "coding": [
            {
              "code": "20565-8",
              "system": "http://loinc.org",
              "display": "Carbon dioxide, total [Moles/volume] in Blood"
            }
          ],
          "text": "Carbon dioxide, total [Moles/volume] in Blood"
        },
        "valueQuantity": {
          "system": "http://unitsofmeasure.org",
          "value": 25.3,
          "unit": "mmol/L",
          "code": "mmol/L"
        },
        "referenceRange": [
          {
            "low": {
              "value": 22,
              "code": "mmol/L",
              "system": "http://unitsofmeasure.org"
            }
          },
          {
            "high": {
              "value": 29,
              "code": "mmol/L",
              "system": "http://unitsofmeasure.org"
            }
          }
        ],
        "text": {
          "status": "generated",
          "div": "<div xmlns=\"http://www.w3.org/1999/xhtml\"><table class=\"hl7__eu__lab__report\"><tr><th>Test</th><th>22-Sep-2017</th><th>Reference&#xA0;Range</th><th>Unit</th></tr><tr><td>Carbon dioxide, total [Moles/volume] in Blood</td><td>25.3</td><td>22 - 29</td><td></td><td>mmol/L</td></tr></table></div>"
        },
        "status": "final",
        "subject": {
          "reference": "urn:uuid:2532f8da-6203-4897-b23c-22e0bc9fdfce",
          "display": "Gabrielius Gaičiūnas"
        },
        "effectiveDateTime": "2017-09-22T16:05:46Z",
        "specimen": {
          "reference": "urn:uuid:308ef362-4eaa-417a-a0b0-f7c13ef6384a"
        }
      }
    },
    {
      "fullUrl": "urn:uuid:7d0235c2-1c7a-4d84-a369-2c42d274fb13",
      "resource": {
        "resourceType": "Observation",
        "id": "7d0235c2-1c7a-4d84-a369-2c42d274fb13",
        "meta": {
          "profile": [
            "http://hl7.eu/fhir/laboratory/StructureDefinition/Observation-resultslab-eu-lab"
          ]
        },
        "performer": [
          {
            "display": "The Central European Lab"
          }
        ],
        "category": [
          {
            "coding": [
              {
                "system": "http://terminology.hl7.org/CodeSystem/observation-category",
                "code": "laboratory"
              }
            ]
          }
        ],
        "code": {
          "coding": [
            {
              "code": "2093-3",
              "system": "http://loinc.org",
              "display": "Cholesterol [Mass/volume] in Serum or Plasma"
            }
          ],
          "text": "Cholesterol [Mass/volume] in Serum or Plasma"
        },
        "valueQuantity": {
          "system": "http://unitsofmeasure.org",
          "value": 221.7,
          "unit": "mg/dL",
          "code": "mg/dL"
        },
        "referenceRange": [
          {
            "low": {
              "value": 0,
              "code": "mg/dL",
              "system": "http://unitsofmeasure.org"
            }
          },
          {
            "high": {
              "value": 200,
              "code": "mg/dL",
              "system": "http://unitsofmeasure.org"
            }
          }
        ],
        "interpretation": [
          {
            "coding": [
              {
                "code": "H",
                "system": "http://terminology.hl7.org/CodeSystem/v3-ObservationInterpretation",
                "display": "High"
              }
            ]
          }
        ],
        "text": {
          "status": "generated",
          "div": "<div xmlns=\"http://www.w3.org/1999/xhtml\"><table class=\"hl7__eu__lab__report\"><tr><th>Test</th><th>22-Sep-2017</th><th>Reference&#xA0;Range</th><th>Unit</th></tr><tr><td>Cholesterol [Mass/volume] in Serum or Plasma</td><td>221.7</td><td>0 - 200</td><td>H</td><td>mg/dL</td></tr></table></div>"
        },
        "status": "final",
        "subject": {
          "reference": "urn:uuid:2532f8da-6203-4897-b23c-22e0bc9fdfce",
          "display": "Gabrielius Gaičiūnas"
        },
        "effectiveDateTime": "2017-09-22T16:05:46Z",
        "specimen": {
          "reference": "urn:uuid:0d4c925d-4f52-42c7-965d-b34ca25bff49"
        }
      }
    },
    {
      "fullUrl": "urn:uuid:af345334-7928-4abe-b21f-f46cd1143a17",
      "resource": {
        "resourceType": "Observation",
        "id": "af345334-7928-4abe-b21f-f46cd1143a17",
        "meta": {
          "profile": [
            "http://hl7.eu/fhir/laboratory/StructureDefinition/Observation-resultslab-eu-lab"
          ]
        },
        "performer": [
          {
            "display": "The Central European Lab"
          }
        ],
        "category": [
          {
            "coding": [
              {
                "system": "http://terminology.hl7.org/CodeSystem/observation-category",
                "code": "laboratory"
              }
            ]
          }
        ],
        "code": {
          "coding": [
            {
              "code": "2571-8",
              "system": "http://loinc.org",
              "display": "Triglyceride [Mass/volume] in Serum or Plasma"
            }
          ],
          "text": "Triglyceride [Mass/volume] in Serum or Plasma"
        },
        "valueQuantity": {
          "system": "http://unitsofmeasure.org",
          "value": 106,
          "unit": "mg/dL",
          "code": "mg/dL"
        },
        "referenceRange": [
          {
            "low": {
              "value": 0,
              "code": "mg/dL",
              "system": "http://unitsofmeasure.org"
            }
          },
          {
            "high": {
              "value": 199,
              "code": "mg/dL",
              "system": "http://unitsofmeasure.org"
            }
          }
        ],
        "text": {
          "status": "generated",
          "div": "<div xmlns=\"http://www.w3.org/1999/xhtml\"><table class=\"hl7__eu__lab__report\"><tr><th>Test</th><th>22-Sep-2017</th><th>Reference&#xA0;Range</th><th>Unit</th></tr><tr><td>Triglyceride [Mass/volume] in Serum or Plasma</td><td>106.0</td><td>0 - 199</td><td></td><td>mg/dL</td></tr></table></div>"
        },
        "status": "final",
        "subject": {
          "reference": "urn:uuid:2532f8da-6203-4897-b23c-22e0bc9fdfce",
          "display": "Gabrielius Gaičiūnas"
        },
        "effectiveDateTime": "2017-09-22T16:05:46Z",
        "specimen": {
          "reference": "urn:uuid:0d4c925d-4f52-42c7-965d-b34ca25bff49"
        }
      }
    },
    {
      "fullUrl": "urn:uuid:56622279-4265-473b-b713-f751538c9990",
      "resource": {
        "resourceType": "Observation",
        "id": "56622279-4265-473b-b713-f751538c9990",
        "meta": {
          "profile": [
            "http://hl7.eu/fhir/laboratory/StructureDefinition/Observation-resultslab-eu-lab"
          ]
        },
        "performer": [
          {
            "display": "The Central European Lab"
          }
        ],
        "category": [
          {
            "coding": [
              {
                "system": "http://terminology.hl7.org/CodeSystem/observation-category",
                "code": "laboratory"
              }
            ]
          }
        ],
        "code": {
          "coding": [
            {
              "code": "18262-6",
              "system": "http://loinc.org",
              "display": "Cholesterol in LDL [Mass/volume] in Serum or Plasma by Direct assay"
            }
          ],
          "text": "Cholesterol in LDL [Mass/volume] in Serum or Plasma by Direct assay"
        },
        "valueQuantity": {
          "system": "http://unitsofmeasure.org",
          "value": 170.7,
          "unit": "mg/dL",
          "code": "mg/dL"
        },
        "referenceRange": [
          {
            "low": {
              "value": 0,
              "code": "mg/dL",
              "system": "http://unitsofmeasure.org"
            }
          },
          {
            "high": {
              "value": 130,
              "code": "mg/dL",
              "system": "http://unitsofmeasure.org"
            }
          }
        ],
        "interpretation": [
          {
            "coding": [
              {
                "code": "H",
                "system": "http://terminology.hl7.org/CodeSystem/v3-ObservationInterpretation",
                "display": "High"
              }
            ]
          }
        ],
        "text": {
          "status": "generated",
          "div": "<div xmlns=\"http://www.w3.org/1999/xhtml\"><table class=\"hl7__eu__lab__report\"><tr><th>Test</th><th>22-Sep-2017</th><th>Reference&#xA0;Range</th><th>Unit</th></tr><tr><td>Cholesterol in LDL [Mass/volume] in Serum or Plasma by Direct assay</td><td>170.7</td><td>0 - 130</td><td>H</td><td>mg/dL</td></tr></table></div>"
        },
        "status": "final",
        "subject": {
          "reference": "urn:uuid:2532f8da-6203-4897-b23c-22e0bc9fdfce",
          "display": "Gabrielius Gaičiūnas"
        },
        "effectiveDateTime": "2017-09-22T16:05:46Z",
        "specimen": {
          "reference": "urn:uuid:0d4c925d-4f52-42c7-965d-b34ca25bff49"
        }
      }
    },
    {
      "fullUrl": "urn:uuid:cac694b6-492c-4c60-aff3-2c10b7a51e71",
      "resource": {
        "resourceType": "Observation",
        "id": "cac694b6-492c-4c60-aff3-2c10b7a51e71",
        "meta": {
          "profile": [
            "http://hl7.eu/fhir/laboratory/StructureDefinition/Observation-resultslab-eu-lab"
          ]
        },
        "performer": [
          {
            "display": "The Central European Lab"
          }
        ],
        "category": [
          {
            "coding": [
              {
                "system": "http://terminology.hl7.org/CodeSystem/observation-category",
                "code": "laboratory"
              }
            ]
          }
        ],
        "code": {
          "coding": [
            {
              "code": "2085-9",
              "system": "http://loinc.org",
              "display": "Cholesterol in HDL [Mass/volume] in Serum or Plasma"
            }
          ],
          "text": "Cholesterol in HDL [Mass/volume] in Serum or Plasma"
        },
        "valueQuantity": {
          "system": "http://unitsofmeasure.org",
          "value": 29.8,
          "unit": "mg/dL",
          "code": "mg/dL"
        },
        "referenceRange": [
          {
            "low": {
              "value": 40,
              "code": "mg/dL",
              "system": "http://unitsofmeasure.org"
            }
          },
          {
            "high": {
              "value": 100,
              "code": "mg/dL",
              "system": "http://unitsofmeasure.org"
            }
          }
        ],
        "interpretation": [
          {
            "coding": [
              {
                "code": "L",
                "system": "http://terminology.hl7.org/CodeSystem/v3-ObservationInterpretation",
                "display": "Low"
              }
            ]
          }
        ],
        "text": {
          "status": "generated",
          "div": "<div xmlns=\"http://www.w3.org/1999/xhtml\"><table class=\"hl7__eu__lab__report\"><tr><th>Test</th><th>22-Sep-2017</th><th>Reference&#xA0;Range</th><th>Unit</th></tr><tr><td>Cholesterol in HDL [Mass/volume] in Serum or Plasma</td><td>29.8</td><td>40 - 100</td><td>L</td><td>mg/dL</td></tr></table></div>"
        },
        "status": "final",
        "subject": {
          "reference": "urn:uuid:2532f8da-6203-4897-b23c-22e0bc9fdfce",
          "display": "Gabrielius Gaičiūnas"
        },
        "effectiveDateTime": "2017-09-22T16:05:46Z",
        "specimen": {
          "reference": "urn:uuid:0d4c925d-4f52-42c7-965d-b34ca25bff49"
        }
      }
    },
    {
      "fullUrl": "urn:uuid:f68ffc59-fd85-4028-9ef2-4e931bdfa8b2",
      "resource": {
        "resourceType": "Device",
        "id": "f68ffc59-fd85-4028-9ef2-4e931bdfa8b2",
        "deviceName": [
          {
            "name": "SYNDERAI Synthetic Generator",
            "type": "manufacturer-name"
          }
        ],
        "version": [
          {
            "value": "5.0"
          }
        ],
        "text": {
          "status": "generated",
          "div": "<div xmlns=\"http://www.w3.org/1999/xhtml\">SYNDERAI Synthetic Generator v5.0</div>"
        },
        "status": "active\"",
        "distinctIdentifier": "synderai-generator-50",
        "manufacturer": "SYNDERAI Project"
      }
    },
    {
      "fullUrl": "urn:uuid:e5293211-f2c0-4147-bbcb-d7608383e849",
      "resource": {
        "resourceType": "Provenance",
        "id": "e5293211-f2c0-4147-bbcb-d7608383e849",
        "target": [
          {
            "reference": "Patient/2532f8da-6203-4897-b23c-22e0bc9fdfce"
          },
          {
            "reference": "Bundle/e5991aa4-8bb0-45a3-b6ba-e7ee716d0571"
          },
          {
            "reference": "Composition/62d2d330-bc22-4174-be8f-410c6201b05e"
          },
          {
            "reference": "PractitionerRole/31c8472b-d39c-4c96-a36d-a067a8eae3e1"
          },
          {
            "reference": "Practitioner/f9898444-822a-4370-9624-75debcba69b5"
          },
          {
            "reference": "PractitionerRole/3cbbcdac-d349-4a4b-b673-85d66532c0d5"
          },
          {
            "reference": "Organization/0983e45f-e8bd-4c48-b170-1212c43c9445"
          }
        ],
        "activity": {
          "text": "Synthetic Example Data Generation"
        },
        "policy": [
          "https://synderai.net/synderai-synthetic-data-policy"
        ],
        "agent": [
          {
            "type": {
              "text": "author"
            },
            "who": {
              "reference": "Device/f68ffc59-fd85-4028-9ef2-4e931bdfa8b2"
            }
          }
        ],
        "reason": [
          {
            "text": "Interoperability Testing and Training (non-clinical use)"
          }
        ],
        "text": {
          "status": "generated",
          "div": "<div xmlns=\"http://www.w3.org/1999/xhtml\">Provenance for SYNDERAI Synthetic Example Data Resource</div>"
        },
        "recorded": "2017-09-22T18:05:46Z"
      }
    },
    {
      "fullUrl": "urn:uuid:31c8472b-d39c-4c96-a36d-a067a8eae3e1",
      "resource": {
        "resourceType": "PractitionerRole",
        "id": "31c8472b-d39c-4c96-a36d-a067a8eae3e1",
        "meta": {
          "profile": [
            "http://hl7.eu/fhir/base/StructureDefinition/practitionerRole-eu"
          ]
        },
        "text": {
          "status": "generated",
          "div": "<div xmlns=\"http://www.w3.org/1999/xhtml\">Laboratory Role Id: 31c8472b-d39c-4c96-a36d-a067a8eae3e1</div>"
        },
        "practitioner": {
          "reference": "urn:uuid:f9898444-822a-4370-9624-75debcba69b5"
        }
      }
    },
    {
      "fullUrl": "urn:uuid:f9898444-822a-4370-9624-75debcba69b5",
      "resource": {
        "resourceType": "Practitioner",
        "id": "f9898444-822a-4370-9624-75debcba69b5",
        "meta": {
          "profile": [
            "http://hl7.eu/fhir/base/StructureDefinition/practitioner-eu"
          ]
        },
        "identifier": [
          {
            "assigner": {
              "display": "HL7 Europe"
            },
            "system": "urn:oid:2.16.840.1.113883.2.51.999",
            "value": "2b330fde-e9ed-46b3-8bf2-48ecc3eca498"
          }
        ],
        "name": [
          {
            "prefix": [
              "dr"
            ],
            "given": [
              "Ex"
            ],
            "family": "Ample"
          }
        ],
        "address": [
          {
            "line": [
              "Laboratoire Central Européenne",
              "Boulevard du Jardin Botanique 32"
            ],
            "postalCode": "1000",
            "city": "Brussels",
            "country": "Belgium"
          }
        ],
        "text": {
          "status": "generated",
          "div": "<div xmlns=\"http://www.w3.org/1999/xhtml\">Laboratory: Laboratoire Central Européenne, 1000 Brussels, Belgium</div>"
        }
      }
    }
  ],
  "type": "document",
  "timestamp": "2017-09-22T18:05:46Z"
}
