{
  "resourceType": "Bundle",
  "id": "76655f2e-c75d-49a2-b453-173d9bf5d43d",
  "meta": {
    "profile": [
      "http://hl7.eu/fhir/laboratory/StructureDefinition/Bundle-eu-lab"
    ]
  },
  "identifier": {
    "assigner": {
      "display": "HL7 Europe"
    },
    "system": "urn:oid:2.16.840.1.113883.2.51.999",
    "value": "3ac09d8e-2af8-4f95-864f-bddeedd1390e"
  },
  "entry": [
    {
      "fullUrl": "urn:uuid:4ff87b26-a0d4-488c-b1b5-49617b8432e3",
      "resource": {
        "resourceType": "Composition",
        "id": "4ff87b26-a0d4-488c-b1b5-49617b8432e3",
        "meta": {
          "profile": [
            "http://hl7.eu/fhir/laboratory/StructureDefinition/Composition-eu-lab"
          ]
        },
        "identifier": {
          "assigner": {
            "display": "HL7 Europe"
          },
          "system": "urn:oid:2.16.840.1.113883.2.51.999",
          "value": "24841c69-118b-4135-9b4d-6b7e97838ab6"
        },
        "author": [
          {
            "reference": "urn:uuid:685273e8-732d-4924-b6bb-bcadd619058c"
          }
        ],
        "category": [
          {
            "coding": [
              {
                "code": "26436-6",
                "system": "http://loinc.org",
                "display": "Laboratory studies (set)"
              }
            ]
          }
        ],
        "type": {
          "coding": [
            {
              "code": "11502-2",
              "system": "http://loinc.org",
              "display": "Laboratory report"
            }
          ],
          "text": "Laboratory Report"
        },
        "section": [
          {
            "code": {
              "coding": [
                {
                  "code": "26436-6",
                  "system": "http://loinc.org",
                  "display": "Laboratory studies (set)"
                }
              ],
              "text": "Laboratory studies"
            },
            "section": [
              {
                "code": {
                  "coding": [
                    {
                      "code": "$18719-5",
                      "system": "http://loinc.org",
                      "display": "Chemistry studies (set)"
                    }
                  ],
                  "text": "Chemistry"
                },
                "entry": [
                  {
                    "reference": "urn:uuid:ee10165b-12bc-40bd-86b6-c7db7651b498"
                  },
                  {
                    "reference": "urn:uuid:e05673eb-ad1c-4360-ad27-40622ca1bafa"
                  },
                  {
                    "reference": "urn:uuid:ab523c50-2688-4bd6-b22c-37b2c1f2aaa9"
                  },
                  {
                    "reference": "urn:uuid:2b842caf-3190-4695-9622-2253fb97a952"
                  }
                ],
                "text": {
                  "status": "generated",
                  "div": "<div xmlns=\"http://www.w3.org/1999/xhtml\"><h3>Chemistry</h3><table class=\"hl7__eu__lab__report\"><thead><tr><th>Test</th><th>18-OCT-2017</th><th>Reference&#xA0;Range</th><th>Unit</th></tr></thead><tbody><tr><td>Cholesterol [Mass/volume] in Serum or Plasma</td><td><strong>284.8 H</strong></td><td>125 - 200</td><td>mg/dL</td></tr><tr><td>Triglyceride [Mass/volume] in Serum or Plasma</td><td>111.9</td><td>10 - 175</td><td>mg/dL</td></tr><tr><td>Cholesterol in LDL [Mass/volume] in Serum or Plasma by Direct assay</td><td><strong>211.6 H</strong></td><td>0 - 130</td><td>mg/dL</td></tr><tr><td>Cholesterol in HDL [Mass/volume] in Serum or Plasma</td><td>50.8</td><td>50 - 100</td><td>mg/dL</td></tr></tbody></table></div>"
                },
                "title": "Chemistry"
              }
            ],
            "title": "Laboratory Report"
          },
          {
            "text": {
              "status": "generated",
              "div": "<div xmlns=\"http://www.w3.org/1999/xhtml\"><h3>Annotation</h3><table class=\"hl7__eu__lab__report\"><tr><th>Conclusion and Recommendations based on this report and previous findings known to us</th></tr><tr><td>The patient shows significantly elevated total and LDL cholesterol levels, while HDL and triglycerides are within normal limits. These findings indicate increased cardiovascular risk and may warrant further clinical evaluation and consideration of lipid-lowering therapy, especially given the patient&quot;s age.</td></tr></table></div>"
            },
            "code": {
              "coding": [
                {
                  "system": "http://loinc.org",
                  "code": "48767-8",
                  "display": "Annotation comment"
                }
              ]
            },
            "title": "Annotation comment"
          }
        ],
        "status": "final",
        "subject": {
          "reference": "urn:uuid:349ecbef-d158-490f-9269-b8803dd37bb9",
          "display": "Ludmila Vávrová"
        },
        "date": "2017-10-18T05:51:38Z",
        "title": "Laboratory Report",
        "confidentiality": "N"
      }
    },
    {
      "fullUrl": "urn:uuid:b9d1e7da-31c0-46ea-a7b6-caefab646ef8",
      "resource": {
        "resourceType": "DiagnosticReport",
        "id": "b9d1e7da-31c0-46ea-a7b6-caefab646ef8",
        "meta": {
          "profile": [
            "http://hl7.eu/fhir/laboratory/StructureDefinition/DiagnosticReport-eu-lab"
          ]
        },
        "identifier": [
          {
            "assigner": {
              "display": "HL7 Europe"
            },
            "system": "urn:oid:2.16.840.1.113883.2.51.999",
            "value": "8695f01e-2bca-4543-9838-71f9de5dadb8"
          }
        ],
        "extension": [
          {
            "url": "http://hl7.org/fhir/5.0/StructureDefinition/extension-DiagnosticReport.composition",
            "valueReference": {
              "reference": "urn:uuid:24841c69-118b-4135-9b4d-6b7e97838ab6"
            }
          }
        ],
        "category": [
          {
            "coding": [
              {
                "code": "26436-6",
                "system": "http://loinc.org",
                "display": "Laboratory studies (set)"
              }
            ]
          }
        ],
        "specimen": [
          {
            "reference": "urn:uuid:6ed81ed3-11eb-48f4-86d6-c903ffe1a6ae"
          }
        ],
        "result": [
          {
            "reference": "urn:uuid:ee10165b-12bc-40bd-86b6-c7db7651b498"
          },
          {
            "reference": "urn:uuid:e05673eb-ad1c-4360-ad27-40622ca1bafa"
          },
          {
            "reference": "urn:uuid:ab523c50-2688-4bd6-b22c-37b2c1f2aaa9"
          },
          {
            "reference": "urn:uuid:2b842caf-3190-4695-9622-2253fb97a952"
          }
        ],
        "status": "registered",
        "code": {
          "coding": [
            {
              "code": "11502-2",
              "system": "http://loinc.org",
              "display": "Laboratory report"
            }
          ]
        },
        "subject": {
          "reference": "urn:uuid:349ecbef-d158-490f-9269-b8803dd37bb9",
          "display": "Ludmila Vávrová"
        }
      }
    },
    {
      "fullUrl": "urn:uuid:349ecbef-d158-490f-9269-b8803dd37bb9",
      "resource": {
        "resourceType": "Patient",
        "id": "349ecbef-d158-490f-9269-b8803dd37bb9",
        "meta": {
          "security": [
            {
              "system": "http://terminology.hl7.org/CodeSystem/v3-ActReason",
              "code": "HTEST"
            },
            {
              "system": "http://terminology.hl7.org/CodeSystem/v3-ActReason",
              "code": "TRAIN"
            }
          ],
          "tag": [
            {
              "system": "https://synderai.net/fhir/CodeSystem/tags",
              "code": "synthetic",
              "display": "SYNDERAI Synthetic data"
            }
          ],
          "profile": [
            "http://hl7.eu/fhir/base/StructureDefinition/patient-eu-core"
          ]
        },
        "identifier": [
          {
            "type": {
              "coding": [
                {
                  "code": "PT",
                  "system": "http://terminology.hl7.org/CodeSystem/v2-0203"
                }
              ]
            },
            "system": "http://ec.europa.eu/identifier/eci",
            "value": "1992-540676-1"
          },
          {
            "type": {
              "coding": [
                {
                  "code": "MR",
                  "system": "http://terminology.hl7.org/CodeSystem/v2-0203"
                }
              ]
            },
            "system": "http://local.setting.eu/identifier",
            "value": "7c533aae-6e7f-89aa-dfdc-8ff900a5990b"
          }
        ],
        "name": [
          {
            "family": "Vávrová"
          },
          {
            "given": [
              "Ludmila"
            ]
          },
          {
            "text": "Ludmila Vávrová"
          }
        ],
        "address": [
          {
            "line": [
              "Šárovo Kolo 116"
            ],
            "use": "home",
            "type": "physical",
            "postalCode": "29471",
            "city": "Bakov nad Jizerou",
            "country": "Czechia"
          }
        ],
        "telecom": [
          {
            "system": "phone",
            "value": "00420 607 610 889"
          }
        ],
        "extension": [
          {
            "url": "http://hl7.org/fhir/StructureDefinition/patient-nationality",
            "valueCodeableConcept": {
              "coding": [
                {
                  "code": "CZ",
                  "system": "http://hl7.org/fhir/ValueSet/country"
                }
              ]
            }
          }
        ],
        "text": {
          "status": "generated",
          "div": "<div xmlns=\"http://www.w3.org/1999/xhtml\"><table class=\"hl7__ips\"><tr><td>Ludmila Vávrová</td><td>female</td><td>08-Aug-1940</td></tr></table></div>"
        },
        "gender": "female",
        "birthDate": "1940-08-08"
      }
    },
    {
      "fullUrl": "urn:uuid:075a8acc-ad55-46e4-a212-7e12ddf6287b",
      "resource": {
        "resourceType": "ServiceRequest",
        "id": "075a8acc-ad55-46e4-a212-7e12ddf6287b",
        "meta": {
          "profile": [
            "http://hl7.eu/fhir/laboratory/StructureDefinition/ServiceRequest-eu-lab"
          ]
        },
        "identifier": [
          {
            "system": "http://example.org",
            "value": "0dd9c4e0-e17b-4ce5-987d-ca1995327db3"
          }
        ],
        "specimen": [
          {
            "reference": "urn:uuid:6ed81ed3-11eb-48f4-86d6-c903ffe1a6ae"
          }
        ],
        "reasonCode": [
          {
            "coding": [
              {
                "code": "414545008",
                "system": "http://snomed.info/sct",
                "display": "Ischemic heart disease"
              }
            ]
          },
          {
            "coding": [
              {
                "code": "64859006",
                "system": "http://snomed.info/sct",
                "display": "Osteoporosis"
              }
            ]
          },
          {
            "coding": [
              {
                "code": "6525002",
                "system": "http://snomed.info/sct",
                "display": "Dependent drug abuse"
              }
            ]
          },
          {
            "coding": [
              {
                "code": "55822004",
                "system": "http://snomed.info/sct",
                "display": "Hyperlipidemia"
              }
            ]
          },
          {
            "coding": [
              {
                "code": "124171000119105",
                "system": "http://snomed.info/sct",
                "display": "Chronic intractable migraine without aura"
              }
            ]
          },
          {
            "coding": [
              {
                "code": "196416002",
                "system": "http://snomed.info/sct",
                "display": "Impacted molars"
              }
            ]
          },
          {
            "coding": [
              {
                "code": "239872002",
                "system": "http://snomed.info/sct",
                "display": "Osteoarthritis of hip"
              }
            ]
          },
          {
            "coding": [
              {
                "code": "40055000",
                "system": "http://snomed.info/sct",
                "display": "Chronic sinusitis"
              }
            ]
          }
        ],
        "status": "active",
        "intent": "order",
        "code": {
          "coding": [
            {
              "code": "108252007",
              "system": "http://snomed.info/sct",
              "display": "Laboratory procedure"
            }
          ]
        },
        "subject": {
          "reference": "urn:uuid:349ecbef-d158-490f-9269-b8803dd37bb9",
          "display": "Ludmila Vávrová"
        },
        "requester": {
          "reference": "urn:uuid:cc8c8b90-7609-4225-b4e5-70a51c9a34e2"
        }
      }
    },
    {
      "fullUrl": "urn:uuid:cc8c8b90-7609-4225-b4e5-70a51c9a34e2",
      "resource": {
        "resourceType": "PractitionerRole",
        "id": "cc8c8b90-7609-4225-b4e5-70a51c9a34e2",
        "meta": {
          "profile": [
            "http://hl7.eu/fhir/base/StructureDefinition/practitionerRole-eu"
          ]
        },
        "text": {
          "status": "generated",
          "div": "<div xmlns=\"http://www.w3.org/1999/xhtml\">Provider Role Id: cc8c8b90-7609-4225-b4e5-70a51c9a34e2</div>"
        },
        "organization": {
          "reference": "urn:uuid:5db75053-ab15-4a19-a9c3-cd54018d5f34"
        }
      }
    },
    {
      "fullUrl": "urn:uuid:5db75053-ab15-4a19-a9c3-cd54018d5f34",
      "resource": {
        "resourceType": "Organization",
        "id": "5db75053-ab15-4a19-a9c3-cd54018d5f34",
        "meta": {
          "profile": [
            "http://hl7.eu/fhir/base/StructureDefinition/organization-eu"
          ]
        },
        "identifier": [
          {
            "assigner": {
              "display": "HL7 Europe"
            },
            "system": "urn:oid:2.16.840.1.113883.2.51.999",
            "value": "7840998c-5523-4b4f-b2d2-819f52783d30"
          }
        ],
        "address": [
          {
            "city": "Kosmonosy",
            "postalCode": "293 06",
            "country": "Czechia"
          }
        ],
        "text": {
          "status": "generated",
          "div": "<div xmlns=\"http://www.w3.org/1999/xhtml\">Provider Organization: Psychiatrická nemocnice Kosmonosy</div>"
        },
        "name": "Psychiatrická nemocnice Kosmonosy"
      }
    },
    {
      "fullUrl": "urn:uuid:6ed81ed3-11eb-48f4-86d6-c903ffe1a6ae",
      "resource": {
        "resourceType": "Specimen",
        "id": "6ed81ed3-11eb-48f4-86d6-c903ffe1a6ae",
        "meta": {
          "profile": [
            "http://hl7.eu/fhir/laboratory/StructureDefinition/Specimen-eu-lab"
          ]
        },
        "collection": {
          "collectedDateTime": "2017-10-18"
        },
        "text": {
          "status": "generated",
          "div": "<div xmlns=\"http://www.w3.org/1999/xhtml\"><table class=\"hl7__eu__lab__report\"><tr><th>Specimen</th><th>Collection Date</th></tr><tr><td>Acellular blood (serum or plasma) specimen</td><td><span class=\"nb\">18-Oct-2017</span></td></tr></table></div>"
        },
        "type": {
          "coding": [
            {
              "code": "122592007",
              "system": "http://snomed.info/sct",
              "display": "Acellular blood (serum or plasma) specimen"
            }
          ]
        }
      }
    },
    {
      "fullUrl": "urn:uuid:ee10165b-12bc-40bd-86b6-c7db7651b498",
      "resource": {
        "resourceType": "Observation",
        "id": "ee10165b-12bc-40bd-86b6-c7db7651b498",
        "meta": {
          "profile": [
            "http://hl7.eu/fhir/laboratory/StructureDefinition/Observation-resultslab-eu-lab"
          ]
        },
        "performer": [
          {
            "display": "The Central European Lab"
          }
        ],
        "category": [
          {
            "coding": [
              {
                "system": "http://terminology.hl7.org/CodeSystem/observation-category",
                "code": "laboratory"
              }
            ]
          }
        ],
        "code": {
          "coding": [
            {
              "code": "2093-3",
              "system": "http://loinc.org",
              "display": "Cholesterol [Mass/volume] in Serum or Plasma"
            }
          ],
          "text": "Cholesterol [Mass/volume] in Serum or Plasma"
        },
        "valueQuantity": {
          "system": "http://unitsofmeasure.org",
          "value": 284.8,
          "unit": "mg/dL",
          "code": "mg/dL"
        },
        "referenceRange": [
          {
            "low": {
              "value": 125,
              "code": "mg/dL",
              "system": "http://unitsofmeasure.org"
            }
          },
          {
            "high": {
              "value": 200,
              "code": "mg/dL",
              "system": "http://unitsofmeasure.org"
            }
          }
        ],
        "interpretation": [
          {
            "coding": [
              {
                "code": "H",
                "system": "http://terminology.hl7.org/CodeSystem/v3-ObservationInterpretation",
                "display": "High"
              }
            ]
          }
        ],
        "text": {
          "status": "generated",
          "div": "<div xmlns=\"http://www.w3.org/1999/xhtml\"><table class=\"hl7__eu__lab__report\"><tr><th>Test</th><th>18-Oct-2017</th><th>Reference&#xA0;Range</th><th>Unit</th></tr><tr><td>Cholesterol [Mass/volume] in Serum or Plasma</td><td>284.8</td><td>125 - 200</td><td>H</td><td>mg/dL</td></tr></table></div>"
        },
        "status": "final",
        "subject": {
          "reference": "urn:uuid:349ecbef-d158-490f-9269-b8803dd37bb9",
          "display": "Ludmila Vávrová"
        },
        "effectiveDateTime": "2017-10-18T03:51:38Z",
        "specimen": {
          "reference": "urn:uuid:6ed81ed3-11eb-48f4-86d6-c903ffe1a6ae"
        }
      }
    },
    {
      "fullUrl": "urn:uuid:e05673eb-ad1c-4360-ad27-40622ca1bafa",
      "resource": {
        "resourceType": "Observation",
        "id": "e05673eb-ad1c-4360-ad27-40622ca1bafa",
        "meta": {
          "profile": [
            "http://hl7.eu/fhir/laboratory/StructureDefinition/Observation-resultslab-eu-lab"
          ]
        },
        "performer": [
          {
            "display": "The Central European Lab"
          }
        ],
        "category": [
          {
            "coding": [
              {
                "system": "http://terminology.hl7.org/CodeSystem/observation-category",
                "code": "laboratory"
              }
            ]
          }
        ],
        "code": {
          "coding": [
            {
              "code": "2571-8",
              "system": "http://loinc.org",
              "display": "Triglyceride [Mass/volume] in Serum or Plasma"
            }
          ],
          "text": "Triglyceride [Mass/volume] in Serum or Plasma"
        },
        "valueQuantity": {
          "system": "http://unitsofmeasure.org",
          "value": 111.9,
          "unit": "mg/dL",
          "code": "mg/dL"
        },
        "referenceRange": [
          {
            "low": {
              "value": 10,
              "code": "mg/dL",
              "system": "http://unitsofmeasure.org"
            }
          },
          {
            "high": {
              "value": 175,
              "code": "mg/dL",
              "system": "http://unitsofmeasure.org"
            }
          }
        ],
        "text": {
          "status": "generated",
          "div": "<div xmlns=\"http://www.w3.org/1999/xhtml\"><table class=\"hl7__eu__lab__report\"><tr><th>Test</th><th>18-Oct-2017</th><th>Reference&#xA0;Range</th><th>Unit</th></tr><tr><td>Triglyceride [Mass/volume] in Serum or Plasma</td><td>111.9</td><td>10 - 175</td><td></td><td>mg/dL</td></tr></table></div>"
        },
        "status": "final",
        "subject": {
          "reference": "urn:uuid:349ecbef-d158-490f-9269-b8803dd37bb9",
          "display": "Ludmila Vávrová"
        },
        "effectiveDateTime": "2017-10-18T03:51:38Z",
        "specimen": {
          "reference": "urn:uuid:6ed81ed3-11eb-48f4-86d6-c903ffe1a6ae"
        }
      }
    },
    {
      "fullUrl": "urn:uuid:ab523c50-2688-4bd6-b22c-37b2c1f2aaa9",
      "resource": {
        "resourceType": "Observation",
        "id": "ab523c50-2688-4bd6-b22c-37b2c1f2aaa9",
        "meta": {
          "profile": [
            "http://hl7.eu/fhir/laboratory/StructureDefinition/Observation-resultslab-eu-lab"
          ]
        },
        "performer": [
          {
            "display": "The Central European Lab"
          }
        ],
        "category": [
          {
            "coding": [
              {
                "system": "http://terminology.hl7.org/CodeSystem/observation-category",
                "code": "laboratory"
              }
            ]
          }
        ],
        "code": {
          "coding": [
            {
              "code": "18262-6",
              "system": "http://loinc.org",
              "display": "Cholesterol in LDL [Mass/volume] in Serum or Plasma by Direct assay"
            }
          ],
          "text": "Cholesterol in LDL [Mass/volume] in Serum or Plasma by Direct assay"
        },
        "valueQuantity": {
          "system": "http://unitsofmeasure.org",
          "value": 211.6,
          "unit": "mg/dL",
          "code": "mg/dL"
        },
        "referenceRange": [
          {
            "low": {
              "value": 0,
              "code": "mg/dL",
              "system": "http://unitsofmeasure.org"
            }
          },
          {
            "high": {
              "value": 130,
              "code": "mg/dL",
              "system": "http://unitsofmeasure.org"
            }
          }
        ],
        "interpretation": [
          {
            "coding": [
              {
                "code": "H",
                "system": "http://terminology.hl7.org/CodeSystem/v3-ObservationInterpretation",
                "display": "High"
              }
            ]
          }
        ],
        "text": {
          "status": "generated",
          "div": "<div xmlns=\"http://www.w3.org/1999/xhtml\"><table class=\"hl7__eu__lab__report\"><tr><th>Test</th><th>18-Oct-2017</th><th>Reference&#xA0;Range</th><th>Unit</th></tr><tr><td>Cholesterol in LDL [Mass/volume] in Serum or Plasma by Direct assay</td><td>211.6</td><td>0 - 130</td><td>H</td><td>mg/dL</td></tr></table></div>"
        },
        "status": "final",
        "subject": {
          "reference": "urn:uuid:349ecbef-d158-490f-9269-b8803dd37bb9",
          "display": "Ludmila Vávrová"
        },
        "effectiveDateTime": "2017-10-18T03:51:38Z",
        "specimen": {
          "reference": "urn:uuid:6ed81ed3-11eb-48f4-86d6-c903ffe1a6ae"
        }
      }
    },
    {
      "fullUrl": "urn:uuid:2b842caf-3190-4695-9622-2253fb97a952",
      "resource": {
        "resourceType": "Observation",
        "id": "2b842caf-3190-4695-9622-2253fb97a952",
        "meta": {
          "profile": [
            "http://hl7.eu/fhir/laboratory/StructureDefinition/Observation-resultslab-eu-lab"
          ]
        },
        "performer": [
          {
            "display": "The Central European Lab"
          }
        ],
        "category": [
          {
            "coding": [
              {
                "system": "http://terminology.hl7.org/CodeSystem/observation-category",
                "code": "laboratory"
              }
            ]
          }
        ],
        "code": {
          "coding": [
            {
              "code": "2085-9",
              "system": "http://loinc.org",
              "display": "Cholesterol in HDL [Mass/volume] in Serum or Plasma"
            }
          ],
          "text": "Cholesterol in HDL [Mass/volume] in Serum or Plasma"
        },
        "valueQuantity": {
          "system": "http://unitsofmeasure.org",
          "value": 50.8,
          "unit": "mg/dL",
          "code": "mg/dL"
        },
        "referenceRange": [
          {
            "low": {
              "value": 50,
              "code": "mg/dL",
              "system": "http://unitsofmeasure.org"
            }
          },
          {
            "high": {
              "value": 100,
              "code": "mg/dL",
              "system": "http://unitsofmeasure.org"
            }
          }
        ],
        "text": {
          "status": "generated",
          "div": "<div xmlns=\"http://www.w3.org/1999/xhtml\"><table class=\"hl7__eu__lab__report\"><tr><th>Test</th><th>18-Oct-2017</th><th>Reference&#xA0;Range</th><th>Unit</th></tr><tr><td>Cholesterol in HDL [Mass/volume] in Serum or Plasma</td><td>50.8</td><td>50 - 100</td><td></td><td>mg/dL</td></tr></table></div>"
        },
        "status": "final",
        "subject": {
          "reference": "urn:uuid:349ecbef-d158-490f-9269-b8803dd37bb9",
          "display": "Ludmila Vávrová"
        },
        "effectiveDateTime": "2017-10-18T03:51:38Z",
        "specimen": {
          "reference": "urn:uuid:6ed81ed3-11eb-48f4-86d6-c903ffe1a6ae"
        }
      }
    },
    {
      "fullUrl": "urn:uuid:9273ec76-fb3a-4f52-bc3b-81cd30a3705f",
      "resource": {
        "resourceType": "Device",
        "id": "9273ec76-fb3a-4f52-bc3b-81cd30a3705f",
        "deviceName": [
          {
            "name": "SYNDERAI Synthetic Generator",
            "type": "manufacturer-name"
          }
        ],
        "version": [
          {
            "value": "5.0"
          }
        ],
        "text": {
          "status": "generated",
          "div": "<div xmlns=\"http://www.w3.org/1999/xhtml\">SYNDERAI Synthetic Generator v5.0</div>"
        },
        "status": "active\"",
        "distinctIdentifier": "synderai-generator-50",
        "manufacturer": "SYNDERAI Project"
      }
    },
    {
      "fullUrl": "urn:uuid:602364f9-fc4e-4acc-a4d3-be7826be50cd",
      "resource": {
        "resourceType": "Provenance",
        "id": "602364f9-fc4e-4acc-a4d3-be7826be50cd",
        "target": [
          {
            "reference": "Patient/349ecbef-d158-490f-9269-b8803dd37bb9"
          },
          {
            "reference": "Bundle/76655f2e-c75d-49a2-b453-173d9bf5d43d"
          },
          {
            "reference": "Composition/4ff87b26-a0d4-488c-b1b5-49617b8432e3"
          },
          {
            "reference": "PractitionerRole/685273e8-732d-4924-b6bb-bcadd619058c"
          },
          {
            "reference": "Practitioner/0a76ba97-142b-43d6-b825-1a31357ad839"
          },
          {
            "reference": "PractitionerRole/cc8c8b90-7609-4225-b4e5-70a51c9a34e2"
          },
          {
            "reference": "Organization/5db75053-ab15-4a19-a9c3-cd54018d5f34"
          }
        ],
        "activity": {
          "text": "Synthetic Example Data Generation"
        },
        "policy": [
          "https://synderai.net/synderai-synthetic-data-policy"
        ],
        "agent": [
          {
            "type": {
              "text": "author"
            },
            "who": {
              "reference": "Device/9273ec76-fb3a-4f52-bc3b-81cd30a3705f"
            }
          }
        ],
        "reason": [
          {
            "text": "Interoperability Testing and Training (non-clinical use)"
          }
        ],
        "text": {
          "status": "generated",
          "div": "<div xmlns=\"http://www.w3.org/1999/xhtml\">Provenance for SYNDERAI Synthetic Example Data Resource</div>"
        },
        "recorded": "2017-10-18T05:51:38Z"
      }
    },
    {
      "fullUrl": "urn:uuid:685273e8-732d-4924-b6bb-bcadd619058c",
      "resource": {
        "resourceType": "PractitionerRole",
        "id": "685273e8-732d-4924-b6bb-bcadd619058c",
        "meta": {
          "profile": [
            "http://hl7.eu/fhir/base/StructureDefinition/practitionerRole-eu"
          ]
        },
        "text": {
          "status": "generated",
          "div": "<div xmlns=\"http://www.w3.org/1999/xhtml\">Laboratory Role Id: 685273e8-732d-4924-b6bb-bcadd619058c</div>"
        },
        "practitioner": {
          "reference": "urn:uuid:0a76ba97-142b-43d6-b825-1a31357ad839"
        }
      }
    },
    {
      "fullUrl": "urn:uuid:0a76ba97-142b-43d6-b825-1a31357ad839",
      "resource": {
        "resourceType": "Practitioner",
        "id": "0a76ba97-142b-43d6-b825-1a31357ad839",
        "meta": {
          "profile": [
            "http://hl7.eu/fhir/base/StructureDefinition/practitioner-eu"
          ]
        },
        "identifier": [
          {
            "assigner": {
              "display": "HL7 Europe"
            },
            "system": "urn:oid:2.16.840.1.113883.2.51.999",
            "value": "5a647f64-7d98-4c33-b7f7-372961fb078d"
          }
        ],
        "name": [
          {
            "prefix": [
              "dr"
            ],
            "given": [
              "Ex"
            ],
            "family": "Ample"
          }
        ],
        "address": [
          {
            "line": [
              "Laboratoire Central Européenne",
              "Boulevard du Jardin Botanique 32"
            ],
            "postalCode": "1000",
            "city": "Brussels",
            "country": "Belgium"
          }
        ],
        "text": {
          "status": "generated",
          "div": "<div xmlns=\"http://www.w3.org/1999/xhtml\">Laboratory: Laboratoire Central Européenne, 1000 Brussels, Belgium</div>"
        }
      }
    }
  ],
  "type": "document",
  "timestamp": "2017-10-18T05:51:38Z"
}
