{
  "resourceType": "Bundle",
  "id": "55f7520d-4122-4fa8-aa09-60fbe66dd45b",
  "meta": {
    "profile": [
      "http://hl7.eu/fhir/laboratory/StructureDefinition/Bundle-eu-lab"
    ]
  },
  "identifier": {
    "assigner": {
      "display": "HL7 Europe"
    },
    "system": "urn:oid:2.16.840.1.113883.2.51.999",
    "value": "f8475e4e-e364-4e2b-be5b-14ad934fe04f"
  },
  "entry": [
    {
      "fullUrl": "urn:uuid:8070ff38-c022-4e94-bdcf-d85ad45ed6ed",
      "resource": {
        "resourceType": "Composition",
        "id": "8070ff38-c022-4e94-bdcf-d85ad45ed6ed",
        "meta": {
          "profile": [
            "http://hl7.eu/fhir/laboratory/StructureDefinition/Composition-eu-lab"
          ]
        },
        "identifier": {
          "assigner": {
            "display": "HL7 Europe"
          },
          "system": "urn:oid:2.16.840.1.113883.2.51.999",
          "value": "116bc957-6fe0-4b14-bdf1-f88fce201bc7"
        },
        "author": [
          {
            "reference": "urn:uuid:56421559-3544-4524-8026-50c282bff6a5"
          }
        ],
        "category": [
          {
            "coding": [
              {
                "code": "26436-6",
                "system": "http://loinc.org",
                "display": "Laboratory studies (set)"
              }
            ]
          }
        ],
        "type": {
          "coding": [
            {
              "code": "11502-2",
              "system": "http://loinc.org",
              "display": "Laboratory report"
            }
          ],
          "text": "Laboratory Report"
        },
        "section": [
          {
            "code": {
              "coding": [
                {
                  "code": "26436-6",
                  "system": "http://loinc.org",
                  "display": "Laboratory studies (set)"
                }
              ],
              "text": "Laboratory studies"
            },
            "section": [
              {
                "code": {
                  "coding": [
                    {
                      "code": "$18723-7",
                      "system": "http://loinc.org",
                      "display": "Hematology studies (set)"
                    }
                  ],
                  "text": "Hematology"
                },
                "entry": [
                  {
                    "reference": "urn:uuid:f578d83f-f2d7-4f3d-a998-9122c2d95d3f"
                  },
                  {
                    "reference": "urn:uuid:234652a8-8c36-4bd4-ba4b-8bc4bf8a2264"
                  },
                  {
                    "reference": "urn:uuid:61f8cd50-ebb3-4d11-b85e-92c8d42d6e89"
                  },
                  {
                    "reference": "urn:uuid:b680d004-45b1-4273-b3eb-97a75a4c13ab"
                  },
                  {
                    "reference": "urn:uuid:d5446dcb-f4ad-4087-b804-2fb3292b2c86"
                  },
                  {
                    "reference": "urn:uuid:06d4bf13-2a87-4607-966b-a8ad77d5071b"
                  },
                  {
                    "reference": "urn:uuid:0b21f2d3-b481-4ce0-8aac-733aff1a31a7"
                  },
                  {
                    "reference": "urn:uuid:2c17bace-548d-44ac-9b38-6048be84bcd2"
                  },
                  {
                    "reference": "urn:uuid:150cfe8b-42ac-49fe-9b54-8b49af604de9"
                  },
                  {
                    "reference": "urn:uuid:f407e09e-8d57-44ef-9b77-001c119cd27e"
                  },
                  {
                    "reference": "urn:uuid:37e36f56-8e39-47b7-a031-c1dc92121727"
                  }
                ],
                "text": {
                  "status": "generated",
                  "div": "<div xmlns=\"http://www.w3.org/1999/xhtml\"><h3>Hematology</h3><table class=\"hl7__eu__lab__report\"><thead><tr><th>Test</th><th>19-JAN-2020</th><th>Reference&#xA0;Range</th><th>Unit</th></tr></thead><tbody><tr><td>Leukocytes [#/volume] in Blood by Automated count</td><td>9.8</td><td>3.4 - 10.5</td><td>10*3/uL</td></tr><tr><td>Erythrocytes [#/volume] in Blood by Automated count</td><td>5.2</td><td>4.2 - 5.8</td><td>10*6/uL</td></tr><tr><td>Hemoglobin [Mass/volume] in Blood</td><td>14.1</td><td>12 - 16</td><td>g/dL</td></tr><tr><td>Hematocrit [Volume Fraction] of Blood by Automated count</td><td>40.3</td><td>36 - 48</td><td>%</td></tr><tr><td>MCV [Entitic volume] by Automated count</td><td>92.6</td><td>82 - 98</td><td>fL</td></tr><tr><td>MCH [Entitic mass] by Automated count</td><td>31.4</td><td>27 - 33</td><td>pg</td></tr><tr><td>MCHC [Mass/volume] by Automated count</td><td>35.2</td><td>31.5 - 36</td><td>g/dL</td></tr><tr><td>Erythrocyte distribution width [Entitic volume] by Automated count</td><td>45.4</td><td>36 - 55</td><td>fL</td></tr><tr><td>Platelets [#/volume] in Blood by Automated count</td><td><strong>442.1 H</strong></td><td>150 - 400</td><td>10*3/uL</td></tr><tr><td>Platelet distribution width [Entitic volume] in Blood by Automated count</td><td><strong>493.3 H</strong></td><td>11.6 - 17.4</td><td>fL</td></tr><tr><td>Platelet mean volume [Entitic volume] in Blood by Automated count</td><td>10.2</td><td>7.4 - 12</td><td>fL</td></tr></tbody></table></div>"
                },
                "title": "Hematology"
              }
            ],
            "title": "Laboratory Report"
          },
          {
            "text": {
              "status": "generated",
              "div": "<div xmlns=\"http://www.w3.org/1999/xhtml\"><h3>Annotation</h3><table class=\"hl7__eu__lab__report\"><tr><th>Conclusion and Recommendations based on this report and previous findings known to us</th></tr><tr><td>All red and white blood cell parameters are within normal limits. There is mild thrombocytosis (elevated platelet count) and a markedly increased platelet distribution width, which may indicate increased platelet production or activation. Correlation with clinical context and possible repeat testing is recommended to rule out reactive or primary causes. No evidence of anemia or leukocytosis.</td></tr></table></div>"
            },
            "code": {
              "coding": [
                {
                  "system": "http://loinc.org",
                  "code": "48767-8",
                  "display": "Annotation comment"
                }
              ]
            },
            "title": "Annotation comment"
          }
        ],
        "status": "final",
        "subject": {
          "reference": "urn:uuid:fd4ce479-7ea7-4fe6-a521-791914f50207",
          "display": "Gülsen Dörschner"
        },
        "date": "2020-01-19T22:09:08Z",
        "title": "Laboratory Report",
        "confidentiality": "N"
      }
    },
    {
      "fullUrl": "urn:uuid:3b3f41b2-f113-4bbc-96b1-5bddb7b89aa2",
      "resource": {
        "resourceType": "DiagnosticReport",
        "id": "3b3f41b2-f113-4bbc-96b1-5bddb7b89aa2",
        "meta": {
          "profile": [
            "http://hl7.eu/fhir/laboratory/StructureDefinition/DiagnosticReport-eu-lab"
          ]
        },
        "identifier": [
          {
            "assigner": {
              "display": "HL7 Europe"
            },
            "system": "urn:oid:2.16.840.1.113883.2.51.999",
            "value": "e5588983-2f93-47c5-8d37-2691bcd2024b"
          }
        ],
        "extension": [
          {
            "url": "http://hl7.org/fhir/5.0/StructureDefinition/extension-DiagnosticReport.composition",
            "valueReference": {
              "reference": "urn:uuid:116bc957-6fe0-4b14-bdf1-f88fce201bc7"
            }
          }
        ],
        "category": [
          {
            "coding": [
              {
                "code": "26436-6",
                "system": "http://loinc.org",
                "display": "Laboratory studies (set)"
              }
            ]
          }
        ],
        "specimen": [
          {
            "reference": "urn:uuid:f3e9569a-585c-4b7b-9cf3-cd4f52020f29"
          },
          {
            "reference": "urn:uuid:f3e9569a-585c-4b7b-9cf3-cd4f52020f29"
          }
        ],
        "result": [
          {
            "reference": "urn:uuid:f578d83f-f2d7-4f3d-a998-9122c2d95d3f"
          },
          {
            "reference": "urn:uuid:234652a8-8c36-4bd4-ba4b-8bc4bf8a2264"
          },
          {
            "reference": "urn:uuid:61f8cd50-ebb3-4d11-b85e-92c8d42d6e89"
          },
          {
            "reference": "urn:uuid:b680d004-45b1-4273-b3eb-97a75a4c13ab"
          },
          {
            "reference": "urn:uuid:d5446dcb-f4ad-4087-b804-2fb3292b2c86"
          },
          {
            "reference": "urn:uuid:06d4bf13-2a87-4607-966b-a8ad77d5071b"
          },
          {
            "reference": "urn:uuid:0b21f2d3-b481-4ce0-8aac-733aff1a31a7"
          },
          {
            "reference": "urn:uuid:2c17bace-548d-44ac-9b38-6048be84bcd2"
          },
          {
            "reference": "urn:uuid:150cfe8b-42ac-49fe-9b54-8b49af604de9"
          },
          {
            "reference": "urn:uuid:f407e09e-8d57-44ef-9b77-001c119cd27e"
          },
          {
            "reference": "urn:uuid:37e36f56-8e39-47b7-a031-c1dc92121727"
          }
        ],
        "status": "registered",
        "code": {
          "coding": [
            {
              "code": "11502-2",
              "system": "http://loinc.org",
              "display": "Laboratory report"
            }
          ]
        },
        "subject": {
          "reference": "urn:uuid:fd4ce479-7ea7-4fe6-a521-791914f50207",
          "display": "Gülsen Dörschner"
        }
      }
    },
    {
      "fullUrl": "urn:uuid:fd4ce479-7ea7-4fe6-a521-791914f50207",
      "resource": {
        "resourceType": "Patient",
        "id": "fd4ce479-7ea7-4fe6-a521-791914f50207",
        "meta": {
          "security": [
            {
              "system": "http://terminology.hl7.org/CodeSystem/v3-ActReason",
              "code": "HTEST"
            },
            {
              "system": "http://terminology.hl7.org/CodeSystem/v3-ActReason",
              "code": "TRAIN"
            }
          ],
          "tag": [
            {
              "system": "https://synderai.net/fhir/CodeSystem/tags",
              "code": "synthetic",
              "display": "SYNDERAI Synthetic data"
            }
          ],
          "profile": [
            "http://hl7.eu/fhir/base/StructureDefinition/patient-eu-core"
          ]
        },
        "identifier": [
          {
            "type": {
              "coding": [
                {
                  "code": "PT",
                  "system": "http://terminology.hl7.org/CodeSystem/v2-0203"
                }
              ]
            },
            "system": "http://ec.europa.eu/identifier/eci",
            "value": "3549-346619-3"
          },
          {
            "type": {
              "coding": [
                {
                  "code": "MR",
                  "system": "http://terminology.hl7.org/CodeSystem/v2-0203"
                }
              ]
            },
            "system": "http://local.setting.eu/identifier",
            "value": "bcd9933a-4b4f-f81c-ee50-85330dd204e6"
          }
        ],
        "name": [
          {
            "family": "Dörschner"
          },
          {
            "given": [
              "Gülsen"
            ]
          },
          {
            "text": "Gülsen Dörschner"
          }
        ],
        "address": [
          {
            "line": [
              "Patbergplatz 571"
            ],
            "use": "home",
            "type": "physical",
            "postalCode": "56068",
            "city": "Koblenz",
            "country": "Germany"
          }
        ],
        "telecom": [
          {
            "system": "phone",
            "value": "(05189) 62305"
          }
        ],
        "extension": [
          {
            "url": "http://hl7.org/fhir/StructureDefinition/patient-nationality",
            "valueCodeableConcept": {
              "coding": [
                {
                  "code": "DE",
                  "system": "http://hl7.org/fhir/ValueSet/country"
                }
              ]
            }
          }
        ],
        "text": {
          "status": "generated",
          "div": "<div xmlns=\"http://www.w3.org/1999/xhtml\"><table class=\"hl7__ips\"><tr><td>Gülsen Dörschner</td><td>female</td><td>30-Jul-1970</td></tr></table></div>"
        },
        "gender": "female",
        "birthDate": "1970-07-30"
      }
    },
    {
      "fullUrl": "urn:uuid:5a9735aa-0438-4b49-898d-49d12be6571b",
      "resource": {
        "resourceType": "ServiceRequest",
        "id": "5a9735aa-0438-4b49-898d-49d12be6571b",
        "meta": {
          "profile": [
            "http://hl7.eu/fhir/laboratory/StructureDefinition/ServiceRequest-eu-lab"
          ]
        },
        "identifier": [
          {
            "system": "http://example.org",
            "value": "9bbe4c04-6f26-42a5-a6ff-b98e6a9f867f"
          }
        ],
        "specimen": [
          {
            "reference": "urn:uuid:f3e9569a-585c-4b7b-9cf3-cd4f52020f29"
          }
        ],
        "reasonCode": [
          {
            "coding": [
              {
                "code": "239873007",
                "system": "http://snomed.info/sct",
                "display": "Osteoarthritis of knee"
              }
            ]
          },
          {
            "coding": [
              {
                "code": "87433001",
                "system": "http://snomed.info/sct",
                "display": "Pulmonary emphysema"
              }
            ]
          },
          {
            "coding": [
              {
                "code": "271737000",
                "system": "http://snomed.info/sct",
                "display": "Anemia"
              }
            ]
          },
          {
            "coding": [
              {
                "code": "59621000",
                "system": "http://snomed.info/sct",
                "display": "Essential hypertension"
              }
            ]
          }
        ],
        "status": "active",
        "intent": "order",
        "code": {
          "coding": [
            {
              "code": "108252007",
              "system": "http://snomed.info/sct",
              "display": "Laboratory procedure"
            }
          ]
        },
        "subject": {
          "reference": "urn:uuid:fd4ce479-7ea7-4fe6-a521-791914f50207",
          "display": "Gülsen Dörschner"
        },
        "requester": {
          "reference": "urn:uuid:6a9076ac-7356-4d64-89dd-a6f9bb47e3bc"
        }
      }
    },
    {
      "fullUrl": "urn:uuid:6a9076ac-7356-4d64-89dd-a6f9bb47e3bc",
      "resource": {
        "resourceType": "PractitionerRole",
        "id": "6a9076ac-7356-4d64-89dd-a6f9bb47e3bc",
        "meta": {
          "profile": [
            "http://hl7.eu/fhir/base/StructureDefinition/practitionerRole-eu"
          ]
        },
        "text": {
          "status": "generated",
          "div": "<div xmlns=\"http://www.w3.org/1999/xhtml\">Provider Role Id: 6a9076ac-7356-4d64-89dd-a6f9bb47e3bc</div>"
        },
        "organization": {
          "reference": "urn:uuid:b18a5855-3b85-42b4-91d4-67becaf4ff40"
        }
      }
    },
    {
      "fullUrl": "urn:uuid:b18a5855-3b85-42b4-91d4-67becaf4ff40",
      "resource": {
        "resourceType": "Organization",
        "id": "b18a5855-3b85-42b4-91d4-67becaf4ff40",
        "meta": {
          "profile": [
            "http://hl7.eu/fhir/base/StructureDefinition/organization-eu"
          ]
        },
        "identifier": [
          {
            "assigner": {
              "display": "HL7 Europe"
            },
            "system": "urn:oid:2.16.840.1.113883.2.51.999",
            "value": "de37c321-88fe-4ddd-84a8-d1ed1cc5efee"
          }
        ],
        "address": [
          {
            "line": [
              "Kardinal-Krementz-Straße 1-5"
            ],
            "city": "Koblenz",
            "postalCode": "56068",
            "country": "Germany"
          }
        ],
        "text": {
          "status": "generated",
          "div": "<div xmlns=\"http://www.w3.org/1999/xhtml\">Provider Organization: Brüderhaus Koblenz</div>"
        },
        "name": "Brüderhaus Koblenz"
      }
    },
    {
      "fullUrl": "urn:uuid:f3e9569a-585c-4b7b-9cf3-cd4f52020f29",
      "resource": {
        "resourceType": "Specimen",
        "id": "f3e9569a-585c-4b7b-9cf3-cd4f52020f29",
        "meta": {
          "profile": [
            "http://hl7.eu/fhir/laboratory/StructureDefinition/Specimen-eu-lab"
          ]
        },
        "collection": {
          "collectedDateTime": "2020-01-19"
        },
        "text": {
          "status": "generated",
          "div": "<div xmlns=\"http://www.w3.org/1999/xhtml\"><table class=\"hl7__eu__lab__report\"><tr><th>Specimen</th><th>Collection Date</th></tr><tr><td>Whole blood specimen (specimen)</td><td><span class=\"nb\">19-Jan-2020</span></td></tr></table></div>"
        },
        "type": {
          "coding": [
            {
              "code": "258580003",
              "system": "http://snomed.info/sct",
              "display": "Whole blood specimen (specimen)"
            }
          ]
        }
      }
    },
    {
      "fullUrl": "urn:uuid:f3e9569a-585c-4b7b-9cf3-cd4f52020f29",
      "resource": {
        "resourceType": "Specimen",
        "id": "f3e9569a-585c-4b7b-9cf3-cd4f52020f29",
        "meta": {
          "profile": [
            "http://hl7.eu/fhir/laboratory/StructureDefinition/Specimen-eu-lab"
          ]
        },
        "collection": {
          "collectedDateTime": "2020-01-19"
        },
        "text": {
          "status": "generated",
          "div": "<div xmlns=\"http://www.w3.org/1999/xhtml\"><table class=\"hl7__eu__lab__report\"><tr><th>Specimen</th><th>Collection Date</th></tr><tr><td>Whole blood specimen (specimen)</td><td><span class=\"nb\">19-Jan-2020</span></td></tr></table></div>"
        },
        "type": {
          "coding": [
            {
              "code": "258580003",
              "system": "http://snomed.info/sct",
              "display": "Whole blood specimen (specimen)"
            }
          ]
        }
      }
    },
    {
      "fullUrl": "urn:uuid:f578d83f-f2d7-4f3d-a998-9122c2d95d3f",
      "resource": {
        "resourceType": "Observation",
        "id": "f578d83f-f2d7-4f3d-a998-9122c2d95d3f",
        "meta": {
          "profile": [
            "http://hl7.eu/fhir/laboratory/StructureDefinition/Observation-resultslab-eu-lab"
          ]
        },
        "performer": [
          {
            "display": "The Central European Lab"
          }
        ],
        "category": [
          {
            "coding": [
              {
                "system": "http://terminology.hl7.org/CodeSystem/observation-category",
                "code": "laboratory"
              }
            ]
          }
        ],
        "code": {
          "coding": [
            {
              "code": "6690-2",
              "system": "http://loinc.org",
              "display": "Leukocytes [#/volume] in Blood by Automated count"
            }
          ],
          "text": "Leukocytes [#/volume] in Blood by Automated count"
        },
        "valueQuantity": {
          "system": "http://unitsofmeasure.org",
          "value": 9.8,
          "unit": "10*3/uL",
          "code": "10*3/uL"
        },
        "referenceRange": [
          {
            "low": {
              "value": 3.4,
              "code": "10*3/uL",
              "system": "http://unitsofmeasure.org"
            }
          },
          {
            "high": {
              "value": 10.5,
              "code": "10*3/uL",
              "system": "http://unitsofmeasure.org"
            }
          }
        ],
        "text": {
          "status": "generated",
          "div": "<div xmlns=\"http://www.w3.org/1999/xhtml\"><table class=\"hl7__eu__lab__report\"><tr><th>Test</th><th>19-Jan-2020</th><th>Reference&#xA0;Range</th><th>Unit</th></tr><tr><td>Leukocytes [#/volume] in Blood by Automated count</td><td>9.8</td><td>3.4 - 10.5</td><td></td><td>10*3/uL</td></tr></table></div>"
        },
        "status": "final",
        "subject": {
          "reference": "urn:uuid:fd4ce479-7ea7-4fe6-a521-791914f50207",
          "display": "Gülsen Dörschner"
        },
        "effectiveDateTime": "2020-01-19T21:09:08Z",
        "specimen": {
          "reference": "urn:uuid:f3e9569a-585c-4b7b-9cf3-cd4f52020f29"
        }
      }
    },
    {
      "fullUrl": "urn:uuid:234652a8-8c36-4bd4-ba4b-8bc4bf8a2264",
      "resource": {
        "resourceType": "Observation",
        "id": "234652a8-8c36-4bd4-ba4b-8bc4bf8a2264",
        "meta": {
          "profile": [
            "http://hl7.eu/fhir/laboratory/StructureDefinition/Observation-resultslab-eu-lab"
          ]
        },
        "performer": [
          {
            "display": "The Central European Lab"
          }
        ],
        "category": [
          {
            "coding": [
              {
                "system": "http://terminology.hl7.org/CodeSystem/observation-category",
                "code": "laboratory"
              }
            ]
          }
        ],
        "code": {
          "coding": [
            {
              "code": "789-8",
              "system": "http://loinc.org",
              "display": "Erythrocytes [#/volume] in Blood by Automated count"
            }
          ],
          "text": "Erythrocytes [#/volume] in Blood by Automated count"
        },
        "valueQuantity": {
          "system": "http://unitsofmeasure.org",
          "value": 5.2,
          "unit": "10*6/uL",
          "code": "10*6/uL"
        },
        "referenceRange": [
          {
            "low": {
              "value": 4.2,
              "code": "10*6/uL",
              "system": "http://unitsofmeasure.org"
            }
          },
          {
            "high": {
              "value": 5.8,
              "code": "10*6/uL",
              "system": "http://unitsofmeasure.org"
            }
          }
        ],
        "text": {
          "status": "generated",
          "div": "<div xmlns=\"http://www.w3.org/1999/xhtml\"><table class=\"hl7__eu__lab__report\"><tr><th>Test</th><th>19-Jan-2020</th><th>Reference&#xA0;Range</th><th>Unit</th></tr><tr><td>Erythrocytes [#/volume] in Blood by Automated count</td><td>5.2</td><td>4.2 - 5.8</td><td></td><td>10*6/uL</td></tr></table></div>"
        },
        "status": "final",
        "subject": {
          "reference": "urn:uuid:fd4ce479-7ea7-4fe6-a521-791914f50207",
          "display": "Gülsen Dörschner"
        },
        "effectiveDateTime": "2020-01-19T21:09:08Z",
        "specimen": {
          "reference": "urn:uuid:f3e9569a-585c-4b7b-9cf3-cd4f52020f29"
        }
      }
    },
    {
      "fullUrl": "urn:uuid:61f8cd50-ebb3-4d11-b85e-92c8d42d6e89",
      "resource": {
        "resourceType": "Observation",
        "id": "61f8cd50-ebb3-4d11-b85e-92c8d42d6e89",
        "meta": {
          "profile": [
            "http://hl7.eu/fhir/laboratory/StructureDefinition/Observation-resultslab-eu-lab"
          ]
        },
        "performer": [
          {
            "display": "The Central European Lab"
          }
        ],
        "category": [
          {
            "coding": [
              {
                "system": "http://terminology.hl7.org/CodeSystem/observation-category",
                "code": "laboratory"
              }
            ]
          }
        ],
        "code": {
          "coding": [
            {
              "code": "718-7",
              "system": "http://loinc.org",
              "display": "Hemoglobin [Mass/volume] in Blood"
            }
          ],
          "text": "Hemoglobin [Mass/volume] in Blood"
        },
        "valueQuantity": {
          "system": "http://unitsofmeasure.org",
          "value": 14.1,
          "unit": "g/dL",
          "code": "g/dL"
        },
        "referenceRange": [
          {
            "low": {
              "value": 12,
              "code": "g/dL",
              "system": "http://unitsofmeasure.org"
            }
          },
          {
            "high": {
              "value": 16,
              "code": "g/dL",
              "system": "http://unitsofmeasure.org"
            }
          }
        ],
        "text": {
          "status": "generated",
          "div": "<div xmlns=\"http://www.w3.org/1999/xhtml\"><table class=\"hl7__eu__lab__report\"><tr><th>Test</th><th>19-Jan-2020</th><th>Reference&#xA0;Range</th><th>Unit</th></tr><tr><td>Hemoglobin [Mass/volume] in Blood</td><td>14.1</td><td>12 - 16</td><td></td><td>g/dL</td></tr></table></div>"
        },
        "status": "final",
        "subject": {
          "reference": "urn:uuid:fd4ce479-7ea7-4fe6-a521-791914f50207",
          "display": "Gülsen Dörschner"
        },
        "effectiveDateTime": "2020-01-19T21:09:08Z",
        "specimen": {
          "reference": "urn:uuid:f3e9569a-585c-4b7b-9cf3-cd4f52020f29"
        }
      }
    },
    {
      "fullUrl": "urn:uuid:b680d004-45b1-4273-b3eb-97a75a4c13ab",
      "resource": {
        "resourceType": "Observation",
        "id": "b680d004-45b1-4273-b3eb-97a75a4c13ab",
        "meta": {
          "profile": [
            "http://hl7.eu/fhir/laboratory/StructureDefinition/Observation-resultslab-eu-lab"
          ]
        },
        "performer": [
          {
            "display": "The Central European Lab"
          }
        ],
        "category": [
          {
            "coding": [
              {
                "system": "http://terminology.hl7.org/CodeSystem/observation-category",
                "code": "laboratory"
              }
            ]
          }
        ],
        "code": {
          "coding": [
            {
              "code": "4544-3",
              "system": "http://loinc.org",
              "display": "Hematocrit [Volume Fraction] of Blood by Automated count"
            }
          ],
          "text": "Hematocrit [Volume Fraction] of Blood by Automated count"
        },
        "valueQuantity": {
          "system": "http://unitsofmeasure.org",
          "value": 40.3,
          "unit": "%",
          "code": "%"
        },
        "referenceRange": [
          {
            "low": {
              "value": 36,
              "code": "%",
              "system": "http://unitsofmeasure.org"
            }
          },
          {
            "high": {
              "value": 48,
              "code": "%",
              "system": "http://unitsofmeasure.org"
            }
          }
        ],
        "text": {
          "status": "generated",
          "div": "<div xmlns=\"http://www.w3.org/1999/xhtml\"><table class=\"hl7__eu__lab__report\"><tr><th>Test</th><th>19-Jan-2020</th><th>Reference&#xA0;Range</th><th>Unit</th></tr><tr><td>Hematocrit [Volume Fraction] of Blood by Automated count</td><td>40.3</td><td>36 - 48</td><td></td><td>%</td></tr></table></div>"
        },
        "status": "final",
        "subject": {
          "reference": "urn:uuid:fd4ce479-7ea7-4fe6-a521-791914f50207",
          "display": "Gülsen Dörschner"
        },
        "effectiveDateTime": "2020-01-19T21:09:08Z",
        "specimen": {
          "reference": "urn:uuid:f3e9569a-585c-4b7b-9cf3-cd4f52020f29"
        }
      }
    },
    {
      "fullUrl": "urn:uuid:d5446dcb-f4ad-4087-b804-2fb3292b2c86",
      "resource": {
        "resourceType": "Observation",
        "id": "d5446dcb-f4ad-4087-b804-2fb3292b2c86",
        "meta": {
          "profile": [
            "http://hl7.eu/fhir/laboratory/StructureDefinition/Observation-resultslab-eu-lab"
          ]
        },
        "performer": [
          {
            "display": "The Central European Lab"
          }
        ],
        "category": [
          {
            "coding": [
              {
                "system": "http://terminology.hl7.org/CodeSystem/observation-category",
                "code": "laboratory"
              }
            ]
          }
        ],
        "code": {
          "coding": [
            {
              "code": "787-2",
              "system": "http://loinc.org",
              "display": "MCV [Entitic volume] by Automated count"
            }
          ],
          "text": "MCV [Entitic volume] by Automated count"
        },
        "valueQuantity": {
          "system": "http://unitsofmeasure.org",
          "value": 92.6,
          "unit": "fL",
          "code": "fL"
        },
        "referenceRange": [
          {
            "low": {
              "value": 82,
              "code": "fL",
              "system": "http://unitsofmeasure.org"
            }
          },
          {
            "high": {
              "value": 98,
              "code": "fL",
              "system": "http://unitsofmeasure.org"
            }
          }
        ],
        "text": {
          "status": "generated",
          "div": "<div xmlns=\"http://www.w3.org/1999/xhtml\"><table class=\"hl7__eu__lab__report\"><tr><th>Test</th><th>19-Jan-2020</th><th>Reference&#xA0;Range</th><th>Unit</th></tr><tr><td>MCV [Entitic volume] by Automated count</td><td>92.6</td><td>82 - 98</td><td></td><td>fL</td></tr></table></div>"
        },
        "status": "final",
        "subject": {
          "reference": "urn:uuid:fd4ce479-7ea7-4fe6-a521-791914f50207",
          "display": "Gülsen Dörschner"
        },
        "effectiveDateTime": "2020-01-19T21:09:08Z",
        "specimen": {
          "reference": "urn:uuid:f3e9569a-585c-4b7b-9cf3-cd4f52020f29"
        }
      }
    },
    {
      "fullUrl": "urn:uuid:06d4bf13-2a87-4607-966b-a8ad77d5071b",
      "resource": {
        "resourceType": "Observation",
        "id": "06d4bf13-2a87-4607-966b-a8ad77d5071b",
        "meta": {
          "profile": [
            "http://hl7.eu/fhir/laboratory/StructureDefinition/Observation-resultslab-eu-lab"
          ]
        },
        "performer": [
          {
            "display": "The Central European Lab"
          }
        ],
        "category": [
          {
            "coding": [
              {
                "system": "http://terminology.hl7.org/CodeSystem/observation-category",
                "code": "laboratory"
              }
            ]
          }
        ],
        "code": {
          "coding": [
            {
              "code": "785-6",
              "system": "http://loinc.org",
              "display": "MCH [Entitic mass] by Automated count"
            }
          ],
          "text": "MCH [Entitic mass] by Automated count"
        },
        "valueQuantity": {
          "system": "http://unitsofmeasure.org",
          "value": 31.4,
          "unit": "pg",
          "code": "pg"
        },
        "referenceRange": [
          {
            "low": {
              "value": 27,
              "code": "pg",
              "system": "http://unitsofmeasure.org"
            }
          },
          {
            "high": {
              "value": 33,
              "code": "pg",
              "system": "http://unitsofmeasure.org"
            }
          }
        ],
        "text": {
          "status": "generated",
          "div": "<div xmlns=\"http://www.w3.org/1999/xhtml\"><table class=\"hl7__eu__lab__report\"><tr><th>Test</th><th>19-Jan-2020</th><th>Reference&#xA0;Range</th><th>Unit</th></tr><tr><td>MCH [Entitic mass] by Automated count</td><td>31.4</td><td>27 - 33</td><td></td><td>pg</td></tr></table></div>"
        },
        "status": "final",
        "subject": {
          "reference": "urn:uuid:fd4ce479-7ea7-4fe6-a521-791914f50207",
          "display": "Gülsen Dörschner"
        },
        "effectiveDateTime": "2020-01-19T21:09:08Z",
        "specimen": {
          "reference": "urn:uuid:f3e9569a-585c-4b7b-9cf3-cd4f52020f29"
        }
      }
    },
    {
      "fullUrl": "urn:uuid:0b21f2d3-b481-4ce0-8aac-733aff1a31a7",
      "resource": {
        "resourceType": "Observation",
        "id": "0b21f2d3-b481-4ce0-8aac-733aff1a31a7",
        "meta": {
          "profile": [
            "http://hl7.eu/fhir/laboratory/StructureDefinition/Observation-resultslab-eu-lab"
          ]
        },
        "performer": [
          {
            "display": "The Central European Lab"
          }
        ],
        "category": [
          {
            "coding": [
              {
                "system": "http://terminology.hl7.org/CodeSystem/observation-category",
                "code": "laboratory"
              }
            ]
          }
        ],
        "code": {
          "coding": [
            {
              "code": "786-4",
              "system": "http://loinc.org",
              "display": "MCHC [Mass/volume] by Automated count"
            }
          ],
          "text": "MCHC [Mass/volume] by Automated count"
        },
        "valueQuantity": {
          "system": "http://unitsofmeasure.org",
          "value": 35.2,
          "unit": "g/dL",
          "code": "g/dL"
        },
        "referenceRange": [
          {
            "low": {
              "value": 31.5,
              "code": "g/dL",
              "system": "http://unitsofmeasure.org"
            }
          },
          {
            "high": {
              "value": 36,
              "code": "g/dL",
              "system": "http://unitsofmeasure.org"
            }
          }
        ],
        "text": {
          "status": "generated",
          "div": "<div xmlns=\"http://www.w3.org/1999/xhtml\"><table class=\"hl7__eu__lab__report\"><tr><th>Test</th><th>19-Jan-2020</th><th>Reference&#xA0;Range</th><th>Unit</th></tr><tr><td>MCHC [Mass/volume] by Automated count</td><td>35.2</td><td>31.5 - 36</td><td></td><td>g/dL</td></tr></table></div>"
        },
        "status": "final",
        "subject": {
          "reference": "urn:uuid:fd4ce479-7ea7-4fe6-a521-791914f50207",
          "display": "Gülsen Dörschner"
        },
        "effectiveDateTime": "2020-01-19T21:09:08Z",
        "specimen": {
          "reference": "urn:uuid:f3e9569a-585c-4b7b-9cf3-cd4f52020f29"
        }
      }
    },
    {
      "fullUrl": "urn:uuid:2c17bace-548d-44ac-9b38-6048be84bcd2",
      "resource": {
        "resourceType": "Observation",
        "id": "2c17bace-548d-44ac-9b38-6048be84bcd2",
        "meta": {
          "profile": [
            "http://hl7.eu/fhir/laboratory/StructureDefinition/Observation-resultslab-eu-lab"
          ]
        },
        "performer": [
          {
            "display": "The Central European Lab"
          }
        ],
        "category": [
          {
            "coding": [
              {
                "system": "http://terminology.hl7.org/CodeSystem/observation-category",
                "code": "laboratory"
              }
            ]
          }
        ],
        "code": {
          "coding": [
            {
              "code": "21000-5",
              "system": "http://loinc.org",
              "display": "Erythrocyte distribution width [Entitic volume] by Automated count"
            }
          ],
          "text": "Erythrocyte distribution width [Entitic volume] by Automated count"
        },
        "valueQuantity": {
          "system": "http://unitsofmeasure.org",
          "value": 45.4,
          "unit": "fL",
          "code": "fL"
        },
        "referenceRange": [
          {
            "low": {
              "value": 36,
              "code": "fL",
              "system": "http://unitsofmeasure.org"
            }
          },
          {
            "high": {
              "value": 55,
              "code": "fL",
              "system": "http://unitsofmeasure.org"
            }
          }
        ],
        "text": {
          "status": "generated",
          "div": "<div xmlns=\"http://www.w3.org/1999/xhtml\"><table class=\"hl7__eu__lab__report\"><tr><th>Test</th><th>19-Jan-2020</th><th>Reference&#xA0;Range</th><th>Unit</th></tr><tr><td>Erythrocyte distribution width [Entitic volume] by Automated count</td><td>45.4</td><td>36 - 55</td><td></td><td>fL</td></tr></table></div>"
        },
        "status": "final",
        "subject": {
          "reference": "urn:uuid:fd4ce479-7ea7-4fe6-a521-791914f50207",
          "display": "Gülsen Dörschner"
        },
        "effectiveDateTime": "2020-01-19T21:09:08Z",
        "specimen": {
          "reference": "urn:uuid:f3e9569a-585c-4b7b-9cf3-cd4f52020f29"
        }
      }
    },
    {
      "fullUrl": "urn:uuid:150cfe8b-42ac-49fe-9b54-8b49af604de9",
      "resource": {
        "resourceType": "Observation",
        "id": "150cfe8b-42ac-49fe-9b54-8b49af604de9",
        "meta": {
          "profile": [
            "http://hl7.eu/fhir/laboratory/StructureDefinition/Observation-resultslab-eu-lab"
          ]
        },
        "performer": [
          {
            "display": "The Central European Lab"
          }
        ],
        "category": [
          {
            "coding": [
              {
                "system": "http://terminology.hl7.org/CodeSystem/observation-category",
                "code": "laboratory"
              }
            ]
          }
        ],
        "code": {
          "coding": [
            {
              "code": "777-3",
              "system": "http://loinc.org",
              "display": "Platelets [#/volume] in Blood by Automated count"
            }
          ],
          "text": "Platelets [#/volume] in Blood by Automated count"
        },
        "valueQuantity": {
          "system": "http://unitsofmeasure.org",
          "value": 442.1,
          "unit": "10*3/uL",
          "code": "10*3/uL"
        },
        "referenceRange": [
          {
            "low": {
              "value": 150,
              "code": "10*3/uL",
              "system": "http://unitsofmeasure.org"
            }
          },
          {
            "high": {
              "value": 400,
              "code": "10*3/uL",
              "system": "http://unitsofmeasure.org"
            }
          }
        ],
        "interpretation": [
          {
            "coding": [
              {
                "code": "H",
                "system": "http://terminology.hl7.org/CodeSystem/v3-ObservationInterpretation",
                "display": "High"
              }
            ]
          }
        ],
        "text": {
          "status": "generated",
          "div": "<div xmlns=\"http://www.w3.org/1999/xhtml\"><table class=\"hl7__eu__lab__report\"><tr><th>Test</th><th>19-Jan-2020</th><th>Reference&#xA0;Range</th><th>Unit</th></tr><tr><td>Platelets [#/volume] in Blood by Automated count</td><td>442.1</td><td>150 - 400</td><td>H</td><td>10*3/uL</td></tr></table></div>"
        },
        "status": "final",
        "subject": {
          "reference": "urn:uuid:fd4ce479-7ea7-4fe6-a521-791914f50207",
          "display": "Gülsen Dörschner"
        },
        "effectiveDateTime": "2020-01-19T21:09:08Z",
        "specimen": {
          "reference": "urn:uuid:f3e9569a-585c-4b7b-9cf3-cd4f52020f29"
        }
      }
    },
    {
      "fullUrl": "urn:uuid:f407e09e-8d57-44ef-9b77-001c119cd27e",
      "resource": {
        "resourceType": "Observation",
        "id": "f407e09e-8d57-44ef-9b77-001c119cd27e",
        "meta": {
          "profile": [
            "http://hl7.eu/fhir/laboratory/StructureDefinition/Observation-resultslab-eu-lab"
          ]
        },
        "performer": [
          {
            "display": "The Central European Lab"
          }
        ],
        "category": [
          {
            "coding": [
              {
                "system": "http://terminology.hl7.org/CodeSystem/observation-category",
                "code": "laboratory"
              }
            ]
          }
        ],
        "code": {
          "coding": [
            {
              "code": "32207-3",
              "system": "http://loinc.org",
              "display": "Platelet distribution width [Entitic volume] in Blood by Automated count"
            }
          ],
          "text": "Platelet distribution width [Entitic volume] in Blood by Automated count"
        },
        "valueQuantity": {
          "system": "http://unitsofmeasure.org",
          "value": 493.3,
          "unit": "fL",
          "code": "fL"
        },
        "referenceRange": [
          {
            "low": {
              "value": 11.6,
              "code": "fL",
              "system": "http://unitsofmeasure.org"
            }
          },
          {
            "high": {
              "value": 17.4,
              "code": "fL",
              "system": "http://unitsofmeasure.org"
            }
          }
        ],
        "interpretation": [
          {
            "coding": [
              {
                "code": "H",
                "system": "http://terminology.hl7.org/CodeSystem/v3-ObservationInterpretation",
                "display": "High"
              }
            ]
          }
        ],
        "text": {
          "status": "generated",
          "div": "<div xmlns=\"http://www.w3.org/1999/xhtml\"><table class=\"hl7__eu__lab__report\"><tr><th>Test</th><th>19-Jan-2020</th><th>Reference&#xA0;Range</th><th>Unit</th></tr><tr><td>Platelet distribution width [Entitic volume] in Blood by Automated count</td><td>493.3</td><td>11.6 - 17.4</td><td>H</td><td>fL</td></tr></table></div>"
        },
        "status": "final",
        "subject": {
          "reference": "urn:uuid:fd4ce479-7ea7-4fe6-a521-791914f50207",
          "display": "Gülsen Dörschner"
        },
        "effectiveDateTime": "2020-01-19T21:09:08Z",
        "specimen": {
          "reference": "urn:uuid:f3e9569a-585c-4b7b-9cf3-cd4f52020f29"
        }
      }
    },
    {
      "fullUrl": "urn:uuid:37e36f56-8e39-47b7-a031-c1dc92121727",
      "resource": {
        "resourceType": "Observation",
        "id": "37e36f56-8e39-47b7-a031-c1dc92121727",
        "meta": {
          "profile": [
            "http://hl7.eu/fhir/laboratory/StructureDefinition/Observation-resultslab-eu-lab"
          ]
        },
        "performer": [
          {
            "display": "The Central European Lab"
          }
        ],
        "category": [
          {
            "coding": [
              {
                "system": "http://terminology.hl7.org/CodeSystem/observation-category",
                "code": "laboratory"
              }
            ]
          }
        ],
        "code": {
          "coding": [
            {
              "code": "32623-1",
              "system": "http://loinc.org",
              "display": "Platelet mean volume [Entitic volume] in Blood by Automated count"
            }
          ],
          "text": "Platelet mean volume [Entitic volume] in Blood by Automated count"
        },
        "valueQuantity": {
          "system": "http://unitsofmeasure.org",
          "value": 10.2,
          "unit": "fL",
          "code": "fL"
        },
        "referenceRange": [
          {
            "low": {
              "value": 7.4,
              "code": "fL",
              "system": "http://unitsofmeasure.org"
            }
          },
          {
            "high": {
              "value": 12,
              "code": "fL",
              "system": "http://unitsofmeasure.org"
            }
          }
        ],
        "text": {
          "status": "generated",
          "div": "<div xmlns=\"http://www.w3.org/1999/xhtml\"><table class=\"hl7__eu__lab__report\"><tr><th>Test</th><th>19-Jan-2020</th><th>Reference&#xA0;Range</th><th>Unit</th></tr><tr><td>Platelet mean volume [Entitic volume] in Blood by Automated count</td><td>10.2</td><td>7.4 - 12</td><td></td><td>fL</td></tr></table></div>"
        },
        "status": "final",
        "subject": {
          "reference": "urn:uuid:fd4ce479-7ea7-4fe6-a521-791914f50207",
          "display": "Gülsen Dörschner"
        },
        "effectiveDateTime": "2020-01-19T21:09:08Z",
        "specimen": {
          "reference": "urn:uuid:f3e9569a-585c-4b7b-9cf3-cd4f52020f29"
        }
      }
    },
    {
      "fullUrl": "urn:uuid:28d11a30-6c24-4ff0-9217-d2e51efe84fe",
      "resource": {
        "resourceType": "Device",
        "id": "28d11a30-6c24-4ff0-9217-d2e51efe84fe",
        "deviceName": [
          {
            "name": "SYNDERAI Synthetic Generator",
            "type": "manufacturer-name"
          }
        ],
        "version": [
          {
            "value": "5.0"
          }
        ],
        "text": {
          "status": "generated",
          "div": "<div xmlns=\"http://www.w3.org/1999/xhtml\">SYNDERAI Synthetic Generator v5.0</div>"
        },
        "status": "active\"",
        "distinctIdentifier": "synderai-generator-50",
        "manufacturer": "SYNDERAI Project"
      }
    },
    {
      "fullUrl": "urn:uuid:1528ade6-29ce-41cb-a4f7-9bd2bb46a795",
      "resource": {
        "resourceType": "Provenance",
        "id": "1528ade6-29ce-41cb-a4f7-9bd2bb46a795",
        "target": [
          {
            "reference": "Patient/fd4ce479-7ea7-4fe6-a521-791914f50207"
          },
          {
            "reference": "Bundle/55f7520d-4122-4fa8-aa09-60fbe66dd45b"
          },
          {
            "reference": "Composition/8070ff38-c022-4e94-bdcf-d85ad45ed6ed"
          },
          {
            "reference": "PractitionerRole/56421559-3544-4524-8026-50c282bff6a5"
          },
          {
            "reference": "Practitioner/6171955d-8e81-4238-9827-c40a5f8ee434"
          },
          {
            "reference": "PractitionerRole/6a9076ac-7356-4d64-89dd-a6f9bb47e3bc"
          },
          {
            "reference": "Organization/b18a5855-3b85-42b4-91d4-67becaf4ff40"
          }
        ],
        "activity": {
          "text": "Synthetic Example Data Generation"
        },
        "policy": [
          "https://synderai.net/synderai-synthetic-data-policy"
        ],
        "agent": [
          {
            "type": {
              "text": "author"
            },
            "who": {
              "reference": "Device/28d11a30-6c24-4ff0-9217-d2e51efe84fe"
            }
          }
        ],
        "reason": [
          {
            "text": "Interoperability Testing and Training (non-clinical use)"
          }
        ],
        "text": {
          "status": "generated",
          "div": "<div xmlns=\"http://www.w3.org/1999/xhtml\">Provenance for SYNDERAI Synthetic Example Data Resource</div>"
        },
        "recorded": "2020-01-19T22:09:08Z"
      }
    },
    {
      "fullUrl": "urn:uuid:56421559-3544-4524-8026-50c282bff6a5",
      "resource": {
        "resourceType": "PractitionerRole",
        "id": "56421559-3544-4524-8026-50c282bff6a5",
        "meta": {
          "profile": [
            "http://hl7.eu/fhir/base/StructureDefinition/practitionerRole-eu"
          ]
        },
        "text": {
          "status": "generated",
          "div": "<div xmlns=\"http://www.w3.org/1999/xhtml\">Laboratory Role Id: 56421559-3544-4524-8026-50c282bff6a5</div>"
        },
        "practitioner": {
          "reference": "urn:uuid:6171955d-8e81-4238-9827-c40a5f8ee434"
        }
      }
    },
    {
      "fullUrl": "urn:uuid:6171955d-8e81-4238-9827-c40a5f8ee434",
      "resource": {
        "resourceType": "Practitioner",
        "id": "6171955d-8e81-4238-9827-c40a5f8ee434",
        "meta": {
          "profile": [
            "http://hl7.eu/fhir/base/StructureDefinition/practitioner-eu"
          ]
        },
        "identifier": [
          {
            "assigner": {
              "display": "HL7 Europe"
            },
            "system": "urn:oid:2.16.840.1.113883.2.51.999",
            "value": "a9e59ad2-2bad-44c2-8e23-87188ab4152c"
          }
        ],
        "name": [
          {
            "prefix": [
              "dr"
            ],
            "given": [
              "Ex"
            ],
            "family": "Ample"
          }
        ],
        "address": [
          {
            "line": [
              "Laboratoire Central Européenne",
              "Boulevard du Jardin Botanique 32"
            ],
            "postalCode": "1000",
            "city": "Brussels",
            "country": "Belgium"
          }
        ],
        "text": {
          "status": "generated",
          "div": "<div xmlns=\"http://www.w3.org/1999/xhtml\">Laboratory: Laboratoire Central Européenne, 1000 Brussels, Belgium</div>"
        }
      }
    }
  ],
  "type": "document",
  "timestamp": "2020-01-19T22:09:08Z"
}
