{
  "resourceType": "Bundle",
  "id": "120ec955-54bf-40bc-9b4e-26fab7d08fbb",
  "meta": {
    "profile": [
      "http://hl7.eu/fhir/laboratory/StructureDefinition/Bundle-eu-lab"
    ]
  },
  "identifier": {
    "assigner": {
      "display": "HL7 Europe"
    },
    "system": "urn:oid:2.16.840.1.113883.2.51.999",
    "value": "5539f1bc-e1ac-4e90-a68a-9a159736b2e6"
  },
  "entry": [
    {
      "fullUrl": "urn:uuid:5bd33f12-ecb3-4be6-988c-17735a040c9f",
      "resource": {
        "resourceType": "Composition",
        "id": "5bd33f12-ecb3-4be6-988c-17735a040c9f",
        "meta": {
          "profile": [
            "http://hl7.eu/fhir/laboratory/StructureDefinition/Composition-eu-lab"
          ]
        },
        "identifier": {
          "assigner": {
            "display": "HL7 Europe"
          },
          "system": "urn:oid:2.16.840.1.113883.2.51.999",
          "value": "1c219a5d-e5ad-46a5-a99d-c2c165aa3703"
        },
        "author": [
          {
            "reference": "urn:uuid:2f0c4a68-6834-49ec-89e2-e0a76eb1fe66"
          }
        ],
        "category": [
          {
            "coding": [
              {
                "code": "26436-6",
                "system": "http://loinc.org",
                "display": "Laboratory studies (set)"
              }
            ]
          }
        ],
        "type": {
          "coding": [
            {
              "code": "11502-2",
              "system": "http://loinc.org",
              "display": "Laboratory report"
            }
          ],
          "text": "Laboratory Report"
        },
        "section": [
          {
            "code": {
              "coding": [
                {
                  "code": "26436-6",
                  "system": "http://loinc.org",
                  "display": "Laboratory studies (set)"
                }
              ],
              "text": "Laboratory studies"
            },
            "section": [
              {
                "code": {
                  "coding": [
                    {
                      "code": "$18719-5",
                      "system": "http://loinc.org",
                      "display": "Chemistry studies (set)"
                    }
                  ],
                  "text": "Chemistry"
                },
                "entry": [
                  {
                    "reference": "urn:uuid:06fc14e9-7a84-4130-9ea3-7d12c86bb5bc"
                  },
                  {
                    "reference": "urn:uuid:6bd8e9c5-a803-43a8-8dfb-16ce473bb2d4"
                  },
                  {
                    "reference": "urn:uuid:31e4f44e-e1f2-4cbc-9c01-73342d7685b3"
                  },
                  {
                    "reference": "urn:uuid:6e40cc0f-2a93-4e17-895b-10d39cb8a8de"
                  },
                  {
                    "reference": "urn:uuid:14e2283e-44ac-453f-b896-addab63f4581"
                  },
                  {
                    "reference": "urn:uuid:98e973a3-dc3b-4e45-a3fa-f4f0842ca311"
                  },
                  {
                    "reference": "urn:uuid:ae0ef19c-a037-4708-8373-b17319682e8b"
                  },
                  {
                    "reference": "urn:uuid:eaae4869-8e18-4b92-8283-d7df16cd65d7"
                  },
                  {
                    "reference": "urn:uuid:e4629aec-692e-4738-afca-450e233665fd"
                  },
                  {
                    "reference": "urn:uuid:a574659f-7b66-444b-8e84-709e44f5931e"
                  },
                  {
                    "reference": "urn:uuid:f6e155c6-3620-4c97-a337-b917657e2c07"
                  },
                  {
                    "reference": "urn:uuid:e88407be-b6f5-4d85-b82c-25833f24ce3a"
                  },
                  {
                    "reference": "urn:uuid:6f64860c-c451-430f-b58d-80344b9db3c1"
                  }
                ],
                "text": {
                  "status": "generated",
                  "div": "<div xmlns=\"http://www.w3.org/1999/xhtml\"><h3>Chemistry</h3><table class=\"hl7__eu__lab__report\"><thead><tr><th>Test</th><th>11-APR-2021</th><th>Reference&#xA0;Range</th><th>Unit</th></tr></thead><tbody><tr><td>Hemoglobin A1c/Hemoglobin.total in Blood</td><td><strong>3.9 L</strong></td><td>4 - 6</td><td>%</td></tr><tr><td>Glucose [Mass/volume] in Blood</td><td>82.0</td><td>70 - 140</td><td>mg/dL</td></tr><tr><td>Urea nitrogen [Mass/volume] in Blood</td><td>12.0</td><td>7 - 20</td><td>mg/dL</td></tr><tr><td>Creatinine [Mass/volume] in Blood</td><td><strong>0.4 L</strong></td><td>0.5 - 1.3</td><td>mg/dL</td></tr><tr><td>Calcium [Mass/volume] in Blood</td><td>9.9</td><td>8.5 - 10.5</td><td>mg/dL</td></tr><tr><td>Sodium [Moles/volume] in Blood</td><td>142.1</td><td>135 - 145</td><td>mmol/L</td></tr><tr><td>Potassium [Moles/volume] in Blood</td><td>4.0</td><td>3.5 - 5.1</td><td>mmol/L</td></tr><tr><td>Chloride [Moles/volume] in Blood</td><td><strong>108.3 H</strong></td><td>98 - 108</td><td>mmol/L</td></tr><tr><td>Carbon dioxide, total [Moles/volume] in Blood</td><td>27.4</td><td>22 - 29</td><td>mmol/L</td></tr><tr><td>Cholesterol [Mass/volume] in Serum or Plasma</td><td>170.4</td><td>0 - 200</td><td>mg/dL</td></tr><tr><td>Triglyceride [Mass/volume] in Serum or Plasma</td><td>132.4</td><td>0 - 199</td><td>mg/dL</td></tr><tr><td>Cholesterol in LDL [Mass/volume] in Serum or Plasma by Direct assay</td><td>77.6</td><td>0 - 130</td><td>mg/dL</td></tr><tr><td>Cholesterol in HDL [Mass/volume] in Serum or Plasma</td><td>66.4</td><td>46 - 77</td><td>mg/dL</td></tr></tbody></table></div>"
                },
                "title": "Chemistry"
              }
            ],
            "title": "Laboratory Report"
          },
          {
            "text": {
              "status": "generated",
              "div": "<div xmlns=\"http://www.w3.org/1999/xhtml\"><h3>Annotation</h3><table class=\"hl7__eu__lab__report\"><tr><th>Conclusion and Recommendations based on this report and previous findings known to us</th></tr><tr><td>The patient shows mildly decreased HbA1c and creatinine, and a slightly elevated chloride. Glucose, renal function, electrolytes, and lipid profile are within normal limits. The low HbA1c may reflect recent hypoglycemia or anemia; low creatinine is likely due to reduced muscle mass in advanced age. No acute laboratory abnormalities requiring intervention are evident. Recommend clinical correlation.</td></tr></table></div>"
            },
            "code": {
              "coding": [
                {
                  "system": "http://loinc.org",
                  "code": "48767-8",
                  "display": "Annotation comment"
                }
              ]
            },
            "title": "Annotation comment"
          }
        ],
        "status": "final",
        "subject": {
          "reference": "urn:uuid:2ea49b8f-0123-459e-a261-bb0c8b1431e2",
          "display": "Marlene Gerlach"
        },
        "date": "2021-04-11T21:24:33Z",
        "title": "Laboratory Report",
        "confidentiality": "N"
      }
    },
    {
      "fullUrl": "urn:uuid:03b45178-7114-45c4-9a83-2e6a69c6e298",
      "resource": {
        "resourceType": "DiagnosticReport",
        "id": "03b45178-7114-45c4-9a83-2e6a69c6e298",
        "meta": {
          "profile": [
            "http://hl7.eu/fhir/laboratory/StructureDefinition/DiagnosticReport-eu-lab"
          ]
        },
        "identifier": [
          {
            "assigner": {
              "display": "HL7 Europe"
            },
            "system": "urn:oid:2.16.840.1.113883.2.51.999",
            "value": "429e5d0f-40fc-4053-9066-994a43ed575f"
          }
        ],
        "extension": [
          {
            "url": "http://hl7.org/fhir/5.0/StructureDefinition/extension-DiagnosticReport.composition",
            "valueReference": {
              "reference": "urn:uuid:1c219a5d-e5ad-46a5-a99d-c2c165aa3703"
            }
          }
        ],
        "category": [
          {
            "coding": [
              {
                "code": "26436-6",
                "system": "http://loinc.org",
                "display": "Laboratory studies (set)"
              }
            ]
          }
        ],
        "specimen": [
          {
            "reference": "urn:uuid:cea36b10-c723-4954-a314-aa86c784c8e9"
          },
          {
            "reference": "urn:uuid:ca735190-efea-4f5b-b598-4bf1eafe86ed"
          }
        ],
        "result": [
          {
            "reference": "urn:uuid:06fc14e9-7a84-4130-9ea3-7d12c86bb5bc"
          },
          {
            "reference": "urn:uuid:6bd8e9c5-a803-43a8-8dfb-16ce473bb2d4"
          },
          {
            "reference": "urn:uuid:31e4f44e-e1f2-4cbc-9c01-73342d7685b3"
          },
          {
            "reference": "urn:uuid:6e40cc0f-2a93-4e17-895b-10d39cb8a8de"
          },
          {
            "reference": "urn:uuid:14e2283e-44ac-453f-b896-addab63f4581"
          },
          {
            "reference": "urn:uuid:98e973a3-dc3b-4e45-a3fa-f4f0842ca311"
          },
          {
            "reference": "urn:uuid:ae0ef19c-a037-4708-8373-b17319682e8b"
          },
          {
            "reference": "urn:uuid:eaae4869-8e18-4b92-8283-d7df16cd65d7"
          },
          {
            "reference": "urn:uuid:e4629aec-692e-4738-afca-450e233665fd"
          },
          {
            "reference": "urn:uuid:a574659f-7b66-444b-8e84-709e44f5931e"
          },
          {
            "reference": "urn:uuid:f6e155c6-3620-4c97-a337-b917657e2c07"
          },
          {
            "reference": "urn:uuid:e88407be-b6f5-4d85-b82c-25833f24ce3a"
          },
          {
            "reference": "urn:uuid:6f64860c-c451-430f-b58d-80344b9db3c1"
          }
        ],
        "status": "registered",
        "code": {
          "coding": [
            {
              "code": "11502-2",
              "system": "http://loinc.org",
              "display": "Laboratory report"
            }
          ]
        },
        "subject": {
          "reference": "urn:uuid:2ea49b8f-0123-459e-a261-bb0c8b1431e2",
          "display": "Marlene Gerlach"
        }
      }
    },
    {
      "fullUrl": "urn:uuid:2ea49b8f-0123-459e-a261-bb0c8b1431e2",
      "resource": {
        "resourceType": "Patient",
        "id": "2ea49b8f-0123-459e-a261-bb0c8b1431e2",
        "meta": {
          "security": [
            {
              "system": "http://terminology.hl7.org/CodeSystem/v3-ActReason",
              "code": "HTEST"
            },
            {
              "system": "http://terminology.hl7.org/CodeSystem/v3-ActReason",
              "code": "TRAIN"
            }
          ],
          "tag": [
            {
              "system": "https://synderai.net/fhir/CodeSystem/tags",
              "code": "synthetic",
              "display": "SYNDERAI Synthetic data"
            }
          ],
          "profile": [
            "http://hl7.eu/fhir/base/StructureDefinition/patient-eu-core"
          ]
        },
        "identifier": [
          {
            "type": {
              "coding": [
                {
                  "code": "PT",
                  "system": "http://terminology.hl7.org/CodeSystem/v2-0203"
                }
              ]
            },
            "system": "http://ec.europa.eu/identifier/eci",
            "value": "4536-398571-9"
          },
          {
            "type": {
              "coding": [
                {
                  "code": "MR",
                  "system": "http://terminology.hl7.org/CodeSystem/v2-0203"
                }
              ]
            },
            "system": "http://local.setting.eu/identifier",
            "value": "ff7a4ff6-4bac-f07f-03c9-b91b1e1cfb23"
          }
        ],
        "name": [
          {
            "family": "Gerlach"
          },
          {
            "given": [
              "Marlene"
            ]
          },
          {
            "text": "Marlene Gerlach"
          }
        ],
        "address": [
          {
            "line": [
              "Etzlerplatz 57-53"
            ],
            "use": "home",
            "type": "physical",
            "postalCode": "71522",
            "city": "Backnang",
            "country": "Germany"
          }
        ],
        "telecom": [
          {
            "system": "phone",
            "value": "+49(0)2700 61724"
          }
        ],
        "extension": [
          {
            "url": "http://hl7.org/fhir/StructureDefinition/patient-nationality",
            "valueCodeableConcept": {
              "coding": [
                {
                  "code": "DE",
                  "system": "http://hl7.org/fhir/ValueSet/country"
                }
              ]
            }
          }
        ],
        "text": {
          "status": "generated",
          "div": "<div xmlns=\"http://www.w3.org/1999/xhtml\"><table class=\"hl7__ips\"><tr><td>Marlene Gerlach</td><td>female</td><td>28-Aug-1939</td></tr></table></div>"
        },
        "gender": "female",
        "birthDate": "1939-08-28"
      }
    },
    {
      "fullUrl": "urn:uuid:33155929-c2a5-47d7-9796-8f9dc592df07",
      "resource": {
        "resourceType": "ServiceRequest",
        "id": "33155929-c2a5-47d7-9796-8f9dc592df07",
        "meta": {
          "profile": [
            "http://hl7.eu/fhir/laboratory/StructureDefinition/ServiceRequest-eu-lab"
          ]
        },
        "identifier": [
          {
            "system": "http://example.org",
            "value": "aa0f2714-61cf-4b16-87e4-1f3a179ee624"
          }
        ],
        "specimen": [
          {
            "reference": "urn:uuid:cea36b10-c723-4954-a314-aa86c784c8e9"
          },
          {
            "reference": "urn:uuid:ca735190-efea-4f5b-b598-4bf1eafe86ed"
          }
        ],
        "reasonCode": [
          {
            "coding": [
              {
                "code": "55822004",
                "system": "http://snomed.info/sct",
                "display": "Hyperlipidemia"
              }
            ]
          },
          {
            "coding": [
              {
                "code": "414545008",
                "system": "http://snomed.info/sct",
                "display": "Ischemic heart disease"
              }
            ]
          },
          {
            "coding": [
              {
                "code": "157141000119108",
                "system": "http://snomed.info/sct",
                "display": "Proteinuria due to type 2 diabetes mellitus"
              }
            ]
          },
          {
            "coding": [
              {
                "code": "90781000119102",
                "system": "http://snomed.info/sct",
                "display": "Microalbuminuria due to type 2 diabetes mellitus"
              }
            ]
          },
          {
            "coding": [
              {
                "code": "127013003",
                "system": "http://snomed.info/sct",
                "display": "Disorder of kidney due to diabetes mellitus"
              }
            ]
          },
          {
            "coding": [
              {
                "code": "271737000",
                "system": "http://snomed.info/sct",
                "display": "Anemia"
              }
            ]
          },
          {
            "coding": [
              {
                "code": "15777000",
                "system": "http://snomed.info/sct",
                "display": "Prediabetes"
              }
            ]
          },
          {
            "coding": [
              {
                "code": "59621000",
                "system": "http://snomed.info/sct",
                "display": "Essential hypertension"
              }
            ]
          }
        ],
        "status": "active",
        "intent": "order",
        "code": {
          "coding": [
            {
              "code": "108252007",
              "system": "http://snomed.info/sct",
              "display": "Laboratory procedure"
            }
          ]
        },
        "subject": {
          "reference": "urn:uuid:2ea49b8f-0123-459e-a261-bb0c8b1431e2",
          "display": "Marlene Gerlach"
        },
        "requester": {
          "reference": "urn:uuid:805919c0-71f0-444e-882f-8f0f44b016c9"
        }
      }
    },
    {
      "fullUrl": "urn:uuid:805919c0-71f0-444e-882f-8f0f44b016c9",
      "resource": {
        "resourceType": "PractitionerRole",
        "id": "805919c0-71f0-444e-882f-8f0f44b016c9",
        "meta": {
          "profile": [
            "http://hl7.eu/fhir/base/StructureDefinition/practitionerRole-eu"
          ]
        },
        "text": {
          "status": "generated",
          "div": "<div xmlns=\"http://www.w3.org/1999/xhtml\">Provider Role Id: 805919c0-71f0-444e-882f-8f0f44b016c9</div>"
        },
        "organization": {
          "reference": "urn:uuid:2ad098fe-c263-4f6a-b768-e8a666b37548"
        }
      }
    },
    {
      "fullUrl": "urn:uuid:2ad098fe-c263-4f6a-b768-e8a666b37548",
      "resource": {
        "resourceType": "Organization",
        "id": "2ad098fe-c263-4f6a-b768-e8a666b37548",
        "meta": {
          "profile": [
            "http://hl7.eu/fhir/base/StructureDefinition/organization-eu"
          ]
        },
        "identifier": [
          {
            "assigner": {
              "display": "HL7 Europe"
            },
            "system": "urn:oid:2.16.840.1.113883.2.51.999",
            "value": "853a944c-d198-434e-b6d9-039142d4bef1"
          }
        ],
        "address": [
          {
            "line": [
              "Karl-Krische-Straße 4"
            ],
            "city": "Backnang",
            "postalCode": "71522",
            "country": "Germany"
          }
        ],
        "text": {
          "status": "generated",
          "div": "<div xmlns=\"http://www.w3.org/1999/xhtml\">Provider Organization: Gesundheitszentrum</div>"
        },
        "name": "Gesundheitszentrum"
      }
    },
    {
      "fullUrl": "urn:uuid:cea36b10-c723-4954-a314-aa86c784c8e9",
      "resource": {
        "resourceType": "Specimen",
        "id": "cea36b10-c723-4954-a314-aa86c784c8e9",
        "meta": {
          "profile": [
            "http://hl7.eu/fhir/laboratory/StructureDefinition/Specimen-eu-lab"
          ]
        },
        "collection": {
          "collectedDateTime": "2021-04-11"
        },
        "text": {
          "status": "generated",
          "div": "<div xmlns=\"http://www.w3.org/1999/xhtml\"><table class=\"hl7__eu__lab__report\"><tr><th>Specimen</th><th>Collection Date</th></tr><tr><td>Whole blood specimen (specimen)</td><td><span class=\"nb\">11-Apr-2021</span></td></tr></table></div>"
        },
        "type": {
          "coding": [
            {
              "code": "258580003",
              "system": "http://snomed.info/sct",
              "display": "Whole blood specimen (specimen)"
            }
          ]
        }
      }
    },
    {
      "fullUrl": "urn:uuid:ca735190-efea-4f5b-b598-4bf1eafe86ed",
      "resource": {
        "resourceType": "Specimen",
        "id": "ca735190-efea-4f5b-b598-4bf1eafe86ed",
        "meta": {
          "profile": [
            "http://hl7.eu/fhir/laboratory/StructureDefinition/Specimen-eu-lab"
          ]
        },
        "collection": {
          "collectedDateTime": "2021-04-11"
        },
        "text": {
          "status": "generated",
          "div": "<div xmlns=\"http://www.w3.org/1999/xhtml\"><table class=\"hl7__eu__lab__report\"><tr><th>Specimen</th><th>Collection Date</th></tr><tr><td>Acellular blood (serum or plasma) specimen</td><td><span class=\"nb\">11-Apr-2021</span></td></tr></table></div>"
        },
        "type": {
          "coding": [
            {
              "code": "122592007",
              "system": "http://snomed.info/sct",
              "display": "Acellular blood (serum or plasma) specimen"
            }
          ]
        }
      }
    },
    {
      "fullUrl": "urn:uuid:06fc14e9-7a84-4130-9ea3-7d12c86bb5bc",
      "resource": {
        "resourceType": "Observation",
        "id": "06fc14e9-7a84-4130-9ea3-7d12c86bb5bc",
        "meta": {
          "profile": [
            "http://hl7.eu/fhir/laboratory/StructureDefinition/Observation-resultslab-eu-lab"
          ]
        },
        "performer": [
          {
            "display": "The Central European Lab"
          }
        ],
        "category": [
          {
            "coding": [
              {
                "system": "http://terminology.hl7.org/CodeSystem/observation-category",
                "code": "laboratory"
              }
            ]
          }
        ],
        "code": {
          "coding": [
            {
              "code": "4548-4",
              "system": "http://loinc.org",
              "display": "Hemoglobin A1c/Hemoglobin.total in Blood"
            }
          ],
          "text": "Hemoglobin A1c/Hemoglobin.total in Blood"
        },
        "valueQuantity": {
          "system": "http://unitsofmeasure.org",
          "value": 3.9,
          "unit": "%",
          "code": "%"
        },
        "referenceRange": [
          {
            "low": {
              "value": 4,
              "code": "%",
              "system": "http://unitsofmeasure.org"
            }
          },
          {
            "high": {
              "value": 6,
              "code": "%",
              "system": "http://unitsofmeasure.org"
            }
          }
        ],
        "interpretation": [
          {
            "coding": [
              {
                "code": "L",
                "system": "http://terminology.hl7.org/CodeSystem/v3-ObservationInterpretation",
                "display": "Low"
              }
            ]
          }
        ],
        "text": {
          "status": "generated",
          "div": "<div xmlns=\"http://www.w3.org/1999/xhtml\"><table class=\"hl7__eu__lab__report\"><tr><th>Test</th><th>11-Apr-2021</th><th>Reference&#xA0;Range</th><th>Unit</th></tr><tr><td>Hemoglobin A1c/Hemoglobin.total in Blood</td><td>3.9</td><td>4 - 6</td><td>L</td><td>%</td></tr></table></div>"
        },
        "status": "final",
        "subject": {
          "reference": "urn:uuid:2ea49b8f-0123-459e-a261-bb0c8b1431e2",
          "display": "Marlene Gerlach"
        },
        "effectiveDateTime": "2021-04-11T19:24:33Z",
        "specimen": {
          "reference": "urn:uuid:cea36b10-c723-4954-a314-aa86c784c8e9"
        }
      }
    },
    {
      "fullUrl": "urn:uuid:6bd8e9c5-a803-43a8-8dfb-16ce473bb2d4",
      "resource": {
        "resourceType": "Observation",
        "id": "6bd8e9c5-a803-43a8-8dfb-16ce473bb2d4",
        "meta": {
          "profile": [
            "http://hl7.eu/fhir/laboratory/StructureDefinition/Observation-resultslab-eu-lab"
          ]
        },
        "performer": [
          {
            "display": "The Central European Lab"
          }
        ],
        "category": [
          {
            "coding": [
              {
                "system": "http://terminology.hl7.org/CodeSystem/observation-category",
                "code": "laboratory"
              }
            ]
          }
        ],
        "code": {
          "coding": [
            {
              "code": "2339-0",
              "system": "http://loinc.org",
              "display": "Glucose [Mass/volume] in Blood"
            }
          ],
          "text": "Glucose [Mass/volume] in Blood"
        },
        "valueQuantity": {
          "system": "http://unitsofmeasure.org",
          "value": 82,
          "unit": "mg/dL",
          "code": "mg/dL"
        },
        "referenceRange": [
          {
            "low": {
              "value": 70,
              "code": "mg/dL",
              "system": "http://unitsofmeasure.org"
            }
          },
          {
            "high": {
              "value": 140,
              "code": "mg/dL",
              "system": "http://unitsofmeasure.org"
            }
          }
        ],
        "text": {
          "status": "generated",
          "div": "<div xmlns=\"http://www.w3.org/1999/xhtml\"><table class=\"hl7__eu__lab__report\"><tr><th>Test</th><th>11-Apr-2021</th><th>Reference&#xA0;Range</th><th>Unit</th></tr><tr><td>Glucose [Mass/volume] in Blood</td><td>82.0</td><td>70 - 140</td><td></td><td>mg/dL</td></tr></table></div>"
        },
        "status": "final",
        "subject": {
          "reference": "urn:uuid:2ea49b8f-0123-459e-a261-bb0c8b1431e2",
          "display": "Marlene Gerlach"
        },
        "effectiveDateTime": "2021-04-11T19:24:33Z",
        "specimen": {
          "reference": "urn:uuid:cea36b10-c723-4954-a314-aa86c784c8e9"
        }
      }
    },
    {
      "fullUrl": "urn:uuid:31e4f44e-e1f2-4cbc-9c01-73342d7685b3",
      "resource": {
        "resourceType": "Observation",
        "id": "31e4f44e-e1f2-4cbc-9c01-73342d7685b3",
        "meta": {
          "profile": [
            "http://hl7.eu/fhir/laboratory/StructureDefinition/Observation-resultslab-eu-lab"
          ]
        },
        "performer": [
          {
            "display": "The Central European Lab"
          }
        ],
        "category": [
          {
            "coding": [
              {
                "system": "http://terminology.hl7.org/CodeSystem/observation-category",
                "code": "laboratory"
              }
            ]
          }
        ],
        "code": {
          "coding": [
            {
              "code": "6299-2",
              "system": "http://loinc.org",
              "display": "Urea nitrogen [Mass/volume] in Blood"
            }
          ],
          "text": "Urea nitrogen [Mass/volume] in Blood"
        },
        "valueQuantity": {
          "system": "http://unitsofmeasure.org",
          "value": 12,
          "unit": "mg/dL",
          "code": "mg/dL"
        },
        "referenceRange": [
          {
            "low": {
              "value": 7,
              "code": "mg/dL",
              "system": "http://unitsofmeasure.org"
            }
          },
          {
            "high": {
              "value": 20,
              "code": "mg/dL",
              "system": "http://unitsofmeasure.org"
            }
          }
        ],
        "text": {
          "status": "generated",
          "div": "<div xmlns=\"http://www.w3.org/1999/xhtml\"><table class=\"hl7__eu__lab__report\"><tr><th>Test</th><th>11-Apr-2021</th><th>Reference&#xA0;Range</th><th>Unit</th></tr><tr><td>Urea nitrogen [Mass/volume] in Blood</td><td>12.0</td><td>7 - 20</td><td></td><td>mg/dL</td></tr></table></div>"
        },
        "status": "final",
        "subject": {
          "reference": "urn:uuid:2ea49b8f-0123-459e-a261-bb0c8b1431e2",
          "display": "Marlene Gerlach"
        },
        "effectiveDateTime": "2021-04-11T19:24:33Z",
        "specimen": {
          "reference": "urn:uuid:cea36b10-c723-4954-a314-aa86c784c8e9"
        }
      }
    },
    {
      "fullUrl": "urn:uuid:6e40cc0f-2a93-4e17-895b-10d39cb8a8de",
      "resource": {
        "resourceType": "Observation",
        "id": "6e40cc0f-2a93-4e17-895b-10d39cb8a8de",
        "meta": {
          "profile": [
            "http://hl7.eu/fhir/laboratory/StructureDefinition/Observation-resultslab-eu-lab"
          ]
        },
        "performer": [
          {
            "display": "The Central European Lab"
          }
        ],
        "category": [
          {
            "coding": [
              {
                "system": "http://terminology.hl7.org/CodeSystem/observation-category",
                "code": "laboratory"
              }
            ]
          }
        ],
        "code": {
          "coding": [
            {
              "code": "38483-4",
              "system": "http://loinc.org",
              "display": "Creatinine [Mass/volume] in Blood"
            }
          ],
          "text": "Creatinine [Mass/volume] in Blood"
        },
        "valueQuantity": {
          "system": "http://unitsofmeasure.org",
          "value": 0.4,
          "unit": "mg/dL",
          "code": "mg/dL"
        },
        "referenceRange": [
          {
            "low": {
              "value": 0.5,
              "code": "mg/dL",
              "system": "http://unitsofmeasure.org"
            }
          },
          {
            "high": {
              "value": 1.3,
              "code": "mg/dL",
              "system": "http://unitsofmeasure.org"
            }
          }
        ],
        "interpretation": [
          {
            "coding": [
              {
                "code": "L",
                "system": "http://terminology.hl7.org/CodeSystem/v3-ObservationInterpretation",
                "display": "Low"
              }
            ]
          }
        ],
        "text": {
          "status": "generated",
          "div": "<div xmlns=\"http://www.w3.org/1999/xhtml\"><table class=\"hl7__eu__lab__report\"><tr><th>Test</th><th>11-Apr-2021</th><th>Reference&#xA0;Range</th><th>Unit</th></tr><tr><td>Creatinine [Mass/volume] in Blood</td><td>0.4</td><td>0.5 - 1.3</td><td>L</td><td>mg/dL</td></tr></table></div>"
        },
        "status": "final",
        "subject": {
          "reference": "urn:uuid:2ea49b8f-0123-459e-a261-bb0c8b1431e2",
          "display": "Marlene Gerlach"
        },
        "effectiveDateTime": "2021-04-11T19:24:33Z",
        "specimen": {
          "reference": "urn:uuid:cea36b10-c723-4954-a314-aa86c784c8e9"
        }
      }
    },
    {
      "fullUrl": "urn:uuid:14e2283e-44ac-453f-b896-addab63f4581",
      "resource": {
        "resourceType": "Observation",
        "id": "14e2283e-44ac-453f-b896-addab63f4581",
        "meta": {
          "profile": [
            "http://hl7.eu/fhir/laboratory/StructureDefinition/Observation-resultslab-eu-lab"
          ]
        },
        "performer": [
          {
            "display": "The Central European Lab"
          }
        ],
        "category": [
          {
            "coding": [
              {
                "system": "http://terminology.hl7.org/CodeSystem/observation-category",
                "code": "laboratory"
              }
            ]
          }
        ],
        "code": {
          "coding": [
            {
              "code": "49765-1",
              "system": "http://loinc.org",
              "display": "Calcium [Mass/volume] in Blood"
            }
          ],
          "text": "Calcium [Mass/volume] in Blood"
        },
        "valueQuantity": {
          "system": "http://unitsofmeasure.org",
          "value": 9.9,
          "unit": "mg/dL",
          "code": "mg/dL"
        },
        "referenceRange": [
          {
            "low": {
              "value": 8.5,
              "code": "mg/dL",
              "system": "http://unitsofmeasure.org"
            }
          },
          {
            "high": {
              "value": 10.5,
              "code": "mg/dL",
              "system": "http://unitsofmeasure.org"
            }
          }
        ],
        "text": {
          "status": "generated",
          "div": "<div xmlns=\"http://www.w3.org/1999/xhtml\"><table class=\"hl7__eu__lab__report\"><tr><th>Test</th><th>11-Apr-2021</th><th>Reference&#xA0;Range</th><th>Unit</th></tr><tr><td>Calcium [Mass/volume] in Blood</td><td>9.9</td><td>8.5 - 10.5</td><td></td><td>mg/dL</td></tr></table></div>"
        },
        "status": "final",
        "subject": {
          "reference": "urn:uuid:2ea49b8f-0123-459e-a261-bb0c8b1431e2",
          "display": "Marlene Gerlach"
        },
        "effectiveDateTime": "2021-04-11T19:24:33Z",
        "specimen": {
          "reference": "urn:uuid:cea36b10-c723-4954-a314-aa86c784c8e9"
        }
      }
    },
    {
      "fullUrl": "urn:uuid:98e973a3-dc3b-4e45-a3fa-f4f0842ca311",
      "resource": {
        "resourceType": "Observation",
        "id": "98e973a3-dc3b-4e45-a3fa-f4f0842ca311",
        "meta": {
          "profile": [
            "http://hl7.eu/fhir/laboratory/StructureDefinition/Observation-resultslab-eu-lab"
          ]
        },
        "performer": [
          {
            "display": "The Central European Lab"
          }
        ],
        "category": [
          {
            "coding": [
              {
                "system": "http://terminology.hl7.org/CodeSystem/observation-category",
                "code": "laboratory"
              }
            ]
          }
        ],
        "code": {
          "coding": [
            {
              "code": "2947-0",
              "system": "http://loinc.org",
              "display": "Sodium [Moles/volume] in Blood"
            }
          ],
          "text": "Sodium [Moles/volume] in Blood"
        },
        "valueQuantity": {
          "system": "http://unitsofmeasure.org",
          "value": 142.1,
          "unit": "mmol/L",
          "code": "mmol/L"
        },
        "referenceRange": [
          {
            "low": {
              "value": 135,
              "code": "mmol/L",
              "system": "http://unitsofmeasure.org"
            }
          },
          {
            "high": {
              "value": 145,
              "code": "mmol/L",
              "system": "http://unitsofmeasure.org"
            }
          }
        ],
        "text": {
          "status": "generated",
          "div": "<div xmlns=\"http://www.w3.org/1999/xhtml\"><table class=\"hl7__eu__lab__report\"><tr><th>Test</th><th>11-Apr-2021</th><th>Reference&#xA0;Range</th><th>Unit</th></tr><tr><td>Sodium [Moles/volume] in Blood</td><td>142.1</td><td>135 - 145</td><td></td><td>mmol/L</td></tr></table></div>"
        },
        "status": "final",
        "subject": {
          "reference": "urn:uuid:2ea49b8f-0123-459e-a261-bb0c8b1431e2",
          "display": "Marlene Gerlach"
        },
        "effectiveDateTime": "2021-04-11T19:24:33Z",
        "specimen": {
          "reference": "urn:uuid:cea36b10-c723-4954-a314-aa86c784c8e9"
        }
      }
    },
    {
      "fullUrl": "urn:uuid:ae0ef19c-a037-4708-8373-b17319682e8b",
      "resource": {
        "resourceType": "Observation",
        "id": "ae0ef19c-a037-4708-8373-b17319682e8b",
        "meta": {
          "profile": [
            "http://hl7.eu/fhir/laboratory/StructureDefinition/Observation-resultslab-eu-lab"
          ]
        },
        "performer": [
          {
            "display": "The Central European Lab"
          }
        ],
        "category": [
          {
            "coding": [
              {
                "system": "http://terminology.hl7.org/CodeSystem/observation-category",
                "code": "laboratory"
              }
            ]
          }
        ],
        "code": {
          "coding": [
            {
              "code": "6298-4",
              "system": "http://loinc.org",
              "display": "Potassium [Moles/volume] in Blood"
            }
          ],
          "text": "Potassium [Moles/volume] in Blood"
        },
        "valueQuantity": {
          "system": "http://unitsofmeasure.org",
          "value": 4,
          "unit": "mmol/L",
          "code": "mmol/L"
        },
        "referenceRange": [
          {
            "low": {
              "value": 3.5,
              "code": "mmol/L",
              "system": "http://unitsofmeasure.org"
            }
          },
          {
            "high": {
              "value": 5.1,
              "code": "mmol/L",
              "system": "http://unitsofmeasure.org"
            }
          }
        ],
        "text": {
          "status": "generated",
          "div": "<div xmlns=\"http://www.w3.org/1999/xhtml\"><table class=\"hl7__eu__lab__report\"><tr><th>Test</th><th>11-Apr-2021</th><th>Reference&#xA0;Range</th><th>Unit</th></tr><tr><td>Potassium [Moles/volume] in Blood</td><td>4.0</td><td>3.5 - 5.1</td><td></td><td>mmol/L</td></tr></table></div>"
        },
        "status": "final",
        "subject": {
          "reference": "urn:uuid:2ea49b8f-0123-459e-a261-bb0c8b1431e2",
          "display": "Marlene Gerlach"
        },
        "effectiveDateTime": "2021-04-11T19:24:33Z",
        "specimen": {
          "reference": "urn:uuid:cea36b10-c723-4954-a314-aa86c784c8e9"
        }
      }
    },
    {
      "fullUrl": "urn:uuid:eaae4869-8e18-4b92-8283-d7df16cd65d7",
      "resource": {
        "resourceType": "Observation",
        "id": "eaae4869-8e18-4b92-8283-d7df16cd65d7",
        "meta": {
          "profile": [
            "http://hl7.eu/fhir/laboratory/StructureDefinition/Observation-resultslab-eu-lab"
          ]
        },
        "performer": [
          {
            "display": "The Central European Lab"
          }
        ],
        "category": [
          {
            "coding": [
              {
                "system": "http://terminology.hl7.org/CodeSystem/observation-category",
                "code": "laboratory"
              }
            ]
          }
        ],
        "code": {
          "coding": [
            {
              "code": "2069-3",
              "system": "http://loinc.org",
              "display": "Chloride [Moles/volume] in Blood"
            }
          ],
          "text": "Chloride [Moles/volume] in Blood"
        },
        "valueQuantity": {
          "system": "http://unitsofmeasure.org",
          "value": 108.3,
          "unit": "mmol/L",
          "code": "mmol/L"
        },
        "referenceRange": [
          {
            "low": {
              "value": 98,
              "code": "mmol/L",
              "system": "http://unitsofmeasure.org"
            }
          },
          {
            "high": {
              "value": 108,
              "code": "mmol/L",
              "system": "http://unitsofmeasure.org"
            }
          }
        ],
        "interpretation": [
          {
            "coding": [
              {
                "code": "H",
                "system": "http://terminology.hl7.org/CodeSystem/v3-ObservationInterpretation",
                "display": "High"
              }
            ]
          }
        ],
        "text": {
          "status": "generated",
          "div": "<div xmlns=\"http://www.w3.org/1999/xhtml\"><table class=\"hl7__eu__lab__report\"><tr><th>Test</th><th>11-Apr-2021</th><th>Reference&#xA0;Range</th><th>Unit</th></tr><tr><td>Chloride [Moles/volume] in Blood</td><td>108.3</td><td>98 - 108</td><td>H</td><td>mmol/L</td></tr></table></div>"
        },
        "status": "final",
        "subject": {
          "reference": "urn:uuid:2ea49b8f-0123-459e-a261-bb0c8b1431e2",
          "display": "Marlene Gerlach"
        },
        "effectiveDateTime": "2021-04-11T19:24:33Z",
        "specimen": {
          "reference": "urn:uuid:cea36b10-c723-4954-a314-aa86c784c8e9"
        }
      }
    },
    {
      "fullUrl": "urn:uuid:e4629aec-692e-4738-afca-450e233665fd",
      "resource": {
        "resourceType": "Observation",
        "id": "e4629aec-692e-4738-afca-450e233665fd",
        "meta": {
          "profile": [
            "http://hl7.eu/fhir/laboratory/StructureDefinition/Observation-resultslab-eu-lab"
          ]
        },
        "performer": [
          {
            "display": "The Central European Lab"
          }
        ],
        "category": [
          {
            "coding": [
              {
                "system": "http://terminology.hl7.org/CodeSystem/observation-category",
                "code": "laboratory"
              }
            ]
          }
        ],
        "code": {
          "coding": [
            {
              "code": "20565-8",
              "system": "http://loinc.org",
              "display": "Carbon dioxide, total [Moles/volume] in Blood"
            }
          ],
          "text": "Carbon dioxide, total [Moles/volume] in Blood"
        },
        "valueQuantity": {
          "system": "http://unitsofmeasure.org",
          "value": 27.4,
          "unit": "mmol/L",
          "code": "mmol/L"
        },
        "referenceRange": [
          {
            "low": {
              "value": 22,
              "code": "mmol/L",
              "system": "http://unitsofmeasure.org"
            }
          },
          {
            "high": {
              "value": 29,
              "code": "mmol/L",
              "system": "http://unitsofmeasure.org"
            }
          }
        ],
        "text": {
          "status": "generated",
          "div": "<div xmlns=\"http://www.w3.org/1999/xhtml\"><table class=\"hl7__eu__lab__report\"><tr><th>Test</th><th>11-Apr-2021</th><th>Reference&#xA0;Range</th><th>Unit</th></tr><tr><td>Carbon dioxide, total [Moles/volume] in Blood</td><td>27.4</td><td>22 - 29</td><td></td><td>mmol/L</td></tr></table></div>"
        },
        "status": "final",
        "subject": {
          "reference": "urn:uuid:2ea49b8f-0123-459e-a261-bb0c8b1431e2",
          "display": "Marlene Gerlach"
        },
        "effectiveDateTime": "2021-04-11T19:24:33Z",
        "specimen": {
          "reference": "urn:uuid:cea36b10-c723-4954-a314-aa86c784c8e9"
        }
      }
    },
    {
      "fullUrl": "urn:uuid:a574659f-7b66-444b-8e84-709e44f5931e",
      "resource": {
        "resourceType": "Observation",
        "id": "a574659f-7b66-444b-8e84-709e44f5931e",
        "meta": {
          "profile": [
            "http://hl7.eu/fhir/laboratory/StructureDefinition/Observation-resultslab-eu-lab"
          ]
        },
        "performer": [
          {
            "display": "The Central European Lab"
          }
        ],
        "category": [
          {
            "coding": [
              {
                "system": "http://terminology.hl7.org/CodeSystem/observation-category",
                "code": "laboratory"
              }
            ]
          }
        ],
        "code": {
          "coding": [
            {
              "code": "2093-3",
              "system": "http://loinc.org",
              "display": "Cholesterol [Mass/volume] in Serum or Plasma"
            }
          ],
          "text": "Cholesterol [Mass/volume] in Serum or Plasma"
        },
        "valueQuantity": {
          "system": "http://unitsofmeasure.org",
          "value": 170.4,
          "unit": "mg/dL",
          "code": "mg/dL"
        },
        "referenceRange": [
          {
            "low": {
              "value": 0,
              "code": "mg/dL",
              "system": "http://unitsofmeasure.org"
            }
          },
          {
            "high": {
              "value": 200,
              "code": "mg/dL",
              "system": "http://unitsofmeasure.org"
            }
          }
        ],
        "text": {
          "status": "generated",
          "div": "<div xmlns=\"http://www.w3.org/1999/xhtml\"><table class=\"hl7__eu__lab__report\"><tr><th>Test</th><th>11-Apr-2021</th><th>Reference&#xA0;Range</th><th>Unit</th></tr><tr><td>Cholesterol [Mass/volume] in Serum or Plasma</td><td>170.4</td><td>0 - 200</td><td></td><td>mg/dL</td></tr></table></div>"
        },
        "status": "final",
        "subject": {
          "reference": "urn:uuid:2ea49b8f-0123-459e-a261-bb0c8b1431e2",
          "display": "Marlene Gerlach"
        },
        "effectiveDateTime": "2021-04-11T19:24:33Z",
        "specimen": {
          "reference": "urn:uuid:ca735190-efea-4f5b-b598-4bf1eafe86ed"
        }
      }
    },
    {
      "fullUrl": "urn:uuid:f6e155c6-3620-4c97-a337-b917657e2c07",
      "resource": {
        "resourceType": "Observation",
        "id": "f6e155c6-3620-4c97-a337-b917657e2c07",
        "meta": {
          "profile": [
            "http://hl7.eu/fhir/laboratory/StructureDefinition/Observation-resultslab-eu-lab"
          ]
        },
        "performer": [
          {
            "display": "The Central European Lab"
          }
        ],
        "category": [
          {
            "coding": [
              {
                "system": "http://terminology.hl7.org/CodeSystem/observation-category",
                "code": "laboratory"
              }
            ]
          }
        ],
        "code": {
          "coding": [
            {
              "code": "2571-8",
              "system": "http://loinc.org",
              "display": "Triglyceride [Mass/volume] in Serum or Plasma"
            }
          ],
          "text": "Triglyceride [Mass/volume] in Serum or Plasma"
        },
        "valueQuantity": {
          "system": "http://unitsofmeasure.org",
          "value": 132.4,
          "unit": "mg/dL",
          "code": "mg/dL"
        },
        "referenceRange": [
          {
            "low": {
              "value": 0,
              "code": "mg/dL",
              "system": "http://unitsofmeasure.org"
            }
          },
          {
            "high": {
              "value": 199,
              "code": "mg/dL",
              "system": "http://unitsofmeasure.org"
            }
          }
        ],
        "text": {
          "status": "generated",
          "div": "<div xmlns=\"http://www.w3.org/1999/xhtml\"><table class=\"hl7__eu__lab__report\"><tr><th>Test</th><th>11-Apr-2021</th><th>Reference&#xA0;Range</th><th>Unit</th></tr><tr><td>Triglyceride [Mass/volume] in Serum or Plasma</td><td>132.4</td><td>0 - 199</td><td></td><td>mg/dL</td></tr></table></div>"
        },
        "status": "final",
        "subject": {
          "reference": "urn:uuid:2ea49b8f-0123-459e-a261-bb0c8b1431e2",
          "display": "Marlene Gerlach"
        },
        "effectiveDateTime": "2021-04-11T19:24:33Z",
        "specimen": {
          "reference": "urn:uuid:ca735190-efea-4f5b-b598-4bf1eafe86ed"
        }
      }
    },
    {
      "fullUrl": "urn:uuid:e88407be-b6f5-4d85-b82c-25833f24ce3a",
      "resource": {
        "resourceType": "Observation",
        "id": "e88407be-b6f5-4d85-b82c-25833f24ce3a",
        "meta": {
          "profile": [
            "http://hl7.eu/fhir/laboratory/StructureDefinition/Observation-resultslab-eu-lab"
          ]
        },
        "performer": [
          {
            "display": "The Central European Lab"
          }
        ],
        "category": [
          {
            "coding": [
              {
                "system": "http://terminology.hl7.org/CodeSystem/observation-category",
                "code": "laboratory"
              }
            ]
          }
        ],
        "code": {
          "coding": [
            {
              "code": "18262-6",
              "system": "http://loinc.org",
              "display": "Cholesterol in LDL [Mass/volume] in Serum or Plasma by Direct assay"
            }
          ],
          "text": "Cholesterol in LDL [Mass/volume] in Serum or Plasma by Direct assay"
        },
        "valueQuantity": {
          "system": "http://unitsofmeasure.org",
          "value": 77.6,
          "unit": "mg/dL",
          "code": "mg/dL"
        },
        "referenceRange": [
          {
            "low": {
              "value": 0,
              "code": "mg/dL",
              "system": "http://unitsofmeasure.org"
            }
          },
          {
            "high": {
              "value": 130,
              "code": "mg/dL",
              "system": "http://unitsofmeasure.org"
            }
          }
        ],
        "text": {
          "status": "generated",
          "div": "<div xmlns=\"http://www.w3.org/1999/xhtml\"><table class=\"hl7__eu__lab__report\"><tr><th>Test</th><th>11-Apr-2021</th><th>Reference&#xA0;Range</th><th>Unit</th></tr><tr><td>Cholesterol in LDL [Mass/volume] in Serum or Plasma by Direct assay</td><td>77.6</td><td>0 - 130</td><td></td><td>mg/dL</td></tr></table></div>"
        },
        "status": "final",
        "subject": {
          "reference": "urn:uuid:2ea49b8f-0123-459e-a261-bb0c8b1431e2",
          "display": "Marlene Gerlach"
        },
        "effectiveDateTime": "2021-04-11T19:24:33Z",
        "specimen": {
          "reference": "urn:uuid:ca735190-efea-4f5b-b598-4bf1eafe86ed"
        }
      }
    },
    {
      "fullUrl": "urn:uuid:6f64860c-c451-430f-b58d-80344b9db3c1",
      "resource": {
        "resourceType": "Observation",
        "id": "6f64860c-c451-430f-b58d-80344b9db3c1",
        "meta": {
          "profile": [
            "http://hl7.eu/fhir/laboratory/StructureDefinition/Observation-resultslab-eu-lab"
          ]
        },
        "performer": [
          {
            "display": "The Central European Lab"
          }
        ],
        "category": [
          {
            "coding": [
              {
                "system": "http://terminology.hl7.org/CodeSystem/observation-category",
                "code": "laboratory"
              }
            ]
          }
        ],
        "code": {
          "coding": [
            {
              "code": "2085-9",
              "system": "http://loinc.org",
              "display": "Cholesterol in HDL [Mass/volume] in Serum or Plasma"
            }
          ],
          "text": "Cholesterol in HDL [Mass/volume] in Serum or Plasma"
        },
        "valueQuantity": {
          "system": "http://unitsofmeasure.org",
          "value": 66.4,
          "unit": "mg/dL",
          "code": "mg/dL"
        },
        "referenceRange": [
          {
            "low": {
              "value": 46,
              "code": "mg/dL",
              "system": "http://unitsofmeasure.org"
            }
          },
          {
            "high": {
              "value": 77,
              "code": "mg/dL",
              "system": "http://unitsofmeasure.org"
            }
          }
        ],
        "text": {
          "status": "generated",
          "div": "<div xmlns=\"http://www.w3.org/1999/xhtml\"><table class=\"hl7__eu__lab__report\"><tr><th>Test</th><th>11-Apr-2021</th><th>Reference&#xA0;Range</th><th>Unit</th></tr><tr><td>Cholesterol in HDL [Mass/volume] in Serum or Plasma</td><td>66.4</td><td>46 - 77</td><td></td><td>mg/dL</td></tr></table></div>"
        },
        "status": "final",
        "subject": {
          "reference": "urn:uuid:2ea49b8f-0123-459e-a261-bb0c8b1431e2",
          "display": "Marlene Gerlach"
        },
        "effectiveDateTime": "2021-04-11T19:24:33Z",
        "specimen": {
          "reference": "urn:uuid:ca735190-efea-4f5b-b598-4bf1eafe86ed"
        }
      }
    },
    {
      "fullUrl": "urn:uuid:15f94f16-c0ac-49dc-b8c0-e323f29868f0",
      "resource": {
        "resourceType": "Device",
        "id": "15f94f16-c0ac-49dc-b8c0-e323f29868f0",
        "deviceName": [
          {
            "name": "SYNDERAI Synthetic Generator",
            "type": "manufacturer-name"
          }
        ],
        "version": [
          {
            "value": "5.0"
          }
        ],
        "text": {
          "status": "generated",
          "div": "<div xmlns=\"http://www.w3.org/1999/xhtml\">SYNDERAI Synthetic Generator v5.0</div>"
        },
        "status": "active\"",
        "distinctIdentifier": "synderai-generator-50",
        "manufacturer": "SYNDERAI Project"
      }
    },
    {
      "fullUrl": "urn:uuid:e972bbe3-90bf-4b07-9391-2ed6114eb889",
      "resource": {
        "resourceType": "Provenance",
        "id": "e972bbe3-90bf-4b07-9391-2ed6114eb889",
        "target": [
          {
            "reference": "Patient/2ea49b8f-0123-459e-a261-bb0c8b1431e2"
          },
          {
            "reference": "Bundle/120ec955-54bf-40bc-9b4e-26fab7d08fbb"
          },
          {
            "reference": "Composition/5bd33f12-ecb3-4be6-988c-17735a040c9f"
          },
          {
            "reference": "PractitionerRole/2f0c4a68-6834-49ec-89e2-e0a76eb1fe66"
          },
          {
            "reference": "Practitioner/8581d0ec-423e-417e-aaf4-0a774690ba51"
          },
          {
            "reference": "PractitionerRole/805919c0-71f0-444e-882f-8f0f44b016c9"
          },
          {
            "reference": "Organization/2ad098fe-c263-4f6a-b768-e8a666b37548"
          }
        ],
        "activity": {
          "text": "Synthetic Example Data Generation"
        },
        "policy": [
          "https://synderai.net/synderai-synthetic-data-policy"
        ],
        "agent": [
          {
            "type": {
              "text": "author"
            },
            "who": {
              "reference": "Device/15f94f16-c0ac-49dc-b8c0-e323f29868f0"
            }
          }
        ],
        "reason": [
          {
            "text": "Interoperability Testing and Training (non-clinical use)"
          }
        ],
        "text": {
          "status": "generated",
          "div": "<div xmlns=\"http://www.w3.org/1999/xhtml\">Provenance for SYNDERAI Synthetic Example Data Resource</div>"
        },
        "recorded": "2021-04-11T21:24:33Z"
      }
    },
    {
      "fullUrl": "urn:uuid:2f0c4a68-6834-49ec-89e2-e0a76eb1fe66",
      "resource": {
        "resourceType": "PractitionerRole",
        "id": "2f0c4a68-6834-49ec-89e2-e0a76eb1fe66",
        "meta": {
          "profile": [
            "http://hl7.eu/fhir/base/StructureDefinition/practitionerRole-eu"
          ]
        },
        "text": {
          "status": "generated",
          "div": "<div xmlns=\"http://www.w3.org/1999/xhtml\">Laboratory Role Id: 2f0c4a68-6834-49ec-89e2-e0a76eb1fe66</div>"
        },
        "practitioner": {
          "reference": "urn:uuid:8581d0ec-423e-417e-aaf4-0a774690ba51"
        }
      }
    },
    {
      "fullUrl": "urn:uuid:8581d0ec-423e-417e-aaf4-0a774690ba51",
      "resource": {
        "resourceType": "Practitioner",
        "id": "8581d0ec-423e-417e-aaf4-0a774690ba51",
        "meta": {
          "profile": [
            "http://hl7.eu/fhir/base/StructureDefinition/practitioner-eu"
          ]
        },
        "identifier": [
          {
            "assigner": {
              "display": "HL7 Europe"
            },
            "system": "urn:oid:2.16.840.1.113883.2.51.999",
            "value": "5f3cd74b-5e1b-4028-88a8-bb38dd98c33c"
          }
        ],
        "name": [
          {
            "prefix": [
              "dr"
            ],
            "given": [
              "Ex"
            ],
            "family": "Ample"
          }
        ],
        "address": [
          {
            "line": [
              "Laboratoire Central Européenne",
              "Boulevard du Jardin Botanique 32"
            ],
            "postalCode": "1000",
            "city": "Brussels",
            "country": "Belgium"
          }
        ],
        "text": {
          "status": "generated",
          "div": "<div xmlns=\"http://www.w3.org/1999/xhtml\">Laboratory: Laboratoire Central Européenne, 1000 Brussels, Belgium</div>"
        }
      }
    }
  ],
  "type": "document",
  "timestamp": "2021-04-11T21:24:33Z"
}
