{
  "resourceType": "Bundle",
  "id": "2319f95b-7551-4aee-898a-228ae5f4fd5b",
  "meta": {
    "profile": [
      "http://hl7.eu/fhir/laboratory/StructureDefinition/Bundle-eu-lab"
    ]
  },
  "identifier": {
    "assigner": {
      "display": "HL7 Europe"
    },
    "system": "urn:oid:2.16.840.1.113883.2.51.999",
    "value": "3146db6d-1d95-4bef-a841-6168d93be5f4"
  },
  "entry": [
    {
      "fullUrl": "urn:uuid:2f9f54b7-3574-4855-96ca-5b0391ad9e14",
      "resource": {
        "resourceType": "Composition",
        "id": "2f9f54b7-3574-4855-96ca-5b0391ad9e14",
        "meta": {
          "profile": [
            "http://hl7.eu/fhir/laboratory/StructureDefinition/Composition-eu-lab"
          ]
        },
        "identifier": {
          "assigner": {
            "display": "HL7 Europe"
          },
          "system": "urn:oid:2.16.840.1.113883.2.51.999",
          "value": "101ee727-74d4-4dac-8fc2-c28e901adecc"
        },
        "author": [
          {
            "reference": "urn:uuid:282d5b68-c898-4f9c-ab8e-4cdc121d37f8"
          }
        ],
        "category": [
          {
            "coding": [
              {
                "code": "26436-6",
                "system": "http://loinc.org",
                "display": "Laboratory studies (set)"
              }
            ]
          }
        ],
        "type": {
          "coding": [
            {
              "code": "11502-2",
              "system": "http://loinc.org",
              "display": "Laboratory report"
            }
          ],
          "text": "Laboratory Report"
        },
        "section": [
          {
            "code": {
              "coding": [
                {
                  "code": "26436-6",
                  "system": "http://loinc.org",
                  "display": "Laboratory studies (set)"
                }
              ],
              "text": "Laboratory studies"
            },
            "section": [
              {
                "code": {
                  "coding": [
                    {
                      "code": "$18719-5",
                      "system": "http://loinc.org",
                      "display": "Chemistry studies (set)"
                    }
                  ],
                  "text": "Chemistry"
                },
                "entry": [
                  {
                    "reference": "urn:uuid:3ab81828-3543-4680-b15a-d6fedc366816"
                  },
                  {
                    "reference": "urn:uuid:d06d926d-92a3-43a1-bfa0-2c9e9d317c79"
                  },
                  {
                    "reference": "urn:uuid:2cf60c71-4cfe-4d6f-9902-21eb35e582a3"
                  },
                  {
                    "reference": "urn:uuid:6e66c028-54d5-414d-8a55-accd7c350062"
                  },
                  {
                    "reference": "urn:uuid:4d2c5153-9690-45a7-85d7-d291a56ffacb"
                  },
                  {
                    "reference": "urn:uuid:125c3f3f-fb56-4ae3-bd5c-7d74c98beb8a"
                  },
                  {
                    "reference": "urn:uuid:178cedd1-6f53-432a-a607-3324898b13a1"
                  },
                  {
                    "reference": "urn:uuid:f1b16901-37a3-49f5-8d97-95128eb1de27"
                  },
                  {
                    "reference": "urn:uuid:58282291-8fa0-483a-a1fa-bb4ec60629ed"
                  }
                ],
                "text": {
                  "status": "generated",
                  "div": "<div xmlns=\"http://www.w3.org/1999/xhtml\"><h3>Chemistry</h3><table class=\"hl7__eu__lab__report\"><thead><tr><th>Test</th><th>09-FEB-2023</th><th>Reference&#xA0;Range</th><th>Unit</th></tr></thead><tbody><tr><td>Hemoglobin A1c/Hemoglobin.total in Blood</td><td>5.8</td><td>4.5 - 6.4</td><td>%</td></tr><tr><td>Glucose [Mass/volume] in Blood</td><td>99.0</td><td>70 - 99</td><td>mg/dL</td></tr><tr><td>Urea nitrogen [Mass/volume] in Blood</td><td>19.2</td><td>7 - 20</td><td>mg/dL</td></tr><tr><td>Creatinine [Mass/volume] in Blood</td><td>1.0</td><td>0.7 - 1.3</td><td>mg/dL</td></tr><tr><td>Calcium [Mass/volume] in Blood</td><td>9.1</td><td>8.5 - 10.5</td><td>mg/dL</td></tr><tr><td>Sodium [Moles/volume] in Blood</td><td>136.8</td><td>135 - 145</td><td>mmol/L</td></tr><tr><td>Potassium [Moles/volume] in Blood</td><td>4.5</td><td>3.5 - 5.3</td><td>mmol/L</td></tr><tr><td>Chloride [Moles/volume] in Blood</td><td>106.5</td><td>98 - 110</td><td>mmol/L</td></tr><tr><td>Carbon dioxide, total [Moles/volume] in Blood</td><td>26.2</td><td>22 - 29</td><td>mmol/L</td></tr></tbody></table></div>"
                },
                "title": "Chemistry"
              }
            ],
            "title": "Laboratory Report"
          },
          {
            "text": {
              "status": "generated",
              "div": "<div xmlns=\"http://www.w3.org/1999/xhtml\"><h3>Annotation</h3><table class=\"hl7__eu__lab__report\"><tr><th>Conclusion and Recommendations based on this report and previous findings known to us</th></tr><tr><td>All measured laboratory values are within normal limits. Glycemic control (HbA1c, glucose) is adequate, and renal function (urea, creatinine), electrolytes, and calcium are normal. No laboratory abnormalities detected; no acute or chronic issues apparent from these results. Recommend routine follow-up as clinically indicated.</td></tr></table></div>"
            },
            "code": {
              "coding": [
                {
                  "system": "http://loinc.org",
                  "code": "48767-8",
                  "display": "Annotation comment"
                }
              ]
            },
            "title": "Annotation comment"
          }
        ],
        "status": "final",
        "subject": {
          "reference": "urn:uuid:ea7887f6-4184-4a3f-9a64-36ade683778f",
          "display": "Alfred Rémy"
        },
        "date": "2023-02-09T07:54:36Z",
        "title": "Laboratory Report",
        "confidentiality": "N"
      }
    },
    {
      "fullUrl": "urn:uuid:c50b6c27-34ac-41db-a72a-946830b54e9b",
      "resource": {
        "resourceType": "DiagnosticReport",
        "id": "c50b6c27-34ac-41db-a72a-946830b54e9b",
        "meta": {
          "profile": [
            "http://hl7.eu/fhir/laboratory/StructureDefinition/DiagnosticReport-eu-lab"
          ]
        },
        "identifier": [
          {
            "assigner": {
              "display": "HL7 Europe"
            },
            "system": "urn:oid:2.16.840.1.113883.2.51.999",
            "value": "4d70a0be-c0d9-41d3-a132-353450ad0a18"
          }
        ],
        "extension": [
          {
            "url": "http://hl7.org/fhir/5.0/StructureDefinition/extension-DiagnosticReport.composition",
            "valueReference": {
              "reference": "urn:uuid:101ee727-74d4-4dac-8fc2-c28e901adecc"
            }
          }
        ],
        "category": [
          {
            "coding": [
              {
                "code": "26436-6",
                "system": "http://loinc.org",
                "display": "Laboratory studies (set)"
              }
            ]
          }
        ],
        "specimen": [
          {
            "reference": "urn:uuid:1d0bfcd3-410c-41d1-a483-e6ecf0c2b752"
          }
        ],
        "result": [
          {
            "reference": "urn:uuid:3ab81828-3543-4680-b15a-d6fedc366816"
          },
          {
            "reference": "urn:uuid:d06d926d-92a3-43a1-bfa0-2c9e9d317c79"
          },
          {
            "reference": "urn:uuid:2cf60c71-4cfe-4d6f-9902-21eb35e582a3"
          },
          {
            "reference": "urn:uuid:6e66c028-54d5-414d-8a55-accd7c350062"
          },
          {
            "reference": "urn:uuid:4d2c5153-9690-45a7-85d7-d291a56ffacb"
          },
          {
            "reference": "urn:uuid:125c3f3f-fb56-4ae3-bd5c-7d74c98beb8a"
          },
          {
            "reference": "urn:uuid:178cedd1-6f53-432a-a607-3324898b13a1"
          },
          {
            "reference": "urn:uuid:f1b16901-37a3-49f5-8d97-95128eb1de27"
          },
          {
            "reference": "urn:uuid:58282291-8fa0-483a-a1fa-bb4ec60629ed"
          }
        ],
        "status": "registered",
        "code": {
          "coding": [
            {
              "code": "11502-2",
              "system": "http://loinc.org",
              "display": "Laboratory report"
            }
          ]
        },
        "subject": {
          "reference": "urn:uuid:ea7887f6-4184-4a3f-9a64-36ade683778f",
          "display": "Alfred Rémy"
        }
      }
    },
    {
      "fullUrl": "urn:uuid:ea7887f6-4184-4a3f-9a64-36ade683778f",
      "resource": {
        "resourceType": "Patient",
        "id": "ea7887f6-4184-4a3f-9a64-36ade683778f",
        "meta": {
          "security": [
            {
              "system": "http://terminology.hl7.org/CodeSystem/v3-ActReason",
              "code": "HTEST"
            },
            {
              "system": "http://terminology.hl7.org/CodeSystem/v3-ActReason",
              "code": "TRAIN"
            }
          ],
          "tag": [
            {
              "system": "https://synderai.net/fhir/CodeSystem/tags",
              "code": "synthetic",
              "display": "SYNDERAI Synthetic data"
            }
          ],
          "profile": [
            "http://hl7.eu/fhir/base/StructureDefinition/patient-eu-core"
          ]
        },
        "identifier": [
          {
            "type": {
              "coding": [
                {
                  "code": "PT",
                  "system": "http://terminology.hl7.org/CodeSystem/v2-0203"
                }
              ]
            },
            "system": "http://ec.europa.eu/identifier/eci",
            "value": "9962-084919-2"
          },
          {
            "type": {
              "coding": [
                {
                  "code": "MR",
                  "system": "http://terminology.hl7.org/CodeSystem/v2-0203"
                }
              ]
            },
            "system": "http://local.setting.eu/identifier",
            "value": "cc3b7d7f-bed4-5811-99b9-3468e2f4203c"
          }
        ],
        "name": [
          {
            "family": "Rémy"
          },
          {
            "given": [
              "Alfred"
            ]
          },
          {
            "text": "Alfred Rémy"
          }
        ],
        "address": [
          {
            "line": [
              "88, rue de Jacquot"
            ],
            "use": "home",
            "type": "physical",
            "postalCode": "75018",
            "city": "Paris",
            "country": "France"
          }
        ],
        "telecom": [
          {
            "system": "phone",
            "value": "+33 (0)4 73 74 17 67"
          }
        ],
        "extension": [
          {
            "url": "http://hl7.org/fhir/StructureDefinition/patient-nationality",
            "valueCodeableConcept": {
              "coding": [
                {
                  "code": "FR",
                  "system": "http://hl7.org/fhir/ValueSet/country"
                }
              ]
            }
          }
        ],
        "text": {
          "status": "generated",
          "div": "<div xmlns=\"http://www.w3.org/1999/xhtml\"><table class=\"hl7__ips\"><tr><td>Alfred Rémy</td><td>male</td><td>05-Jul-1967</td></tr></table></div>"
        },
        "gender": "male",
        "birthDate": "1967-07-05"
      }
    },
    {
      "fullUrl": "urn:uuid:0580a6ab-0ca8-4130-8188-b7fa2ad792e1",
      "resource": {
        "resourceType": "ServiceRequest",
        "id": "0580a6ab-0ca8-4130-8188-b7fa2ad792e1",
        "meta": {
          "profile": [
            "http://hl7.eu/fhir/laboratory/StructureDefinition/ServiceRequest-eu-lab"
          ]
        },
        "identifier": [
          {
            "system": "http://example.org",
            "value": "38b38ddb-5727-421e-853a-87b90c29708e"
          }
        ],
        "specimen": [
          {
            "reference": "urn:uuid:1d0bfcd3-410c-41d1-a483-e6ecf0c2b752"
          }
        ],
        "reasonCode": [
          {
            "coding": [
              {
                "code": "271737000",
                "system": "http://snomed.info/sct",
                "display": "Anemia"
              }
            ]
          },
          {
            "coding": [
              {
                "code": "15777000",
                "system": "http://snomed.info/sct",
                "display": "Prediabetes"
              }
            ]
          }
        ],
        "status": "active",
        "intent": "order",
        "code": {
          "coding": [
            {
              "code": "108252007",
              "system": "http://snomed.info/sct",
              "display": "Laboratory procedure"
            }
          ]
        },
        "subject": {
          "reference": "urn:uuid:ea7887f6-4184-4a3f-9a64-36ade683778f",
          "display": "Alfred Rémy"
        },
        "requester": {
          "reference": "urn:uuid:d30ddc1d-1faa-49db-a950-3b057cc96089"
        }
      }
    },
    {
      "fullUrl": "urn:uuid:d30ddc1d-1faa-49db-a950-3b057cc96089",
      "resource": {
        "resourceType": "PractitionerRole",
        "id": "d30ddc1d-1faa-49db-a950-3b057cc96089",
        "meta": {
          "profile": [
            "http://hl7.eu/fhir/base/StructureDefinition/practitionerRole-eu"
          ]
        },
        "text": {
          "status": "generated",
          "div": "<div xmlns=\"http://www.w3.org/1999/xhtml\">Provider Role Id: d30ddc1d-1faa-49db-a950-3b057cc96089</div>"
        },
        "organization": {
          "reference": "urn:uuid:7b24bbe6-5680-46bd-a08d-2579044d9b1a"
        }
      }
    },
    {
      "fullUrl": "urn:uuid:7b24bbe6-5680-46bd-a08d-2579044d9b1a",
      "resource": {
        "resourceType": "Organization",
        "id": "7b24bbe6-5680-46bd-a08d-2579044d9b1a",
        "meta": {
          "profile": [
            "http://hl7.eu/fhir/base/StructureDefinition/organization-eu"
          ]
        },
        "identifier": [
          {
            "assigner": {
              "display": "HL7 Europe"
            },
            "system": "urn:oid:2.16.840.1.113883.2.51.999",
            "value": "c900ea92-b0ea-40c0-b36c-ff9a2411f405"
          }
        ],
        "address": [
          {
            "city": "Paris",
            "postalCode": "75005",
            "country": "France"
          }
        ],
        "text": {
          "status": "generated",
          "div": "<div xmlns=\"http://www.w3.org/1999/xhtml\">Provider Organization: Maison des parents Irène Joliot-Curie</div>"
        },
        "name": "Maison des parents Irène Joliot-Curie"
      }
    },
    {
      "fullUrl": "urn:uuid:1d0bfcd3-410c-41d1-a483-e6ecf0c2b752",
      "resource": {
        "resourceType": "Specimen",
        "id": "1d0bfcd3-410c-41d1-a483-e6ecf0c2b752",
        "meta": {
          "profile": [
            "http://hl7.eu/fhir/laboratory/StructureDefinition/Specimen-eu-lab"
          ]
        },
        "collection": {
          "collectedDateTime": "2023-02-09"
        },
        "text": {
          "status": "generated",
          "div": "<div xmlns=\"http://www.w3.org/1999/xhtml\"><table class=\"hl7__eu__lab__report\"><tr><th>Specimen</th><th>Collection Date</th></tr><tr><td>Whole blood specimen (specimen)</td><td><span class=\"nb\">09-Feb-2023</span></td></tr></table></div>"
        },
        "type": {
          "coding": [
            {
              "code": "258580003",
              "system": "http://snomed.info/sct",
              "display": "Whole blood specimen (specimen)"
            }
          ]
        }
      }
    },
    {
      "fullUrl": "urn:uuid:3ab81828-3543-4680-b15a-d6fedc366816",
      "resource": {
        "resourceType": "Observation",
        "id": "3ab81828-3543-4680-b15a-d6fedc366816",
        "meta": {
          "profile": [
            "http://hl7.eu/fhir/laboratory/StructureDefinition/Observation-resultslab-eu-lab"
          ]
        },
        "performer": [
          {
            "display": "The Central European Lab"
          }
        ],
        "category": [
          {
            "coding": [
              {
                "system": "http://terminology.hl7.org/CodeSystem/observation-category",
                "code": "laboratory"
              }
            ]
          }
        ],
        "code": {
          "coding": [
            {
              "code": "4548-4",
              "system": "http://loinc.org",
              "display": "Hemoglobin A1c/Hemoglobin.total in Blood"
            }
          ],
          "text": "Hemoglobin A1c/Hemoglobin.total in Blood"
        },
        "valueQuantity": {
          "system": "http://unitsofmeasure.org",
          "value": 5.8,
          "unit": "%",
          "code": "%"
        },
        "referenceRange": [
          {
            "low": {
              "value": 4.5,
              "code": "%",
              "system": "http://unitsofmeasure.org"
            }
          },
          {
            "high": {
              "value": 6.4,
              "code": "%",
              "system": "http://unitsofmeasure.org"
            }
          }
        ],
        "text": {
          "status": "generated",
          "div": "<div xmlns=\"http://www.w3.org/1999/xhtml\"><table class=\"hl7__eu__lab__report\"><tr><th>Test</th><th>09-Feb-2023</th><th>Reference&#xA0;Range</th><th>Unit</th></tr><tr><td>Hemoglobin A1c/Hemoglobin.total in Blood</td><td>5.8</td><td>4.5 - 6.4</td><td></td><td>%</td></tr></table></div>"
        },
        "status": "final",
        "subject": {
          "reference": "urn:uuid:ea7887f6-4184-4a3f-9a64-36ade683778f",
          "display": "Alfred Rémy"
        },
        "effectiveDateTime": "2023-02-09T06:54:36Z",
        "specimen": {
          "reference": "urn:uuid:1d0bfcd3-410c-41d1-a483-e6ecf0c2b752"
        }
      }
    },
    {
      "fullUrl": "urn:uuid:d06d926d-92a3-43a1-bfa0-2c9e9d317c79",
      "resource": {
        "resourceType": "Observation",
        "id": "d06d926d-92a3-43a1-bfa0-2c9e9d317c79",
        "meta": {
          "profile": [
            "http://hl7.eu/fhir/laboratory/StructureDefinition/Observation-resultslab-eu-lab"
          ]
        },
        "performer": [
          {
            "display": "The Central European Lab"
          }
        ],
        "category": [
          {
            "coding": [
              {
                "system": "http://terminology.hl7.org/CodeSystem/observation-category",
                "code": "laboratory"
              }
            ]
          }
        ],
        "code": {
          "coding": [
            {
              "code": "2339-0",
              "system": "http://loinc.org",
              "display": "Glucose [Mass/volume] in Blood"
            }
          ],
          "text": "Glucose [Mass/volume] in Blood"
        },
        "valueQuantity": {
          "system": "http://unitsofmeasure.org",
          "value": 99,
          "unit": "mg/dL",
          "code": "mg/dL"
        },
        "referenceRange": [
          {
            "low": {
              "value": 70,
              "code": "mg/dL",
              "system": "http://unitsofmeasure.org"
            }
          },
          {
            "high": {
              "value": 99,
              "code": "mg/dL",
              "system": "http://unitsofmeasure.org"
            }
          }
        ],
        "text": {
          "status": "generated",
          "div": "<div xmlns=\"http://www.w3.org/1999/xhtml\"><table class=\"hl7__eu__lab__report\"><tr><th>Test</th><th>09-Feb-2023</th><th>Reference&#xA0;Range</th><th>Unit</th></tr><tr><td>Glucose [Mass/volume] in Blood</td><td>99.0</td><td>70 - 99</td><td></td><td>mg/dL</td></tr></table></div>"
        },
        "status": "final",
        "subject": {
          "reference": "urn:uuid:ea7887f6-4184-4a3f-9a64-36ade683778f",
          "display": "Alfred Rémy"
        },
        "effectiveDateTime": "2023-02-09T06:54:36Z",
        "specimen": {
          "reference": "urn:uuid:1d0bfcd3-410c-41d1-a483-e6ecf0c2b752"
        }
      }
    },
    {
      "fullUrl": "urn:uuid:2cf60c71-4cfe-4d6f-9902-21eb35e582a3",
      "resource": {
        "resourceType": "Observation",
        "id": "2cf60c71-4cfe-4d6f-9902-21eb35e582a3",
        "meta": {
          "profile": [
            "http://hl7.eu/fhir/laboratory/StructureDefinition/Observation-resultslab-eu-lab"
          ]
        },
        "performer": [
          {
            "display": "The Central European Lab"
          }
        ],
        "category": [
          {
            "coding": [
              {
                "system": "http://terminology.hl7.org/CodeSystem/observation-category",
                "code": "laboratory"
              }
            ]
          }
        ],
        "code": {
          "coding": [
            {
              "code": "6299-2",
              "system": "http://loinc.org",
              "display": "Urea nitrogen [Mass/volume] in Blood"
            }
          ],
          "text": "Urea nitrogen [Mass/volume] in Blood"
        },
        "valueQuantity": {
          "system": "http://unitsofmeasure.org",
          "value": 19.2,
          "unit": "mg/dL",
          "code": "mg/dL"
        },
        "referenceRange": [
          {
            "low": {
              "value": 7,
              "code": "mg/dL",
              "system": "http://unitsofmeasure.org"
            }
          },
          {
            "high": {
              "value": 20,
              "code": "mg/dL",
              "system": "http://unitsofmeasure.org"
            }
          }
        ],
        "text": {
          "status": "generated",
          "div": "<div xmlns=\"http://www.w3.org/1999/xhtml\"><table class=\"hl7__eu__lab__report\"><tr><th>Test</th><th>09-Feb-2023</th><th>Reference&#xA0;Range</th><th>Unit</th></tr><tr><td>Urea nitrogen [Mass/volume] in Blood</td><td>19.2</td><td>7 - 20</td><td></td><td>mg/dL</td></tr></table></div>"
        },
        "status": "final",
        "subject": {
          "reference": "urn:uuid:ea7887f6-4184-4a3f-9a64-36ade683778f",
          "display": "Alfred Rémy"
        },
        "effectiveDateTime": "2023-02-09T06:54:36Z",
        "specimen": {
          "reference": "urn:uuid:1d0bfcd3-410c-41d1-a483-e6ecf0c2b752"
        }
      }
    },
    {
      "fullUrl": "urn:uuid:6e66c028-54d5-414d-8a55-accd7c350062",
      "resource": {
        "resourceType": "Observation",
        "id": "6e66c028-54d5-414d-8a55-accd7c350062",
        "meta": {
          "profile": [
            "http://hl7.eu/fhir/laboratory/StructureDefinition/Observation-resultslab-eu-lab"
          ]
        },
        "performer": [
          {
            "display": "The Central European Lab"
          }
        ],
        "category": [
          {
            "coding": [
              {
                "system": "http://terminology.hl7.org/CodeSystem/observation-category",
                "code": "laboratory"
              }
            ]
          }
        ],
        "code": {
          "coding": [
            {
              "code": "38483-4",
              "system": "http://loinc.org",
              "display": "Creatinine [Mass/volume] in Blood"
            }
          ],
          "text": "Creatinine [Mass/volume] in Blood"
        },
        "valueQuantity": {
          "system": "http://unitsofmeasure.org",
          "value": 1,
          "unit": "mg/dL",
          "code": "mg/dL"
        },
        "referenceRange": [
          {
            "low": {
              "value": 0.7,
              "code": "mg/dL",
              "system": "http://unitsofmeasure.org"
            }
          },
          {
            "high": {
              "value": 1.3,
              "code": "mg/dL",
              "system": "http://unitsofmeasure.org"
            }
          }
        ],
        "text": {
          "status": "generated",
          "div": "<div xmlns=\"http://www.w3.org/1999/xhtml\"><table class=\"hl7__eu__lab__report\"><tr><th>Test</th><th>09-Feb-2023</th><th>Reference&#xA0;Range</th><th>Unit</th></tr><tr><td>Creatinine [Mass/volume] in Blood</td><td>1.0</td><td>0.7 - 1.3</td><td></td><td>mg/dL</td></tr></table></div>"
        },
        "status": "final",
        "subject": {
          "reference": "urn:uuid:ea7887f6-4184-4a3f-9a64-36ade683778f",
          "display": "Alfred Rémy"
        },
        "effectiveDateTime": "2023-02-09T06:54:36Z",
        "specimen": {
          "reference": "urn:uuid:1d0bfcd3-410c-41d1-a483-e6ecf0c2b752"
        }
      }
    },
    {
      "fullUrl": "urn:uuid:4d2c5153-9690-45a7-85d7-d291a56ffacb",
      "resource": {
        "resourceType": "Observation",
        "id": "4d2c5153-9690-45a7-85d7-d291a56ffacb",
        "meta": {
          "profile": [
            "http://hl7.eu/fhir/laboratory/StructureDefinition/Observation-resultslab-eu-lab"
          ]
        },
        "performer": [
          {
            "display": "The Central European Lab"
          }
        ],
        "category": [
          {
            "coding": [
              {
                "system": "http://terminology.hl7.org/CodeSystem/observation-category",
                "code": "laboratory"
              }
            ]
          }
        ],
        "code": {
          "coding": [
            {
              "code": "49765-1",
              "system": "http://loinc.org",
              "display": "Calcium [Mass/volume] in Blood"
            }
          ],
          "text": "Calcium [Mass/volume] in Blood"
        },
        "valueQuantity": {
          "system": "http://unitsofmeasure.org",
          "value": 9.1,
          "unit": "mg/dL",
          "code": "mg/dL"
        },
        "referenceRange": [
          {
            "low": {
              "value": 8.5,
              "code": "mg/dL",
              "system": "http://unitsofmeasure.org"
            }
          },
          {
            "high": {
              "value": 10.5,
              "code": "mg/dL",
              "system": "http://unitsofmeasure.org"
            }
          }
        ],
        "text": {
          "status": "generated",
          "div": "<div xmlns=\"http://www.w3.org/1999/xhtml\"><table class=\"hl7__eu__lab__report\"><tr><th>Test</th><th>09-Feb-2023</th><th>Reference&#xA0;Range</th><th>Unit</th></tr><tr><td>Calcium [Mass/volume] in Blood</td><td>9.1</td><td>8.5 - 10.5</td><td></td><td>mg/dL</td></tr></table></div>"
        },
        "status": "final",
        "subject": {
          "reference": "urn:uuid:ea7887f6-4184-4a3f-9a64-36ade683778f",
          "display": "Alfred Rémy"
        },
        "effectiveDateTime": "2023-02-09T06:54:36Z",
        "specimen": {
          "reference": "urn:uuid:1d0bfcd3-410c-41d1-a483-e6ecf0c2b752"
        }
      }
    },
    {
      "fullUrl": "urn:uuid:125c3f3f-fb56-4ae3-bd5c-7d74c98beb8a",
      "resource": {
        "resourceType": "Observation",
        "id": "125c3f3f-fb56-4ae3-bd5c-7d74c98beb8a",
        "meta": {
          "profile": [
            "http://hl7.eu/fhir/laboratory/StructureDefinition/Observation-resultslab-eu-lab"
          ]
        },
        "performer": [
          {
            "display": "The Central European Lab"
          }
        ],
        "category": [
          {
            "coding": [
              {
                "system": "http://terminology.hl7.org/CodeSystem/observation-category",
                "code": "laboratory"
              }
            ]
          }
        ],
        "code": {
          "coding": [
            {
              "code": "2947-0",
              "system": "http://loinc.org",
              "display": "Sodium [Moles/volume] in Blood"
            }
          ],
          "text": "Sodium [Moles/volume] in Blood"
        },
        "valueQuantity": {
          "system": "http://unitsofmeasure.org",
          "value": 136.8,
          "unit": "mmol/L",
          "code": "mmol/L"
        },
        "referenceRange": [
          {
            "low": {
              "value": 135,
              "code": "mmol/L",
              "system": "http://unitsofmeasure.org"
            }
          },
          {
            "high": {
              "value": 145,
              "code": "mmol/L",
              "system": "http://unitsofmeasure.org"
            }
          }
        ],
        "text": {
          "status": "generated",
          "div": "<div xmlns=\"http://www.w3.org/1999/xhtml\"><table class=\"hl7__eu__lab__report\"><tr><th>Test</th><th>09-Feb-2023</th><th>Reference&#xA0;Range</th><th>Unit</th></tr><tr><td>Sodium [Moles/volume] in Blood</td><td>136.8</td><td>135 - 145</td><td></td><td>mmol/L</td></tr></table></div>"
        },
        "status": "final",
        "subject": {
          "reference": "urn:uuid:ea7887f6-4184-4a3f-9a64-36ade683778f",
          "display": "Alfred Rémy"
        },
        "effectiveDateTime": "2023-02-09T06:54:36Z",
        "specimen": {
          "reference": "urn:uuid:1d0bfcd3-410c-41d1-a483-e6ecf0c2b752"
        }
      }
    },
    {
      "fullUrl": "urn:uuid:178cedd1-6f53-432a-a607-3324898b13a1",
      "resource": {
        "resourceType": "Observation",
        "id": "178cedd1-6f53-432a-a607-3324898b13a1",
        "meta": {
          "profile": [
            "http://hl7.eu/fhir/laboratory/StructureDefinition/Observation-resultslab-eu-lab"
          ]
        },
        "performer": [
          {
            "display": "The Central European Lab"
          }
        ],
        "category": [
          {
            "coding": [
              {
                "system": "http://terminology.hl7.org/CodeSystem/observation-category",
                "code": "laboratory"
              }
            ]
          }
        ],
        "code": {
          "coding": [
            {
              "code": "6298-4",
              "system": "http://loinc.org",
              "display": "Potassium [Moles/volume] in Blood"
            }
          ],
          "text": "Potassium [Moles/volume] in Blood"
        },
        "valueQuantity": {
          "system": "http://unitsofmeasure.org",
          "value": 4.5,
          "unit": "mmol/L",
          "code": "mmol/L"
        },
        "referenceRange": [
          {
            "low": {
              "value": 3.5,
              "code": "mmol/L",
              "system": "http://unitsofmeasure.org"
            }
          },
          {
            "high": {
              "value": 5.3,
              "code": "mmol/L",
              "system": "http://unitsofmeasure.org"
            }
          }
        ],
        "text": {
          "status": "generated",
          "div": "<div xmlns=\"http://www.w3.org/1999/xhtml\"><table class=\"hl7__eu__lab__report\"><tr><th>Test</th><th>09-Feb-2023</th><th>Reference&#xA0;Range</th><th>Unit</th></tr><tr><td>Potassium [Moles/volume] in Blood</td><td>4.5</td><td>3.5 - 5.3</td><td></td><td>mmol/L</td></tr></table></div>"
        },
        "status": "final",
        "subject": {
          "reference": "urn:uuid:ea7887f6-4184-4a3f-9a64-36ade683778f",
          "display": "Alfred Rémy"
        },
        "effectiveDateTime": "2023-02-09T06:54:36Z",
        "specimen": {
          "reference": "urn:uuid:1d0bfcd3-410c-41d1-a483-e6ecf0c2b752"
        }
      }
    },
    {
      "fullUrl": "urn:uuid:f1b16901-37a3-49f5-8d97-95128eb1de27",
      "resource": {
        "resourceType": "Observation",
        "id": "f1b16901-37a3-49f5-8d97-95128eb1de27",
        "meta": {
          "profile": [
            "http://hl7.eu/fhir/laboratory/StructureDefinition/Observation-resultslab-eu-lab"
          ]
        },
        "performer": [
          {
            "display": "The Central European Lab"
          }
        ],
        "category": [
          {
            "coding": [
              {
                "system": "http://terminology.hl7.org/CodeSystem/observation-category",
                "code": "laboratory"
              }
            ]
          }
        ],
        "code": {
          "coding": [
            {
              "code": "2069-3",
              "system": "http://loinc.org",
              "display": "Chloride [Moles/volume] in Blood"
            }
          ],
          "text": "Chloride [Moles/volume] in Blood"
        },
        "valueQuantity": {
          "system": "http://unitsofmeasure.org",
          "value": 106.5,
          "unit": "mmol/L",
          "code": "mmol/L"
        },
        "referenceRange": [
          {
            "low": {
              "value": 98,
              "code": "mmol/L",
              "system": "http://unitsofmeasure.org"
            }
          },
          {
            "high": {
              "value": 110,
              "code": "mmol/L",
              "system": "http://unitsofmeasure.org"
            }
          }
        ],
        "text": {
          "status": "generated",
          "div": "<div xmlns=\"http://www.w3.org/1999/xhtml\"><table class=\"hl7__eu__lab__report\"><tr><th>Test</th><th>09-Feb-2023</th><th>Reference&#xA0;Range</th><th>Unit</th></tr><tr><td>Chloride [Moles/volume] in Blood</td><td>106.5</td><td>98 - 110</td><td></td><td>mmol/L</td></tr></table></div>"
        },
        "status": "final",
        "subject": {
          "reference": "urn:uuid:ea7887f6-4184-4a3f-9a64-36ade683778f",
          "display": "Alfred Rémy"
        },
        "effectiveDateTime": "2023-02-09T06:54:36Z",
        "specimen": {
          "reference": "urn:uuid:1d0bfcd3-410c-41d1-a483-e6ecf0c2b752"
        }
      }
    },
    {
      "fullUrl": "urn:uuid:58282291-8fa0-483a-a1fa-bb4ec60629ed",
      "resource": {
        "resourceType": "Observation",
        "id": "58282291-8fa0-483a-a1fa-bb4ec60629ed",
        "meta": {
          "profile": [
            "http://hl7.eu/fhir/laboratory/StructureDefinition/Observation-resultslab-eu-lab"
          ]
        },
        "performer": [
          {
            "display": "The Central European Lab"
          }
        ],
        "category": [
          {
            "coding": [
              {
                "system": "http://terminology.hl7.org/CodeSystem/observation-category",
                "code": "laboratory"
              }
            ]
          }
        ],
        "code": {
          "coding": [
            {
              "code": "20565-8",
              "system": "http://loinc.org",
              "display": "Carbon dioxide, total [Moles/volume] in Blood"
            }
          ],
          "text": "Carbon dioxide, total [Moles/volume] in Blood"
        },
        "valueQuantity": {
          "system": "http://unitsofmeasure.org",
          "value": 26.2,
          "unit": "mmol/L",
          "code": "mmol/L"
        },
        "referenceRange": [
          {
            "low": {
              "value": 22,
              "code": "mmol/L",
              "system": "http://unitsofmeasure.org"
            }
          },
          {
            "high": {
              "value": 29,
              "code": "mmol/L",
              "system": "http://unitsofmeasure.org"
            }
          }
        ],
        "text": {
          "status": "generated",
          "div": "<div xmlns=\"http://www.w3.org/1999/xhtml\"><table class=\"hl7__eu__lab__report\"><tr><th>Test</th><th>09-Feb-2023</th><th>Reference&#xA0;Range</th><th>Unit</th></tr><tr><td>Carbon dioxide, total [Moles/volume] in Blood</td><td>26.2</td><td>22 - 29</td><td></td><td>mmol/L</td></tr></table></div>"
        },
        "status": "final",
        "subject": {
          "reference": "urn:uuid:ea7887f6-4184-4a3f-9a64-36ade683778f",
          "display": "Alfred Rémy"
        },
        "effectiveDateTime": "2023-02-09T06:54:36Z",
        "specimen": {
          "reference": "urn:uuid:1d0bfcd3-410c-41d1-a483-e6ecf0c2b752"
        }
      }
    },
    {
      "fullUrl": "urn:uuid:0bb29ee6-d96c-499c-8a37-f5fed592b660",
      "resource": {
        "resourceType": "Device",
        "id": "0bb29ee6-d96c-499c-8a37-f5fed592b660",
        "deviceName": [
          {
            "name": "SYNDERAI Synthetic Generator",
            "type": "manufacturer-name"
          }
        ],
        "version": [
          {
            "value": "5.0"
          }
        ],
        "text": {
          "status": "generated",
          "div": "<div xmlns=\"http://www.w3.org/1999/xhtml\">SYNDERAI Synthetic Generator v5.0</div>"
        },
        "status": "active\"",
        "distinctIdentifier": "synderai-generator-50",
        "manufacturer": "SYNDERAI Project"
      }
    },
    {
      "fullUrl": "urn:uuid:40e0384b-034a-4243-af63-9df9b009e8df",
      "resource": {
        "resourceType": "Provenance",
        "id": "40e0384b-034a-4243-af63-9df9b009e8df",
        "target": [
          {
            "reference": "Patient/ea7887f6-4184-4a3f-9a64-36ade683778f"
          },
          {
            "reference": "Bundle/2319f95b-7551-4aee-898a-228ae5f4fd5b"
          },
          {
            "reference": "Composition/2f9f54b7-3574-4855-96ca-5b0391ad9e14"
          },
          {
            "reference": "PractitionerRole/282d5b68-c898-4f9c-ab8e-4cdc121d37f8"
          },
          {
            "reference": "Practitioner/af64cb5b-b606-4708-ae7e-3e83066e58f4"
          },
          {
            "reference": "PractitionerRole/d30ddc1d-1faa-49db-a950-3b057cc96089"
          },
          {
            "reference": "Organization/7b24bbe6-5680-46bd-a08d-2579044d9b1a"
          }
        ],
        "activity": {
          "text": "Synthetic Example Data Generation"
        },
        "policy": [
          "https://synderai.net/synderai-synthetic-data-policy"
        ],
        "agent": [
          {
            "type": {
              "text": "author"
            },
            "who": {
              "reference": "Device/0bb29ee6-d96c-499c-8a37-f5fed592b660"
            }
          }
        ],
        "reason": [
          {
            "text": "Interoperability Testing and Training (non-clinical use)"
          }
        ],
        "text": {
          "status": "generated",
          "div": "<div xmlns=\"http://www.w3.org/1999/xhtml\">Provenance for SYNDERAI Synthetic Example Data Resource</div>"
        },
        "recorded": "2023-02-09T07:54:36Z"
      }
    },
    {
      "fullUrl": "urn:uuid:282d5b68-c898-4f9c-ab8e-4cdc121d37f8",
      "resource": {
        "resourceType": "PractitionerRole",
        "id": "282d5b68-c898-4f9c-ab8e-4cdc121d37f8",
        "meta": {
          "profile": [
            "http://hl7.eu/fhir/base/StructureDefinition/practitionerRole-eu"
          ]
        },
        "text": {
          "status": "generated",
          "div": "<div xmlns=\"http://www.w3.org/1999/xhtml\">Laboratory Role Id: 282d5b68-c898-4f9c-ab8e-4cdc121d37f8</div>"
        },
        "practitioner": {
          "reference": "urn:uuid:af64cb5b-b606-4708-ae7e-3e83066e58f4"
        }
      }
    },
    {
      "fullUrl": "urn:uuid:af64cb5b-b606-4708-ae7e-3e83066e58f4",
      "resource": {
        "resourceType": "Practitioner",
        "id": "af64cb5b-b606-4708-ae7e-3e83066e58f4",
        "meta": {
          "profile": [
            "http://hl7.eu/fhir/base/StructureDefinition/practitioner-eu"
          ]
        },
        "identifier": [
          {
            "assigner": {
              "display": "HL7 Europe"
            },
            "system": "urn:oid:2.16.840.1.113883.2.51.999",
            "value": "35a58449-d744-460c-84f3-627e8f53e375"
          }
        ],
        "name": [
          {
            "prefix": [
              "dr"
            ],
            "given": [
              "Ex"
            ],
            "family": "Ample"
          }
        ],
        "address": [
          {
            "line": [
              "Laboratoire Central Européenne",
              "Boulevard du Jardin Botanique 32"
            ],
            "postalCode": "1000",
            "city": "Brussels",
            "country": "Belgium"
          }
        ],
        "text": {
          "status": "generated",
          "div": "<div xmlns=\"http://www.w3.org/1999/xhtml\">Laboratory: Laboratoire Central Européenne, 1000 Brussels, Belgium</div>"
        }
      }
    }
  ],
  "type": "document",
  "timestamp": "2023-02-09T07:54:36Z"
}
