{
  "resourceType": "Bundle",
  "id": "5d42777e-be5e-4cc8-98dc-0da427726c94",
  "meta": {
    "profile": [
      "http://hl7.eu/fhir/laboratory/StructureDefinition/Bundle-eu-lab"
    ]
  },
  "identifier": {
    "assigner": {
      "display": "HL7 Europe"
    },
    "system": "urn:oid:2.16.840.1.113883.2.51.999",
    "value": "d5b70633-a94a-4dd9-9c40-4fc9910ae7b8"
  },
  "entry": [
    {
      "fullUrl": "urn:uuid:e486ac32-d7d4-40b7-ad17-495a9359bfeb",
      "resource": {
        "resourceType": "Composition",
        "id": "e486ac32-d7d4-40b7-ad17-495a9359bfeb",
        "meta": {
          "profile": [
            "http://hl7.eu/fhir/laboratory/StructureDefinition/Composition-eu-lab"
          ]
        },
        "identifier": {
          "assigner": {
            "display": "HL7 Europe"
          },
          "system": "urn:oid:2.16.840.1.113883.2.51.999",
          "value": "2c85ce23-9413-47d2-99f4-acd625acd447"
        },
        "author": [
          {
            "reference": "urn:uuid:9014fc3a-de53-4d51-9e97-4c2b1eb1e3b6"
          }
        ],
        "category": [
          {
            "coding": [
              {
                "code": "26436-6",
                "system": "http://loinc.org",
                "display": "Laboratory studies (set)"
              }
            ]
          }
        ],
        "type": {
          "coding": [
            {
              "code": "11502-2",
              "system": "http://loinc.org",
              "display": "Laboratory report"
            }
          ],
          "text": "Laboratory Report"
        },
        "section": [
          {
            "code": {
              "coding": [
                {
                  "code": "26436-6",
                  "system": "http://loinc.org",
                  "display": "Laboratory studies (set)"
                }
              ],
              "text": "Laboratory studies"
            },
            "section": [
              {
                "code": {
                  "coding": [
                    {
                      "code": "$18719-5",
                      "system": "http://loinc.org",
                      "display": "Chemistry studies (set)"
                    }
                  ],
                  "text": "Chemistry"
                },
                "entry": [
                  {
                    "reference": "urn:uuid:97ae70cc-b065-43e7-9055-2c289fb11541"
                  },
                  {
                    "reference": "urn:uuid:181b6d9c-7988-47a2-b14c-5d6051b1de04"
                  },
                  {
                    "reference": "urn:uuid:63f3cfa1-16ba-4d3b-9f2b-22b781207bd9"
                  },
                  {
                    "reference": "urn:uuid:349665ce-46f5-4971-bdf2-3815dfc605c0"
                  },
                  {
                    "reference": "urn:uuid:cb5aae60-1e38-4bef-b396-65c042245ba9"
                  },
                  {
                    "reference": "urn:uuid:7d6dd770-ccad-4763-98f9-3c921547520b"
                  },
                  {
                    "reference": "urn:uuid:efcedb00-10a5-40a7-8468-d29e0f785f32"
                  },
                  {
                    "reference": "urn:uuid:141ea206-6fb7-416a-b3a9-dc93c8de1ebd"
                  },
                  {
                    "reference": "urn:uuid:3f9f84af-f6e0-4458-a63d-6cf74a113264"
                  }
                ],
                "text": {
                  "status": "generated",
                  "div": "<div xmlns=\"http://www.w3.org/1999/xhtml\"><h3>Chemistry</h3><table class=\"hl7__eu__lab__report\"><thead><tr><th>Test</th><th>24-AUG-2018</th><th>Reference&#xA0;Range</th><th>Unit</th></tr></thead><tbody><tr><td>Hemoglobin A1c/Hemoglobin.total in Blood</td><td><strong>6.0 H</strong></td><td>4.8 - 5.7</td><td>%</td></tr><tr><td>Glucose [Mass/volume] in Blood</td><td>96.8</td><td>70 - 140</td><td>mg/dL</td></tr><tr><td>Urea nitrogen [Mass/volume] in Blood</td><td>17.1</td><td>7 - 20</td><td>mg/dL</td></tr><tr><td>Creatinine [Mass/volume] in Blood</td><td>1.1</td><td>0.6 - 1.3</td><td>mg/dL</td></tr><tr><td>Calcium [Mass/volume] in Blood</td><td>9.1</td><td>8.5 - 10.5</td><td>mg/dL</td></tr><tr><td>Sodium [Moles/volume] in Blood</td><td>142.2</td><td>135 - 145</td><td>mmol/L</td></tr><tr><td>Potassium [Moles/volume] in Blood</td><td>4.0</td><td>3.5 - 5.1</td><td>mmol/L</td></tr><tr><td>Chloride [Moles/volume] in Blood</td><td>101.4</td><td>98 - 108</td><td>mmol/L</td></tr><tr><td>Carbon dioxide, total [Moles/volume] in Blood</td><td>27.0</td><td>22 - 32</td><td>mmol/L</td></tr></tbody></table></div>"
                },
                "title": "Chemistry"
              }
            ],
            "title": "Laboratory Report"
          },
          {
            "text": {
              "status": "generated",
              "div": "<div xmlns=\"http://www.w3.org/1999/xhtml\"><h3>Annotation</h3><table class=\"hl7__eu__lab__report\"><tr><th>Conclusion and Recommendations based on this report and previous findings known to us</th></tr><tr><td>All measured parameters are within normal limits except for a mildly elevated HbA1c (6.0%), indicating impaired glucose metabolism or possible prediabetes. Renal function, electrolytes, and glucose are normal. Recommend clinical follow-up for glycemic control and monitoring for progression to diabetes.</td></tr></table></div>"
            },
            "code": {
              "coding": [
                {
                  "system": "http://loinc.org",
                  "code": "48767-8",
                  "display": "Annotation comment"
                }
              ]
            },
            "title": "Annotation comment"
          }
        ],
        "status": "final",
        "subject": {
          "reference": "urn:uuid:27d0a4b5-6dcb-4b16-9488-40ea34cda1e6",
          "display": "Leonhard Köhler"
        },
        "date": "2018-08-24T04:48:23Z",
        "title": "Laboratory Report",
        "confidentiality": "N"
      }
    },
    {
      "fullUrl": "urn:uuid:26d3aa83-7dfa-4e3b-9b25-5a73ae3daeac",
      "resource": {
        "resourceType": "DiagnosticReport",
        "id": "26d3aa83-7dfa-4e3b-9b25-5a73ae3daeac",
        "meta": {
          "profile": [
            "http://hl7.eu/fhir/laboratory/StructureDefinition/DiagnosticReport-eu-lab"
          ]
        },
        "identifier": [
          {
            "assigner": {
              "display": "HL7 Europe"
            },
            "system": "urn:oid:2.16.840.1.113883.2.51.999",
            "value": "78aa9e7b-522c-4de8-845b-3e76b6111e55"
          }
        ],
        "extension": [
          {
            "url": "http://hl7.org/fhir/5.0/StructureDefinition/extension-DiagnosticReport.composition",
            "valueReference": {
              "reference": "urn:uuid:2c85ce23-9413-47d2-99f4-acd625acd447"
            }
          }
        ],
        "category": [
          {
            "coding": [
              {
                "code": "26436-6",
                "system": "http://loinc.org",
                "display": "Laboratory studies (set)"
              }
            ]
          }
        ],
        "specimen": [
          {
            "reference": "urn:uuid:c7b5a2b0-34e8-406e-b997-96f3225c9ec5"
          }
        ],
        "result": [
          {
            "reference": "urn:uuid:97ae70cc-b065-43e7-9055-2c289fb11541"
          },
          {
            "reference": "urn:uuid:181b6d9c-7988-47a2-b14c-5d6051b1de04"
          },
          {
            "reference": "urn:uuid:63f3cfa1-16ba-4d3b-9f2b-22b781207bd9"
          },
          {
            "reference": "urn:uuid:349665ce-46f5-4971-bdf2-3815dfc605c0"
          },
          {
            "reference": "urn:uuid:cb5aae60-1e38-4bef-b396-65c042245ba9"
          },
          {
            "reference": "urn:uuid:7d6dd770-ccad-4763-98f9-3c921547520b"
          },
          {
            "reference": "urn:uuid:efcedb00-10a5-40a7-8468-d29e0f785f32"
          },
          {
            "reference": "urn:uuid:141ea206-6fb7-416a-b3a9-dc93c8de1ebd"
          },
          {
            "reference": "urn:uuid:3f9f84af-f6e0-4458-a63d-6cf74a113264"
          }
        ],
        "status": "registered",
        "code": {
          "coding": [
            {
              "code": "11502-2",
              "system": "http://loinc.org",
              "display": "Laboratory report"
            }
          ]
        },
        "subject": {
          "reference": "urn:uuid:27d0a4b5-6dcb-4b16-9488-40ea34cda1e6",
          "display": "Leonhard Köhler"
        }
      }
    },
    {
      "fullUrl": "urn:uuid:27d0a4b5-6dcb-4b16-9488-40ea34cda1e6",
      "resource": {
        "resourceType": "Patient",
        "id": "27d0a4b5-6dcb-4b16-9488-40ea34cda1e6",
        "meta": {
          "security": [
            {
              "system": "http://terminology.hl7.org/CodeSystem/v3-ActReason",
              "code": "HTEST"
            },
            {
              "system": "http://terminology.hl7.org/CodeSystem/v3-ActReason",
              "code": "TRAIN"
            }
          ],
          "tag": [
            {
              "system": "https://synderai.net/fhir/CodeSystem/tags",
              "code": "synthetic",
              "display": "SYNDERAI Synthetic data"
            }
          ],
          "profile": [
            "http://hl7.eu/fhir/base/StructureDefinition/patient-eu-core"
          ]
        },
        "identifier": [
          {
            "type": {
              "coding": [
                {
                  "code": "PT",
                  "system": "http://terminology.hl7.org/CodeSystem/v2-0203"
                }
              ]
            },
            "system": "http://ec.europa.eu/identifier/eci",
            "value": "5321-442678-4"
          },
          {
            "type": {
              "coding": [
                {
                  "code": "MR",
                  "system": "http://terminology.hl7.org/CodeSystem/v2-0203"
                }
              ]
            },
            "system": "http://local.setting.eu/identifier",
            "value": "ffa9f0d8-c016-d46c-e666-000f53715b47"
          }
        ],
        "name": [
          {
            "family": "Köhler"
          },
          {
            "given": [
              "Leonhard"
            ]
          },
          {
            "text": "Leonhard Köhler"
          }
        ],
        "address": [
          {
            "line": [
              "Henckweg 97/34"
            ],
            "use": "home",
            "type": "physical",
            "postalCode": "87629",
            "city": "Füssen",
            "country": "Germany"
          }
        ],
        "telecom": [
          {
            "system": "phone",
            "value": "00028839855"
          }
        ],
        "extension": [
          {
            "url": "http://hl7.org/fhir/StructureDefinition/patient-nationality",
            "valueCodeableConcept": {
              "coding": [
                {
                  "code": "DE",
                  "system": "http://hl7.org/fhir/ValueSet/country"
                }
              ]
            }
          }
        ],
        "text": {
          "status": "generated",
          "div": "<div xmlns=\"http://www.w3.org/1999/xhtml\"><table class=\"hl7__ips\"><tr><td>Leonhard Köhler</td><td>male</td><td>19-Dec-1949</td></tr></table></div>"
        },
        "gender": "male",
        "birthDate": "1949-12-19"
      }
    },
    {
      "fullUrl": "urn:uuid:fae1faea-08d0-4924-83c0-2d48c34dacc2",
      "resource": {
        "resourceType": "ServiceRequest",
        "id": "fae1faea-08d0-4924-83c0-2d48c34dacc2",
        "meta": {
          "profile": [
            "http://hl7.eu/fhir/laboratory/StructureDefinition/ServiceRequest-eu-lab"
          ]
        },
        "identifier": [
          {
            "system": "http://example.org",
            "value": "891cdef8-cafc-4698-b92f-326c884ff3d5"
          }
        ],
        "specimen": [
          {
            "reference": "urn:uuid:c7b5a2b0-34e8-406e-b997-96f3225c9ec5"
          }
        ],
        "reasonCode": [
          {
            "coding": [
              {
                "code": "55822004",
                "system": "http://snomed.info/sct",
                "display": "Hyperlipidemia"
              }
            ]
          },
          {
            "coding": [
              {
                "code": "414545008",
                "system": "http://snomed.info/sct",
                "display": "Ischemic heart disease"
              }
            ]
          },
          {
            "coding": [
              {
                "code": "59621000",
                "system": "http://snomed.info/sct",
                "display": "Essential hypertension"
              }
            ]
          },
          {
            "coding": [
              {
                "code": "239873007",
                "system": "http://snomed.info/sct",
                "display": "Osteoarthritis of knee"
              }
            ]
          },
          {
            "coding": [
              {
                "code": "271737000",
                "system": "http://snomed.info/sct",
                "display": "Anemia"
              }
            ]
          },
          {
            "coding": [
              {
                "code": "15777000",
                "system": "http://snomed.info/sct",
                "display": "Prediabetes"
              }
            ]
          }
        ],
        "status": "active",
        "intent": "order",
        "code": {
          "coding": [
            {
              "code": "108252007",
              "system": "http://snomed.info/sct",
              "display": "Laboratory procedure"
            }
          ]
        },
        "subject": {
          "reference": "urn:uuid:27d0a4b5-6dcb-4b16-9488-40ea34cda1e6",
          "display": "Leonhard Köhler"
        },
        "requester": {
          "reference": "urn:uuid:028a18c8-9ab3-45da-b017-ad923518e3c0"
        }
      }
    },
    {
      "fullUrl": "urn:uuid:028a18c8-9ab3-45da-b017-ad923518e3c0",
      "resource": {
        "resourceType": "PractitionerRole",
        "id": "028a18c8-9ab3-45da-b017-ad923518e3c0",
        "meta": {
          "profile": [
            "http://hl7.eu/fhir/base/StructureDefinition/practitionerRole-eu"
          ]
        },
        "text": {
          "status": "generated",
          "div": "<div xmlns=\"http://www.w3.org/1999/xhtml\">Provider Role Id: 028a18c8-9ab3-45da-b017-ad923518e3c0</div>"
        },
        "organization": {
          "reference": "urn:uuid:7c2acc6f-de8f-4d90-a6f5-e99ce07e76e0"
        }
      }
    },
    {
      "fullUrl": "urn:uuid:7c2acc6f-de8f-4d90-a6f5-e99ce07e76e0",
      "resource": {
        "resourceType": "Organization",
        "id": "7c2acc6f-de8f-4d90-a6f5-e99ce07e76e0",
        "meta": {
          "profile": [
            "http://hl7.eu/fhir/base/StructureDefinition/organization-eu"
          ]
        },
        "identifier": [
          {
            "assigner": {
              "display": "HL7 Europe"
            },
            "system": "urn:oid:2.16.840.1.113883.2.51.999",
            "value": "f23caaf6-6539-44e3-90ab-150aa8e2e5c2"
          }
        ],
        "address": [
          {
            "line": [
              "Feistlestraße 2"
            ],
            "city": "Füssen",
            "postalCode": "87629",
            "country": "Germany"
          }
        ],
        "text": {
          "status": "generated",
          "div": "<div xmlns=\"http://www.w3.org/1999/xhtml\">Provider Organization: hier ist kein Ärztehaus</div>"
        },
        "name": "hier ist kein Ärztehaus"
      }
    },
    {
      "fullUrl": "urn:uuid:c7b5a2b0-34e8-406e-b997-96f3225c9ec5",
      "resource": {
        "resourceType": "Specimen",
        "id": "c7b5a2b0-34e8-406e-b997-96f3225c9ec5",
        "meta": {
          "profile": [
            "http://hl7.eu/fhir/laboratory/StructureDefinition/Specimen-eu-lab"
          ]
        },
        "collection": {
          "collectedDateTime": "2018-08-24"
        },
        "text": {
          "status": "generated",
          "div": "<div xmlns=\"http://www.w3.org/1999/xhtml\"><table class=\"hl7__eu__lab__report\"><tr><th>Specimen</th><th>Collection Date</th></tr><tr><td>Whole blood specimen (specimen)</td><td><span class=\"nb\">24-Aug-2018</span></td></tr></table></div>"
        },
        "type": {
          "coding": [
            {
              "code": "258580003",
              "system": "http://snomed.info/sct",
              "display": "Whole blood specimen (specimen)"
            }
          ]
        }
      }
    },
    {
      "fullUrl": "urn:uuid:97ae70cc-b065-43e7-9055-2c289fb11541",
      "resource": {
        "resourceType": "Observation",
        "id": "97ae70cc-b065-43e7-9055-2c289fb11541",
        "meta": {
          "profile": [
            "http://hl7.eu/fhir/laboratory/StructureDefinition/Observation-resultslab-eu-lab"
          ]
        },
        "performer": [
          {
            "display": "The Central European Lab"
          }
        ],
        "category": [
          {
            "coding": [
              {
                "system": "http://terminology.hl7.org/CodeSystem/observation-category",
                "code": "laboratory"
              }
            ]
          }
        ],
        "code": {
          "coding": [
            {
              "code": "4548-4",
              "system": "http://loinc.org",
              "display": "Hemoglobin A1c/Hemoglobin.total in Blood"
            }
          ],
          "text": "Hemoglobin A1c/Hemoglobin.total in Blood"
        },
        "valueQuantity": {
          "system": "http://unitsofmeasure.org",
          "value": 6,
          "unit": "%",
          "code": "%"
        },
        "referenceRange": [
          {
            "low": {
              "value": 4.8,
              "code": "%",
              "system": "http://unitsofmeasure.org"
            }
          },
          {
            "high": {
              "value": 5.7,
              "code": "%",
              "system": "http://unitsofmeasure.org"
            }
          }
        ],
        "interpretation": [
          {
            "coding": [
              {
                "code": "H",
                "system": "http://terminology.hl7.org/CodeSystem/v3-ObservationInterpretation",
                "display": "High"
              }
            ]
          }
        ],
        "text": {
          "status": "generated",
          "div": "<div xmlns=\"http://www.w3.org/1999/xhtml\"><table class=\"hl7__eu__lab__report\"><tr><th>Test</th><th>24-Aug-2018</th><th>Reference&#xA0;Range</th><th>Unit</th></tr><tr><td>Hemoglobin A1c/Hemoglobin.total in Blood</td><td>6.0</td><td>4.8 - 5.7</td><td>H</td><td>%</td></tr></table></div>"
        },
        "status": "final",
        "subject": {
          "reference": "urn:uuid:27d0a4b5-6dcb-4b16-9488-40ea34cda1e6",
          "display": "Leonhard Köhler"
        },
        "effectiveDateTime": "2018-08-24T02:48:23Z",
        "specimen": {
          "reference": "urn:uuid:c7b5a2b0-34e8-406e-b997-96f3225c9ec5"
        }
      }
    },
    {
      "fullUrl": "urn:uuid:181b6d9c-7988-47a2-b14c-5d6051b1de04",
      "resource": {
        "resourceType": "Observation",
        "id": "181b6d9c-7988-47a2-b14c-5d6051b1de04",
        "meta": {
          "profile": [
            "http://hl7.eu/fhir/laboratory/StructureDefinition/Observation-resultslab-eu-lab"
          ]
        },
        "performer": [
          {
            "display": "The Central European Lab"
          }
        ],
        "category": [
          {
            "coding": [
              {
                "system": "http://terminology.hl7.org/CodeSystem/observation-category",
                "code": "laboratory"
              }
            ]
          }
        ],
        "code": {
          "coding": [
            {
              "code": "2339-0",
              "system": "http://loinc.org",
              "display": "Glucose [Mass/volume] in Blood"
            }
          ],
          "text": "Glucose [Mass/volume] in Blood"
        },
        "valueQuantity": {
          "system": "http://unitsofmeasure.org",
          "value": 96.8,
          "unit": "mg/dL",
          "code": "mg/dL"
        },
        "referenceRange": [
          {
            "low": {
              "value": 70,
              "code": "mg/dL",
              "system": "http://unitsofmeasure.org"
            }
          },
          {
            "high": {
              "value": 140,
              "code": "mg/dL",
              "system": "http://unitsofmeasure.org"
            }
          }
        ],
        "text": {
          "status": "generated",
          "div": "<div xmlns=\"http://www.w3.org/1999/xhtml\"><table class=\"hl7__eu__lab__report\"><tr><th>Test</th><th>24-Aug-2018</th><th>Reference&#xA0;Range</th><th>Unit</th></tr><tr><td>Glucose [Mass/volume] in Blood</td><td>96.8</td><td>70 - 140</td><td></td><td>mg/dL</td></tr></table></div>"
        },
        "status": "final",
        "subject": {
          "reference": "urn:uuid:27d0a4b5-6dcb-4b16-9488-40ea34cda1e6",
          "display": "Leonhard Köhler"
        },
        "effectiveDateTime": "2018-08-24T02:48:23Z",
        "specimen": {
          "reference": "urn:uuid:c7b5a2b0-34e8-406e-b997-96f3225c9ec5"
        }
      }
    },
    {
      "fullUrl": "urn:uuid:63f3cfa1-16ba-4d3b-9f2b-22b781207bd9",
      "resource": {
        "resourceType": "Observation",
        "id": "63f3cfa1-16ba-4d3b-9f2b-22b781207bd9",
        "meta": {
          "profile": [
            "http://hl7.eu/fhir/laboratory/StructureDefinition/Observation-resultslab-eu-lab"
          ]
        },
        "performer": [
          {
            "display": "The Central European Lab"
          }
        ],
        "category": [
          {
            "coding": [
              {
                "system": "http://terminology.hl7.org/CodeSystem/observation-category",
                "code": "laboratory"
              }
            ]
          }
        ],
        "code": {
          "coding": [
            {
              "code": "6299-2",
              "system": "http://loinc.org",
              "display": "Urea nitrogen [Mass/volume] in Blood"
            }
          ],
          "text": "Urea nitrogen [Mass/volume] in Blood"
        },
        "valueQuantity": {
          "system": "http://unitsofmeasure.org",
          "value": 17.1,
          "unit": "mg/dL",
          "code": "mg/dL"
        },
        "referenceRange": [
          {
            "low": {
              "value": 7,
              "code": "mg/dL",
              "system": "http://unitsofmeasure.org"
            }
          },
          {
            "high": {
              "value": 20,
              "code": "mg/dL",
              "system": "http://unitsofmeasure.org"
            }
          }
        ],
        "text": {
          "status": "generated",
          "div": "<div xmlns=\"http://www.w3.org/1999/xhtml\"><table class=\"hl7__eu__lab__report\"><tr><th>Test</th><th>24-Aug-2018</th><th>Reference&#xA0;Range</th><th>Unit</th></tr><tr><td>Urea nitrogen [Mass/volume] in Blood</td><td>17.1</td><td>7 - 20</td><td></td><td>mg/dL</td></tr></table></div>"
        },
        "status": "final",
        "subject": {
          "reference": "urn:uuid:27d0a4b5-6dcb-4b16-9488-40ea34cda1e6",
          "display": "Leonhard Köhler"
        },
        "effectiveDateTime": "2018-08-24T02:48:23Z",
        "specimen": {
          "reference": "urn:uuid:c7b5a2b0-34e8-406e-b997-96f3225c9ec5"
        }
      }
    },
    {
      "fullUrl": "urn:uuid:349665ce-46f5-4971-bdf2-3815dfc605c0",
      "resource": {
        "resourceType": "Observation",
        "id": "349665ce-46f5-4971-bdf2-3815dfc605c0",
        "meta": {
          "profile": [
            "http://hl7.eu/fhir/laboratory/StructureDefinition/Observation-resultslab-eu-lab"
          ]
        },
        "performer": [
          {
            "display": "The Central European Lab"
          }
        ],
        "category": [
          {
            "coding": [
              {
                "system": "http://terminology.hl7.org/CodeSystem/observation-category",
                "code": "laboratory"
              }
            ]
          }
        ],
        "code": {
          "coding": [
            {
              "code": "38483-4",
              "system": "http://loinc.org",
              "display": "Creatinine [Mass/volume] in Blood"
            }
          ],
          "text": "Creatinine [Mass/volume] in Blood"
        },
        "valueQuantity": {
          "system": "http://unitsofmeasure.org",
          "value": 1.1,
          "unit": "mg/dL",
          "code": "mg/dL"
        },
        "referenceRange": [
          {
            "low": {
              "value": 0.6,
              "code": "mg/dL",
              "system": "http://unitsofmeasure.org"
            }
          },
          {
            "high": {
              "value": 1.3,
              "code": "mg/dL",
              "system": "http://unitsofmeasure.org"
            }
          }
        ],
        "text": {
          "status": "generated",
          "div": "<div xmlns=\"http://www.w3.org/1999/xhtml\"><table class=\"hl7__eu__lab__report\"><tr><th>Test</th><th>24-Aug-2018</th><th>Reference&#xA0;Range</th><th>Unit</th></tr><tr><td>Creatinine [Mass/volume] in Blood</td><td>1.1</td><td>0.6 - 1.3</td><td></td><td>mg/dL</td></tr></table></div>"
        },
        "status": "final",
        "subject": {
          "reference": "urn:uuid:27d0a4b5-6dcb-4b16-9488-40ea34cda1e6",
          "display": "Leonhard Köhler"
        },
        "effectiveDateTime": "2018-08-24T02:48:23Z",
        "specimen": {
          "reference": "urn:uuid:c7b5a2b0-34e8-406e-b997-96f3225c9ec5"
        }
      }
    },
    {
      "fullUrl": "urn:uuid:cb5aae60-1e38-4bef-b396-65c042245ba9",
      "resource": {
        "resourceType": "Observation",
        "id": "cb5aae60-1e38-4bef-b396-65c042245ba9",
        "meta": {
          "profile": [
            "http://hl7.eu/fhir/laboratory/StructureDefinition/Observation-resultslab-eu-lab"
          ]
        },
        "performer": [
          {
            "display": "The Central European Lab"
          }
        ],
        "category": [
          {
            "coding": [
              {
                "system": "http://terminology.hl7.org/CodeSystem/observation-category",
                "code": "laboratory"
              }
            ]
          }
        ],
        "code": {
          "coding": [
            {
              "code": "49765-1",
              "system": "http://loinc.org",
              "display": "Calcium [Mass/volume] in Blood"
            }
          ],
          "text": "Calcium [Mass/volume] in Blood"
        },
        "valueQuantity": {
          "system": "http://unitsofmeasure.org",
          "value": 9.1,
          "unit": "mg/dL",
          "code": "mg/dL"
        },
        "referenceRange": [
          {
            "low": {
              "value": 8.5,
              "code": "mg/dL",
              "system": "http://unitsofmeasure.org"
            }
          },
          {
            "high": {
              "value": 10.5,
              "code": "mg/dL",
              "system": "http://unitsofmeasure.org"
            }
          }
        ],
        "text": {
          "status": "generated",
          "div": "<div xmlns=\"http://www.w3.org/1999/xhtml\"><table class=\"hl7__eu__lab__report\"><tr><th>Test</th><th>24-Aug-2018</th><th>Reference&#xA0;Range</th><th>Unit</th></tr><tr><td>Calcium [Mass/volume] in Blood</td><td>9.1</td><td>8.5 - 10.5</td><td></td><td>mg/dL</td></tr></table></div>"
        },
        "status": "final",
        "subject": {
          "reference": "urn:uuid:27d0a4b5-6dcb-4b16-9488-40ea34cda1e6",
          "display": "Leonhard Köhler"
        },
        "effectiveDateTime": "2018-08-24T02:48:23Z",
        "specimen": {
          "reference": "urn:uuid:c7b5a2b0-34e8-406e-b997-96f3225c9ec5"
        }
      }
    },
    {
      "fullUrl": "urn:uuid:7d6dd770-ccad-4763-98f9-3c921547520b",
      "resource": {
        "resourceType": "Observation",
        "id": "7d6dd770-ccad-4763-98f9-3c921547520b",
        "meta": {
          "profile": [
            "http://hl7.eu/fhir/laboratory/StructureDefinition/Observation-resultslab-eu-lab"
          ]
        },
        "performer": [
          {
            "display": "The Central European Lab"
          }
        ],
        "category": [
          {
            "coding": [
              {
                "system": "http://terminology.hl7.org/CodeSystem/observation-category",
                "code": "laboratory"
              }
            ]
          }
        ],
        "code": {
          "coding": [
            {
              "code": "2947-0",
              "system": "http://loinc.org",
              "display": "Sodium [Moles/volume] in Blood"
            }
          ],
          "text": "Sodium [Moles/volume] in Blood"
        },
        "valueQuantity": {
          "system": "http://unitsofmeasure.org",
          "value": 142.2,
          "unit": "mmol/L",
          "code": "mmol/L"
        },
        "referenceRange": [
          {
            "low": {
              "value": 135,
              "code": "mmol/L",
              "system": "http://unitsofmeasure.org"
            }
          },
          {
            "high": {
              "value": 145,
              "code": "mmol/L",
              "system": "http://unitsofmeasure.org"
            }
          }
        ],
        "text": {
          "status": "generated",
          "div": "<div xmlns=\"http://www.w3.org/1999/xhtml\"><table class=\"hl7__eu__lab__report\"><tr><th>Test</th><th>24-Aug-2018</th><th>Reference&#xA0;Range</th><th>Unit</th></tr><tr><td>Sodium [Moles/volume] in Blood</td><td>142.2</td><td>135 - 145</td><td></td><td>mmol/L</td></tr></table></div>"
        },
        "status": "final",
        "subject": {
          "reference": "urn:uuid:27d0a4b5-6dcb-4b16-9488-40ea34cda1e6",
          "display": "Leonhard Köhler"
        },
        "effectiveDateTime": "2018-08-24T02:48:23Z",
        "specimen": {
          "reference": "urn:uuid:c7b5a2b0-34e8-406e-b997-96f3225c9ec5"
        }
      }
    },
    {
      "fullUrl": "urn:uuid:efcedb00-10a5-40a7-8468-d29e0f785f32",
      "resource": {
        "resourceType": "Observation",
        "id": "efcedb00-10a5-40a7-8468-d29e0f785f32",
        "meta": {
          "profile": [
            "http://hl7.eu/fhir/laboratory/StructureDefinition/Observation-resultslab-eu-lab"
          ]
        },
        "performer": [
          {
            "display": "The Central European Lab"
          }
        ],
        "category": [
          {
            "coding": [
              {
                "system": "http://terminology.hl7.org/CodeSystem/observation-category",
                "code": "laboratory"
              }
            ]
          }
        ],
        "code": {
          "coding": [
            {
              "code": "6298-4",
              "system": "http://loinc.org",
              "display": "Potassium [Moles/volume] in Blood"
            }
          ],
          "text": "Potassium [Moles/volume] in Blood"
        },
        "valueQuantity": {
          "system": "http://unitsofmeasure.org",
          "value": 4,
          "unit": "mmol/L",
          "code": "mmol/L"
        },
        "referenceRange": [
          {
            "low": {
              "value": 3.5,
              "code": "mmol/L",
              "system": "http://unitsofmeasure.org"
            }
          },
          {
            "high": {
              "value": 5.1,
              "code": "mmol/L",
              "system": "http://unitsofmeasure.org"
            }
          }
        ],
        "text": {
          "status": "generated",
          "div": "<div xmlns=\"http://www.w3.org/1999/xhtml\"><table class=\"hl7__eu__lab__report\"><tr><th>Test</th><th>24-Aug-2018</th><th>Reference&#xA0;Range</th><th>Unit</th></tr><tr><td>Potassium [Moles/volume] in Blood</td><td>4.0</td><td>3.5 - 5.1</td><td></td><td>mmol/L</td></tr></table></div>"
        },
        "status": "final",
        "subject": {
          "reference": "urn:uuid:27d0a4b5-6dcb-4b16-9488-40ea34cda1e6",
          "display": "Leonhard Köhler"
        },
        "effectiveDateTime": "2018-08-24T02:48:23Z",
        "specimen": {
          "reference": "urn:uuid:c7b5a2b0-34e8-406e-b997-96f3225c9ec5"
        }
      }
    },
    {
      "fullUrl": "urn:uuid:141ea206-6fb7-416a-b3a9-dc93c8de1ebd",
      "resource": {
        "resourceType": "Observation",
        "id": "141ea206-6fb7-416a-b3a9-dc93c8de1ebd",
        "meta": {
          "profile": [
            "http://hl7.eu/fhir/laboratory/StructureDefinition/Observation-resultslab-eu-lab"
          ]
        },
        "performer": [
          {
            "display": "The Central European Lab"
          }
        ],
        "category": [
          {
            "coding": [
              {
                "system": "http://terminology.hl7.org/CodeSystem/observation-category",
                "code": "laboratory"
              }
            ]
          }
        ],
        "code": {
          "coding": [
            {
              "code": "2069-3",
              "system": "http://loinc.org",
              "display": "Chloride [Moles/volume] in Blood"
            }
          ],
          "text": "Chloride [Moles/volume] in Blood"
        },
        "valueQuantity": {
          "system": "http://unitsofmeasure.org",
          "value": 101.4,
          "unit": "mmol/L",
          "code": "mmol/L"
        },
        "referenceRange": [
          {
            "low": {
              "value": 98,
              "code": "mmol/L",
              "system": "http://unitsofmeasure.org"
            }
          },
          {
            "high": {
              "value": 108,
              "code": "mmol/L",
              "system": "http://unitsofmeasure.org"
            }
          }
        ],
        "text": {
          "status": "generated",
          "div": "<div xmlns=\"http://www.w3.org/1999/xhtml\"><table class=\"hl7__eu__lab__report\"><tr><th>Test</th><th>24-Aug-2018</th><th>Reference&#xA0;Range</th><th>Unit</th></tr><tr><td>Chloride [Moles/volume] in Blood</td><td>101.4</td><td>98 - 108</td><td></td><td>mmol/L</td></tr></table></div>"
        },
        "status": "final",
        "subject": {
          "reference": "urn:uuid:27d0a4b5-6dcb-4b16-9488-40ea34cda1e6",
          "display": "Leonhard Köhler"
        },
        "effectiveDateTime": "2018-08-24T02:48:23Z",
        "specimen": {
          "reference": "urn:uuid:c7b5a2b0-34e8-406e-b997-96f3225c9ec5"
        }
      }
    },
    {
      "fullUrl": "urn:uuid:3f9f84af-f6e0-4458-a63d-6cf74a113264",
      "resource": {
        "resourceType": "Observation",
        "id": "3f9f84af-f6e0-4458-a63d-6cf74a113264",
        "meta": {
          "profile": [
            "http://hl7.eu/fhir/laboratory/StructureDefinition/Observation-resultslab-eu-lab"
          ]
        },
        "performer": [
          {
            "display": "The Central European Lab"
          }
        ],
        "category": [
          {
            "coding": [
              {
                "system": "http://terminology.hl7.org/CodeSystem/observation-category",
                "code": "laboratory"
              }
            ]
          }
        ],
        "code": {
          "coding": [
            {
              "code": "20565-8",
              "system": "http://loinc.org",
              "display": "Carbon dioxide, total [Moles/volume] in Blood"
            }
          ],
          "text": "Carbon dioxide, total [Moles/volume] in Blood"
        },
        "valueQuantity": {
          "system": "http://unitsofmeasure.org",
          "value": 27,
          "unit": "mmol/L",
          "code": "mmol/L"
        },
        "referenceRange": [
          {
            "low": {
              "value": 22,
              "code": "mmol/L",
              "system": "http://unitsofmeasure.org"
            }
          },
          {
            "high": {
              "value": 32,
              "code": "mmol/L",
              "system": "http://unitsofmeasure.org"
            }
          }
        ],
        "text": {
          "status": "generated",
          "div": "<div xmlns=\"http://www.w3.org/1999/xhtml\"><table class=\"hl7__eu__lab__report\"><tr><th>Test</th><th>24-Aug-2018</th><th>Reference&#xA0;Range</th><th>Unit</th></tr><tr><td>Carbon dioxide, total [Moles/volume] in Blood</td><td>27.0</td><td>22 - 32</td><td></td><td>mmol/L</td></tr></table></div>"
        },
        "status": "final",
        "subject": {
          "reference": "urn:uuid:27d0a4b5-6dcb-4b16-9488-40ea34cda1e6",
          "display": "Leonhard Köhler"
        },
        "effectiveDateTime": "2018-08-24T02:48:23Z",
        "specimen": {
          "reference": "urn:uuid:c7b5a2b0-34e8-406e-b997-96f3225c9ec5"
        }
      }
    },
    {
      "fullUrl": "urn:uuid:48582183-b376-4e5a-acb2-4db9a3f42b10",
      "resource": {
        "resourceType": "Device",
        "id": "48582183-b376-4e5a-acb2-4db9a3f42b10",
        "deviceName": [
          {
            "name": "SYNDERAI Synthetic Generator",
            "type": "manufacturer-name"
          }
        ],
        "version": [
          {
            "value": "5.0"
          }
        ],
        "text": {
          "status": "generated",
          "div": "<div xmlns=\"http://www.w3.org/1999/xhtml\">SYNDERAI Synthetic Generator v5.0</div>"
        },
        "status": "active\"",
        "distinctIdentifier": "synderai-generator-50",
        "manufacturer": "SYNDERAI Project"
      }
    },
    {
      "fullUrl": "urn:uuid:97a7ec2a-899d-46bd-a2ac-0ac118a9beed",
      "resource": {
        "resourceType": "Provenance",
        "id": "97a7ec2a-899d-46bd-a2ac-0ac118a9beed",
        "target": [
          {
            "reference": "Patient/27d0a4b5-6dcb-4b16-9488-40ea34cda1e6"
          },
          {
            "reference": "Bundle/5d42777e-be5e-4cc8-98dc-0da427726c94"
          },
          {
            "reference": "Composition/e486ac32-d7d4-40b7-ad17-495a9359bfeb"
          },
          {
            "reference": "PractitionerRole/9014fc3a-de53-4d51-9e97-4c2b1eb1e3b6"
          },
          {
            "reference": "Practitioner/a0dd0e23-1e73-4975-ae22-681bbab9953f"
          },
          {
            "reference": "PractitionerRole/028a18c8-9ab3-45da-b017-ad923518e3c0"
          },
          {
            "reference": "Organization/7c2acc6f-de8f-4d90-a6f5-e99ce07e76e0"
          }
        ],
        "activity": {
          "text": "Synthetic Example Data Generation"
        },
        "policy": [
          "https://synderai.net/synderai-synthetic-data-policy"
        ],
        "agent": [
          {
            "type": {
              "text": "author"
            },
            "who": {
              "reference": "Device/48582183-b376-4e5a-acb2-4db9a3f42b10"
            }
          }
        ],
        "reason": [
          {
            "text": "Interoperability Testing and Training (non-clinical use)"
          }
        ],
        "text": {
          "status": "generated",
          "div": "<div xmlns=\"http://www.w3.org/1999/xhtml\">Provenance for SYNDERAI Synthetic Example Data Resource</div>"
        },
        "recorded": "2018-08-24T04:48:23Z"
      }
    },
    {
      "fullUrl": "urn:uuid:9014fc3a-de53-4d51-9e97-4c2b1eb1e3b6",
      "resource": {
        "resourceType": "PractitionerRole",
        "id": "9014fc3a-de53-4d51-9e97-4c2b1eb1e3b6",
        "meta": {
          "profile": [
            "http://hl7.eu/fhir/base/StructureDefinition/practitionerRole-eu"
          ]
        },
        "text": {
          "status": "generated",
          "div": "<div xmlns=\"http://www.w3.org/1999/xhtml\">Laboratory Role Id: 9014fc3a-de53-4d51-9e97-4c2b1eb1e3b6</div>"
        },
        "practitioner": {
          "reference": "urn:uuid:a0dd0e23-1e73-4975-ae22-681bbab9953f"
        }
      }
    },
    {
      "fullUrl": "urn:uuid:a0dd0e23-1e73-4975-ae22-681bbab9953f",
      "resource": {
        "resourceType": "Practitioner",
        "id": "a0dd0e23-1e73-4975-ae22-681bbab9953f",
        "meta": {
          "profile": [
            "http://hl7.eu/fhir/base/StructureDefinition/practitioner-eu"
          ]
        },
        "identifier": [
          {
            "assigner": {
              "display": "HL7 Europe"
            },
            "system": "urn:oid:2.16.840.1.113883.2.51.999",
            "value": "8d7dcd42-cbc0-46b5-b750-d0e5d169a56f"
          }
        ],
        "name": [
          {
            "prefix": [
              "dr"
            ],
            "given": [
              "Ex"
            ],
            "family": "Ample"
          }
        ],
        "address": [
          {
            "line": [
              "Laboratoire Central Européenne",
              "Boulevard du Jardin Botanique 32"
            ],
            "postalCode": "1000",
            "city": "Brussels",
            "country": "Belgium"
          }
        ],
        "text": {
          "status": "generated",
          "div": "<div xmlns=\"http://www.w3.org/1999/xhtml\">Laboratory: Laboratoire Central Européenne, 1000 Brussels, Belgium</div>"
        }
      }
    }
  ],
  "type": "document",
  "timestamp": "2018-08-24T04:48:23Z"
}
