{
  "resourceType": "Bundle",
  "id": "f5f7c8bf-df87-417c-af8e-e1283fc05b09",
  "meta": {
    "profile": [
      "http://hl7.eu/fhir/laboratory/StructureDefinition/Bundle-eu-lab"
    ]
  },
  "identifier": {
    "assigner": {
      "display": "HL7 Europe"
    },
    "system": "urn:oid:2.16.840.1.113883.2.51.999",
    "value": "494ae8e1-99a7-45d6-916f-46727940698f"
  },
  "entry": [
    {
      "fullUrl": "urn:uuid:ef14b3ea-9179-4357-80fe-3ce7a2910255",
      "resource": {
        "resourceType": "Composition",
        "id": "ef14b3ea-9179-4357-80fe-3ce7a2910255",
        "meta": {
          "profile": [
            "http://hl7.eu/fhir/laboratory/StructureDefinition/Composition-eu-lab"
          ]
        },
        "identifier": {
          "assigner": {
            "display": "HL7 Europe"
          },
          "system": "urn:oid:2.16.840.1.113883.2.51.999",
          "value": "bda9c1b2-0bbd-4beb-b5df-cfb911788523"
        },
        "author": [
          {
            "reference": "urn:uuid:9fa80c73-b27e-43e2-becd-fe2e39bf92b7"
          }
        ],
        "category": [
          {
            "coding": [
              {
                "code": "26436-6",
                "system": "http://loinc.org",
                "display": "Laboratory studies (set)"
              }
            ]
          }
        ],
        "type": {
          "coding": [
            {
              "code": "11502-2",
              "system": "http://loinc.org",
              "display": "Laboratory report"
            }
          ],
          "text": "Laboratory Report"
        },
        "section": [
          {
            "code": {
              "coding": [
                {
                  "code": "26436-6",
                  "system": "http://loinc.org",
                  "display": "Laboratory studies (set)"
                }
              ],
              "text": "Laboratory studies"
            },
            "section": [
              {
                "code": {
                  "coding": [
                    {
                      "code": "$18719-5",
                      "system": "http://loinc.org",
                      "display": "Chemistry studies (set)"
                    }
                  ],
                  "text": "Chemistry"
                },
                "entry": [
                  {
                    "reference": "urn:uuid:a543ff67-0d29-471f-8e53-251d90687795"
                  },
                  {
                    "reference": "urn:uuid:45b1d646-17ba-4443-88d1-01fee9556baa"
                  },
                  {
                    "reference": "urn:uuid:9878e3eb-a0c5-41f7-8380-41050ed744b5"
                  },
                  {
                    "reference": "urn:uuid:c9d66dcc-39c0-441b-ab2a-0579b85eabe7"
                  },
                  {
                    "reference": "urn:uuid:3029ebf3-8bde-4048-8ffb-413bc6d3b404"
                  },
                  {
                    "reference": "urn:uuid:647671ab-ebf2-45f2-a3f9-c8ab9519ade0"
                  },
                  {
                    "reference": "urn:uuid:e8428c05-ff8d-44f6-aa52-a37ad0ec9780"
                  },
                  {
                    "reference": "urn:uuid:5b404f11-5dd9-41bb-b8f9-97d3da19a77d"
                  },
                  {
                    "reference": "urn:uuid:d57aa5db-ba53-475a-9e05-923ee415a688"
                  },
                  {
                    "reference": "urn:uuid:716dc778-b616-47c8-9974-8f5b09e9c830"
                  },
                  {
                    "reference": "urn:uuid:c609e73a-56a3-4544-95cf-99a08bc27be4"
                  },
                  {
                    "reference": "urn:uuid:80d48cb9-1f35-4a4e-808a-069a03ea1c1a"
                  },
                  {
                    "reference": "urn:uuid:02fd4143-48e2-483c-be59-c5d34e4364c6"
                  },
                  {
                    "reference": "urn:uuid:88aa586c-ef45-491b-9d5a-02583c0a306b"
                  },
                  {
                    "reference": "urn:uuid:1e89be5b-fce0-4617-ad68-a2fb4b4c8a71"
                  },
                  {
                    "reference": "urn:uuid:2edf9c5b-3bc4-40c5-848b-f8c8a4bcc4f4"
                  },
                  {
                    "reference": "urn:uuid:900970aa-b88c-4e85-8e17-34ab0b3080a2"
                  },
                  {
                    "reference": "urn:uuid:cb0ea574-b92b-4461-a73c-dfb0964354d0"
                  }
                ],
                "text": {
                  "status": "generated",
                  "div": "<div xmlns=\"http://www.w3.org/1999/xhtml\"><h3>Chemistry</h3><table class=\"hl7__eu__lab__report\"><thead><tr><th>Test</th><th>08-JUN-2016</th><th>Reference&#xA0;Range</th><th>Unit</th></tr></thead><tbody><tr><td>Glucose [Mass/volume] in Serum or Plasma</td><td>99.4</td><td>70 - 140</td><td>mg/dL</td></tr><tr><td>Urea nitrogen [Mass/volume] in Serum or Plasma</td><td>15.4</td><td>7 - 20</td><td>mg/dL</td></tr><tr><td>Creatinine [Mass/volume] in Serum or Plasma</td><td><strong>2.1 H</strong></td><td>0.9 - 1.3</td><td>mg/dL</td></tr><tr><td>Calcium [Mass/volume] in Serum or Plasma</td><td>10.1</td><td>8.5 - 10.5</td><td>mg/dL</td></tr><tr><td>Sodium [Moles/volume] in Serum or Plasma</td><td>137.0</td><td>135 - 145</td><td>mmol/L</td></tr><tr><td>Potassium [Moles/volume] in Serum or Plasma</td><td>4.0</td><td>3.5 - 5</td><td>mmol/L</td></tr><tr><td>Chloride [Moles/volume] in Serum or Plasma</td><td>107.1</td><td>98 - 108</td><td>mmol/L</td></tr><tr><td>Carbon dioxide, total [Moles/volume] in Serum or Plasma</td><td>22.3</td><td>22 - 29</td><td>mmol/L</td></tr><tr><td>Ketones [Presence] in Urine by Test strip</td><td>Urine ketone test = +</td><td></td><td></td></tr><tr><td>Hemoglobin A1c/Hemoglobin.total in Blood</td><td><strong>2.9 L</strong></td><td>4.3 - 6.4</td><td>%</td></tr><tr><td>Glucose [Mass/volume] in Blood</td><td>99.4</td><td>70 - 140</td><td>mg/dL</td></tr><tr><td>Urea nitrogen [Mass/volume] in Blood</td><td>15.4</td><td>7 - 20</td><td>mg/dL</td></tr><tr><td>Creatinine [Mass/volume] in Blood</td><td><strong>2.4 H</strong></td><td>0.6 - 1.3</td><td>mg/dL</td></tr><tr><td>Calcium [Mass/volume] in Blood</td><td>10.1</td><td>8.5 - 10.5</td><td>mg/dL</td></tr><tr><td>Sodium [Moles/volume] in Blood</td><td>137.0</td><td>135 - 145</td><td>mmol/L</td></tr><tr><td>Potassium [Moles/volume] in Blood</td><td>4.0</td><td>3.5 - 5.3</td><td>mmol/L</td></tr><tr><td>Chloride [Moles/volume] in Blood</td><td>107.1</td><td>98 - 110</td><td>mmol/L</td></tr><tr><td>Carbon dioxide, total [Moles/volume] in Blood</td><td>22.3</td><td>22 - 29</td><td>mmol/L</td></tr></tbody></table></div>"
                },
                "title": "Chemistry"
              },
              {
                "code": {
                  "coding": [
                    {
                      "code": "$18729-4",
                      "system": "http://loinc.org",
                      "display": "Urinalysis studies (set)"
                    }
                  ],
                  "text": "Urinalysis"
                },
                "entry": [
                  {
                    "reference": "urn:uuid:d6151589-b949-4858-862e-d75e5f08b974"
                  },
                  {
                    "reference": "urn:uuid:dc12b9ae-dba3-4bf6-bd80-0143b6af6192"
                  },
                  {
                    "reference": "urn:uuid:b35e6285-b08b-49d8-acbf-49cec6ae16a2"
                  },
                  {
                    "reference": "urn:uuid:16472612-cf97-4ce5-a7d3-ebe59d046a6e"
                  },
                  {
                    "reference": "urn:uuid:c29826ca-90e1-4923-b30a-f4586755600c"
                  },
                  {
                    "reference": "urn:uuid:f82f919e-c1e6-4c1a-b2c4-28a468c3f9a7"
                  },
                  {
                    "reference": "urn:uuid:6cc41376-87ca-4d6a-b2b8-677efd89513a"
                  },
                  {
                    "reference": "urn:uuid:5e4a7814-6d30-41f9-bb0b-be5686654462"
                  },
                  {
                    "reference": "urn:uuid:dad92b31-80a7-4a35-b6ed-9dc9edcd8d26"
                  },
                  {
                    "reference": "urn:uuid:7cf0592b-9373-4979-897d-8510451c6860"
                  },
                  {
                    "reference": "urn:uuid:fc4f7a3f-7e49-477e-ace8-11a341a642a5"
                  },
                  {
                    "reference": "urn:uuid:04182346-63d4-4afc-a93b-f2967697351a"
                  }
                ],
                "text": {
                  "status": "generated",
                  "div": "<div xmlns=\"http://www.w3.org/1999/xhtml\"><h3>Urinalysis</h3><table class=\"hl7__eu__lab__report\"><thead><tr><th>Test</th><th>08-JUN-2016</th><th>Reference&#xA0;Range</th><th>Unit</th></tr></thead><tbody><tr><td>Glucose [Mass/volume] in Urine by Test strip</td><td><strong>1.5 H</strong></td><td>0 - 0.8</td><td>mg/dL</td></tr><tr><td>Glucose [Presence] in Urine by Test strip</td><td>++</td><td></td><td></td></tr><tr><td>Bilirubin.total [Mass/volume] in Urine by Test strip</td><td>0.6</td><td>0.2 - 1</td><td>mg/dL</td></tr><tr><td>Bilirubin.total [Presence] in Urine by Test strip</td><td>Finding of bilirubin in urine</td><td></td><td></td></tr><tr><td>Ketones [Mass/volume] in Urine by Test strip</td><td><strong>5.9 H</strong></td><td>0 - 5</td><td>mg/dL</td></tr><tr><td>Specific gravity of Urine by Test strip</td><td><strong>1.0 L</strong></td><td>1.005 - 1.03</td><td>{nominal}</td></tr><tr><td>pH of Urine by Test strip</td><td>6.9</td><td>4.6 - 7</td><td>pH</td></tr><tr><td>Protein [Mass/volume] in Urine by Test strip</td><td><strong>298.3 H</strong></td><td>0 - 150</td><td>mg/dL</td></tr><tr><td>Protein [Presence] in Urine by Test strip</td><td>Urine protein test = ++</td><td></td><td></td></tr><tr><td>Nitrite [Presence] in Urine by Test strip</td><td>Urine nitrite negative</td><td></td><td></td></tr><tr><td>Hemoglobin [Presence] in Urine by Test strip</td><td>Urine blood test = negative</td><td></td><td></td></tr><tr><td>Leukocyte esterase [Presence] in Urine by Test strip</td><td>Urine leukocyte test negative</td><td></td><td></td></tr></tbody></table></div>"
                },
                "title": "Urinalysis"
              },
              {
                "code": {
                  "coding": [
                    {
                      "code": "$LP7846-1",
                      "system": "http://loinc.org",
                      "display": "Specimen information"
                    }
                  ],
                  "text": "Specimen information"
                },
                "entry": [
                  {
                    "reference": "urn:uuid:cf8a5042-8873-4b10-a388-4994b6b11936"
                  },
                  {
                    "reference": "urn:uuid:c9666db8-30a0-4b21-8ab6-47242d22be68"
                  },
                  {
                    "reference": "urn:uuid:d50a8d7d-a8db-4f46-a652-b46853fd071d"
                  },
                  {
                    "reference": "urn:uuid:7cc78ac0-6d2f-4ec0-92f1-48f65b229e86"
                  }
                ],
                "text": {
                  "status": "generated",
                  "div": "<div xmlns=\"http://www.w3.org/1999/xhtml\"><h3>Specimen information</h3><table class=\"hl7__eu__lab__report\"><thead><tr><th>Test</th><th>08-JUN-2016</th><th>Specimen</th><th></th></tr></thead><tbody><tr><td>Appearance of Urine</td><td>Cloudy urine</td><td>Urine</td><td></td></tr><tr><td>Odor of Urine</td><td>Urine smell ammoniacal</td><td>Urine</td><td></td></tr><tr><td>Clarity of Urine</td><td>Translucent</td><td>Urine</td><td></td></tr><tr><td>Color of Urine</td><td>Brown color</td><td>Urine</td><td></td></tr></tbody></table></div>"
                },
                "title": "Specimen information"
              }
            ],
            "title": "Laboratory Report"
          },
          {
            "text": {
              "status": "generated",
              "div": "<div xmlns=\"http://www.w3.org/1999/xhtml\"><h3>Annotation</h3><table class=\"hl7__eu__lab__report\"><tr><th>Conclusion and Recommendations based on this report and previous findings known to us</th></tr><tr><td>The patient shows elevated creatinine, proteinuria, glucosuria, and ketonuria, with low urine specific gravity and normal blood glucose. These findings suggest impaired renal function, possibly chronic kidney disease, and abnormal renal handling of glucose and protein. The low HbA1c excludes chronic hyperglycemia. Urine abnormalities (cloudy, brown, ammoniacal) may indicate underlying renal pathology. Further nephrological evaluation is recommended.</td></tr></table></div>"
            },
            "code": {
              "coding": [
                {
                  "system": "http://loinc.org",
                  "code": "48767-8",
                  "display": "Annotation comment"
                }
              ]
            },
            "title": "Annotation comment"
          }
        ],
        "status": "final",
        "subject": {
          "reference": "urn:uuid:5565eb09-8cc6-4a8c-ae36-04cccaa1df7d",
          "display": "Θεμιστοκλής Λιναρδάκη"
        },
        "date": "2016-06-08T08:16:00Z",
        "title": "Laboratory Report",
        "confidentiality": "N"
      }
    },
    {
      "fullUrl": "urn:uuid:55c08fcb-92e2-4217-9a1e-a83a5e6986e2",
      "resource": {
        "resourceType": "DiagnosticReport",
        "id": "55c08fcb-92e2-4217-9a1e-a83a5e6986e2",
        "meta": {
          "profile": [
            "http://hl7.eu/fhir/laboratory/StructureDefinition/DiagnosticReport-eu-lab"
          ]
        },
        "identifier": [
          {
            "assigner": {
              "display": "HL7 Europe"
            },
            "system": "urn:oid:2.16.840.1.113883.2.51.999",
            "value": "5f7f2de2-fdc7-45bd-88b1-ec48ebbd8de1"
          }
        ],
        "extension": [
          {
            "url": "http://hl7.org/fhir/5.0/StructureDefinition/extension-DiagnosticReport.composition",
            "valueReference": {
              "reference": "urn:uuid:bda9c1b2-0bbd-4beb-b5df-cfb911788523"
            }
          }
        ],
        "category": [
          {
            "coding": [
              {
                "code": "26436-6",
                "system": "http://loinc.org",
                "display": "Laboratory studies (set)"
              }
            ]
          }
        ],
        "specimen": [
          {
            "reference": "urn:uuid:0693d605-007c-4085-84ad-f8daeca71383"
          },
          {
            "reference": "urn:uuid:1d346622-e2ae-4bdb-a007-11fa8cd1b347"
          },
          {
            "reference": "urn:uuid:c9e1e28b-219a-4729-a7a3-4eab89649636"
          }
        ],
        "result": [
          {
            "reference": "urn:uuid:a543ff67-0d29-471f-8e53-251d90687795"
          },
          {
            "reference": "urn:uuid:45b1d646-17ba-4443-88d1-01fee9556baa"
          },
          {
            "reference": "urn:uuid:9878e3eb-a0c5-41f7-8380-41050ed744b5"
          },
          {
            "reference": "urn:uuid:c9d66dcc-39c0-441b-ab2a-0579b85eabe7"
          },
          {
            "reference": "urn:uuid:3029ebf3-8bde-4048-8ffb-413bc6d3b404"
          },
          {
            "reference": "urn:uuid:647671ab-ebf2-45f2-a3f9-c8ab9519ade0"
          },
          {
            "reference": "urn:uuid:e8428c05-ff8d-44f6-aa52-a37ad0ec9780"
          },
          {
            "reference": "urn:uuid:5b404f11-5dd9-41bb-b8f9-97d3da19a77d"
          },
          {
            "reference": "urn:uuid:cf8a5042-8873-4b10-a388-4994b6b11936"
          },
          {
            "reference": "urn:uuid:c9666db8-30a0-4b21-8ab6-47242d22be68"
          },
          {
            "reference": "urn:uuid:d50a8d7d-a8db-4f46-a652-b46853fd071d"
          },
          {
            "reference": "urn:uuid:7cc78ac0-6d2f-4ec0-92f1-48f65b229e86"
          },
          {
            "reference": "urn:uuid:d6151589-b949-4858-862e-d75e5f08b974"
          },
          {
            "reference": "urn:uuid:dc12b9ae-dba3-4bf6-bd80-0143b6af6192"
          },
          {
            "reference": "urn:uuid:b35e6285-b08b-49d8-acbf-49cec6ae16a2"
          },
          {
            "reference": "urn:uuid:16472612-cf97-4ce5-a7d3-ebe59d046a6e"
          },
          {
            "reference": "urn:uuid:c29826ca-90e1-4923-b30a-f4586755600c"
          },
          {
            "reference": "urn:uuid:d57aa5db-ba53-475a-9e05-923ee415a688"
          },
          {
            "reference": "urn:uuid:f82f919e-c1e6-4c1a-b2c4-28a468c3f9a7"
          },
          {
            "reference": "urn:uuid:6cc41376-87ca-4d6a-b2b8-677efd89513a"
          },
          {
            "reference": "urn:uuid:5e4a7814-6d30-41f9-bb0b-be5686654462"
          },
          {
            "reference": "urn:uuid:dad92b31-80a7-4a35-b6ed-9dc9edcd8d26"
          },
          {
            "reference": "urn:uuid:7cf0592b-9373-4979-897d-8510451c6860"
          },
          {
            "reference": "urn:uuid:fc4f7a3f-7e49-477e-ace8-11a341a642a5"
          },
          {
            "reference": "urn:uuid:04182346-63d4-4afc-a93b-f2967697351a"
          },
          {
            "reference": "urn:uuid:716dc778-b616-47c8-9974-8f5b09e9c830"
          },
          {
            "reference": "urn:uuid:c609e73a-56a3-4544-95cf-99a08bc27be4"
          },
          {
            "reference": "urn:uuid:80d48cb9-1f35-4a4e-808a-069a03ea1c1a"
          },
          {
            "reference": "urn:uuid:02fd4143-48e2-483c-be59-c5d34e4364c6"
          },
          {
            "reference": "urn:uuid:88aa586c-ef45-491b-9d5a-02583c0a306b"
          },
          {
            "reference": "urn:uuid:1e89be5b-fce0-4617-ad68-a2fb4b4c8a71"
          },
          {
            "reference": "urn:uuid:2edf9c5b-3bc4-40c5-848b-f8c8a4bcc4f4"
          },
          {
            "reference": "urn:uuid:900970aa-b88c-4e85-8e17-34ab0b3080a2"
          },
          {
            "reference": "urn:uuid:cb0ea574-b92b-4461-a73c-dfb0964354d0"
          }
        ],
        "status": "registered",
        "code": {
          "coding": [
            {
              "code": "11502-2",
              "system": "http://loinc.org",
              "display": "Laboratory report"
            }
          ]
        },
        "subject": {
          "reference": "urn:uuid:5565eb09-8cc6-4a8c-ae36-04cccaa1df7d",
          "display": "Θεμιστοκλής Λιναρδάκη"
        }
      }
    },
    {
      "fullUrl": "urn:uuid:5565eb09-8cc6-4a8c-ae36-04cccaa1df7d",
      "resource": {
        "resourceType": "Patient",
        "id": "5565eb09-8cc6-4a8c-ae36-04cccaa1df7d",
        "meta": {
          "security": [
            {
              "system": "http://terminology.hl7.org/CodeSystem/v3-ActReason",
              "code": "HTEST"
            },
            {
              "system": "http://terminology.hl7.org/CodeSystem/v3-ActReason",
              "code": "TRAIN"
            }
          ],
          "tag": [
            {
              "system": "https://synderai.net/fhir/CodeSystem/tags",
              "code": "synthetic",
              "display": "SYNDERAI Synthetic data"
            }
          ],
          "profile": [
            "http://hl7.eu/fhir/base/StructureDefinition/patient-eu-core"
          ]
        },
        "identifier": [
          {
            "type": {
              "coding": [
                {
                  "code": "PT",
                  "system": "http://terminology.hl7.org/CodeSystem/v2-0203"
                }
              ]
            },
            "system": "http://ec.europa.eu/identifier/eci",
            "value": "5962-476889-7"
          },
          {
            "type": {
              "coding": [
                {
                  "code": "MR",
                  "system": "http://terminology.hl7.org/CodeSystem/v2-0203"
                }
              ]
            },
            "system": "http://local.setting.eu/identifier",
            "value": "925e2603-2ef9-6bdf-1330-2ebf526636c4"
          }
        ],
        "name": [
          {
            "family": "Λιναρδάκη"
          },
          {
            "given": [
              "Θεμιστοκλής"
            ]
          },
          {
            "text": "Θεμιστοκλής Λιναρδάκη"
          }
        ],
        "address": [
          {
            "line": [
              "Αμαρύνθου 54-58"
            ],
            "use": "home",
            "type": "physical",
            "postalCode": "262 21",
            "city": "Πάτρα",
            "country": "Greece"
          }
        ],
        "telecom": [
          {
            "system": "phone",
            "value": "+302226364480"
          }
        ],
        "extension": [
          {
            "url": "http://hl7.org/fhir/StructureDefinition/patient-nationality",
            "valueCodeableConcept": {
              "coding": [
                {
                  "code": "GR",
                  "system": "http://hl7.org/fhir/ValueSet/country"
                }
              ]
            }
          }
        ],
        "text": {
          "status": "generated",
          "div": "<div xmlns=\"http://www.w3.org/1999/xhtml\"><table class=\"hl7__ips\"><tr><td>Θεμιστοκλής Λιναρδάκη</td><td>male</td><td>21-Jan-1974</td></tr></table></div>"
        },
        "gender": "male",
        "birthDate": "1974-01-21"
      }
    },
    {
      "fullUrl": "urn:uuid:d40d1eeb-b2eb-4379-9cef-53f8e97eaa63",
      "resource": {
        "resourceType": "ServiceRequest",
        "id": "d40d1eeb-b2eb-4379-9cef-53f8e97eaa63",
        "meta": {
          "profile": [
            "http://hl7.eu/fhir/laboratory/StructureDefinition/ServiceRequest-eu-lab"
          ]
        },
        "identifier": [
          {
            "system": "http://example.org",
            "value": "df522c8e-1b92-4f39-a26a-d7654cc47244"
          }
        ],
        "specimen": [
          {
            "reference": "urn:uuid:0693d605-007c-4085-84ad-f8daeca71383"
          },
          {
            "reference": "urn:uuid:1d346622-e2ae-4bdb-a007-11fa8cd1b347"
          },
          {
            "reference": "urn:uuid:c9e1e28b-219a-4729-a7a3-4eab89649636"
          }
        ],
        "reasonCode": [
          {
            "coding": [
              {
                "code": "237602007",
                "system": "http://snomed.info/sct",
                "display": "Metabolic syndrome X"
              }
            ]
          },
          {
            "coding": [
              {
                "code": "433144002",
                "system": "http://snomed.info/sct",
                "display": "Chronic kidney disease stage 3"
              }
            ]
          },
          {
            "coding": [
              {
                "code": "157141000119108",
                "system": "http://snomed.info/sct",
                "display": "Proteinuria due to type 2 diabetes mellitus"
              }
            ]
          },
          {
            "coding": [
              {
                "code": "431856006",
                "system": "http://snomed.info/sct",
                "display": "Chronic kidney disease stage 2"
              }
            ]
          },
          {
            "coding": [
              {
                "code": "90781000119102",
                "system": "http://snomed.info/sct",
                "display": "Microalbuminuria due to type 2 diabetes mellitus"
              }
            ]
          },
          {
            "coding": [
              {
                "code": "127013003",
                "system": "http://snomed.info/sct",
                "display": "Disorder of kidney due to diabetes mellitus"
              }
            ]
          },
          {
            "coding": [
              {
                "code": "431855005",
                "system": "http://snomed.info/sct",
                "display": "Chronic kidney disease stage 1"
              }
            ]
          },
          {
            "coding": [
              {
                "code": "59621000",
                "system": "http://snomed.info/sct",
                "display": "Essential hypertension"
              }
            ]
          },
          {
            "coding": [
              {
                "code": "15777000",
                "system": "http://snomed.info/sct",
                "display": "Prediabetes"
              }
            ]
          },
          {
            "coding": [
              {
                "code": "271737000",
                "system": "http://snomed.info/sct",
                "display": "Anemia"
              }
            ]
          }
        ],
        "status": "active",
        "intent": "order",
        "code": {
          "coding": [
            {
              "code": "108252007",
              "system": "http://snomed.info/sct",
              "display": "Laboratory procedure"
            }
          ]
        },
        "subject": {
          "reference": "urn:uuid:5565eb09-8cc6-4a8c-ae36-04cccaa1df7d",
          "display": "Θεμιστοκλής Λιναρδάκη"
        },
        "requester": {
          "reference": "urn:uuid:bf62947d-ede1-4445-9e00-f5a9135da386"
        }
      }
    },
    {
      "fullUrl": "urn:uuid:bf62947d-ede1-4445-9e00-f5a9135da386",
      "resource": {
        "resourceType": "PractitionerRole",
        "id": "bf62947d-ede1-4445-9e00-f5a9135da386",
        "meta": {
          "profile": [
            "http://hl7.eu/fhir/base/StructureDefinition/practitionerRole-eu"
          ]
        },
        "text": {
          "status": "generated",
          "div": "<div xmlns=\"http://www.w3.org/1999/xhtml\">Provider Role Id: bf62947d-ede1-4445-9e00-f5a9135da386</div>"
        },
        "organization": {
          "reference": "urn:uuid:c3674d03-4b89-43fb-adbb-798b34c49038"
        }
      }
    },
    {
      "fullUrl": "urn:uuid:c3674d03-4b89-43fb-adbb-798b34c49038",
      "resource": {
        "resourceType": "Organization",
        "id": "c3674d03-4b89-43fb-adbb-798b34c49038",
        "meta": {
          "profile": [
            "http://hl7.eu/fhir/base/StructureDefinition/organization-eu"
          ]
        },
        "identifier": [
          {
            "assigner": {
              "display": "HL7 Europe"
            },
            "system": "urn:oid:2.16.840.1.113883.2.51.999",
            "value": "cd12df64-ca94-469d-b822-68a2a96a99c5"
          }
        ],
        "address": [
          {
            "line": [
              "211 Odós Filellinon"
            ],
            "city": "Patras",
            "postalCode": "262 21",
            "country": "Greece"
          }
        ],
        "text": {
          "status": "generated",
          "div": "<div xmlns=\"http://www.w3.org/1999/xhtml\">Provider Organization: Dr. Dimitris Economou</div>"
        },
        "name": "Dr. Dimitris Economou"
      }
    },
    {
      "fullUrl": "urn:uuid:0693d605-007c-4085-84ad-f8daeca71383",
      "resource": {
        "resourceType": "Specimen",
        "id": "0693d605-007c-4085-84ad-f8daeca71383",
        "meta": {
          "profile": [
            "http://hl7.eu/fhir/laboratory/StructureDefinition/Specimen-eu-lab"
          ]
        },
        "collection": {
          "collectedDateTime": "2016-06-08"
        },
        "text": {
          "status": "generated",
          "div": "<div xmlns=\"http://www.w3.org/1999/xhtml\"><table class=\"hl7__eu__lab__report\"><tr><th>Specimen</th><th>Collection Date</th></tr><tr><td>Acellular blood (serum or plasma) specimen</td><td><span class=\"nb\">08-Jun-2016</span></td></tr></table></div>"
        },
        "type": {
          "coding": [
            {
              "code": "122592007",
              "system": "http://snomed.info/sct",
              "display": "Acellular blood (serum or plasma) specimen"
            }
          ]
        }
      }
    },
    {
      "fullUrl": "urn:uuid:1d346622-e2ae-4bdb-a007-11fa8cd1b347",
      "resource": {
        "resourceType": "Specimen",
        "id": "1d346622-e2ae-4bdb-a007-11fa8cd1b347",
        "meta": {
          "profile": [
            "http://hl7.eu/fhir/laboratory/StructureDefinition/Specimen-eu-lab"
          ]
        },
        "collection": {
          "collectedDateTime": "2016-06-08"
        },
        "text": {
          "status": "generated",
          "div": "<div xmlns=\"http://www.w3.org/1999/xhtml\"><table class=\"hl7__eu__lab__report\"><tr><th>Specimen</th><th>Collection Date</th></tr><tr><td>Urine specimen</td><td><span class=\"nb\">08-Jun-2016</span></td></tr></table></div>"
        },
        "type": {
          "coding": [
            {
              "code": "122575003",
              "system": "http://snomed.info/sct",
              "display": "Urine specimen"
            }
          ]
        }
      }
    },
    {
      "fullUrl": "urn:uuid:c9e1e28b-219a-4729-a7a3-4eab89649636",
      "resource": {
        "resourceType": "Specimen",
        "id": "c9e1e28b-219a-4729-a7a3-4eab89649636",
        "meta": {
          "profile": [
            "http://hl7.eu/fhir/laboratory/StructureDefinition/Specimen-eu-lab"
          ]
        },
        "collection": {
          "collectedDateTime": "2016-06-08"
        },
        "text": {
          "status": "generated",
          "div": "<div xmlns=\"http://www.w3.org/1999/xhtml\"><table class=\"hl7__eu__lab__report\"><tr><th>Specimen</th><th>Collection Date</th></tr><tr><td>Whole blood specimen (specimen)</td><td><span class=\"nb\">08-Jun-2016</span></td></tr></table></div>"
        },
        "type": {
          "coding": [
            {
              "code": "258580003",
              "system": "http://snomed.info/sct",
              "display": "Whole blood specimen (specimen)"
            }
          ]
        }
      }
    },
    {
      "fullUrl": "urn:uuid:a543ff67-0d29-471f-8e53-251d90687795",
      "resource": {
        "resourceType": "Observation",
        "id": "a543ff67-0d29-471f-8e53-251d90687795",
        "meta": {
          "profile": [
            "http://hl7.eu/fhir/laboratory/StructureDefinition/Observation-resultslab-eu-lab"
          ]
        },
        "performer": [
          {
            "display": "The Central European Lab"
          }
        ],
        "category": [
          {
            "coding": [
              {
                "system": "http://terminology.hl7.org/CodeSystem/observation-category",
                "code": "laboratory"
              }
            ]
          }
        ],
        "code": {
          "coding": [
            {
              "code": "2345-7",
              "system": "http://loinc.org",
              "display": "Glucose [Mass/volume] in Serum or Plasma"
            }
          ],
          "text": "Glucose [Mass/volume] in Serum or Plasma"
        },
        "valueQuantity": {
          "system": "http://unitsofmeasure.org",
          "value": 99.4,
          "unit": "mg/dL",
          "code": "mg/dL"
        },
        "referenceRange": [
          {
            "low": {
              "value": 70,
              "code": "mg/dL",
              "system": "http://unitsofmeasure.org"
            }
          },
          {
            "high": {
              "value": 140,
              "code": "mg/dL",
              "system": "http://unitsofmeasure.org"
            }
          }
        ],
        "text": {
          "status": "generated",
          "div": "<div xmlns=\"http://www.w3.org/1999/xhtml\"><table class=\"hl7__eu__lab__report\"><tr><th>Test</th><th>08-Jun-2016</th><th>Reference&#xA0;Range</th><th>Unit</th></tr><tr><td>Glucose [Mass/volume] in Serum or Plasma</td><td>99.4</td><td>70 - 140</td><td></td><td>mg/dL</td></tr></table></div>"
        },
        "status": "final",
        "subject": {
          "reference": "urn:uuid:5565eb09-8cc6-4a8c-ae36-04cccaa1df7d",
          "display": "Θεμιστοκλής Λιναρδάκη"
        },
        "effectiveDateTime": "2016-06-08T06:16:00Z",
        "specimen": {
          "reference": "urn:uuid:0693d605-007c-4085-84ad-f8daeca71383"
        }
      }
    },
    {
      "fullUrl": "urn:uuid:45b1d646-17ba-4443-88d1-01fee9556baa",
      "resource": {
        "resourceType": "Observation",
        "id": "45b1d646-17ba-4443-88d1-01fee9556baa",
        "meta": {
          "profile": [
            "http://hl7.eu/fhir/laboratory/StructureDefinition/Observation-resultslab-eu-lab"
          ]
        },
        "performer": [
          {
            "display": "The Central European Lab"
          }
        ],
        "category": [
          {
            "coding": [
              {
                "system": "http://terminology.hl7.org/CodeSystem/observation-category",
                "code": "laboratory"
              }
            ]
          }
        ],
        "code": {
          "coding": [
            {
              "code": "3094-0",
              "system": "http://loinc.org",
              "display": "Urea nitrogen [Mass/volume] in Serum or Plasma"
            }
          ],
          "text": "Urea nitrogen [Mass/volume] in Serum or Plasma"
        },
        "valueQuantity": {
          "system": "http://unitsofmeasure.org",
          "value": 15.4,
          "unit": "mg/dL",
          "code": "mg/dL"
        },
        "referenceRange": [
          {
            "low": {
              "value": 7,
              "code": "mg/dL",
              "system": "http://unitsofmeasure.org"
            }
          },
          {
            "high": {
              "value": 20,
              "code": "mg/dL",
              "system": "http://unitsofmeasure.org"
            }
          }
        ],
        "text": {
          "status": "generated",
          "div": "<div xmlns=\"http://www.w3.org/1999/xhtml\"><table class=\"hl7__eu__lab__report\"><tr><th>Test</th><th>08-Jun-2016</th><th>Reference&#xA0;Range</th><th>Unit</th></tr><tr><td>Urea nitrogen [Mass/volume] in Serum or Plasma</td><td>15.4</td><td>7 - 20</td><td></td><td>mg/dL</td></tr></table></div>"
        },
        "status": "final",
        "subject": {
          "reference": "urn:uuid:5565eb09-8cc6-4a8c-ae36-04cccaa1df7d",
          "display": "Θεμιστοκλής Λιναρδάκη"
        },
        "effectiveDateTime": "2016-06-08T06:16:00Z",
        "specimen": {
          "reference": "urn:uuid:0693d605-007c-4085-84ad-f8daeca71383"
        }
      }
    },
    {
      "fullUrl": "urn:uuid:9878e3eb-a0c5-41f7-8380-41050ed744b5",
      "resource": {
        "resourceType": "Observation",
        "id": "9878e3eb-a0c5-41f7-8380-41050ed744b5",
        "meta": {
          "profile": [
            "http://hl7.eu/fhir/laboratory/StructureDefinition/Observation-resultslab-eu-lab"
          ]
        },
        "performer": [
          {
            "display": "The Central European Lab"
          }
        ],
        "category": [
          {
            "coding": [
              {
                "system": "http://terminology.hl7.org/CodeSystem/observation-category",
                "code": "laboratory"
              }
            ]
          }
        ],
        "code": {
          "coding": [
            {
              "code": "2160-0",
              "system": "http://loinc.org",
              "display": "Creatinine [Mass/volume] in Serum or Plasma"
            }
          ],
          "text": "Creatinine [Mass/volume] in Serum or Plasma"
        },
        "valueQuantity": {
          "system": "http://unitsofmeasure.org",
          "value": 2.1,
          "unit": "mg/dL",
          "code": "mg/dL"
        },
        "referenceRange": [
          {
            "low": {
              "value": 0.9,
              "code": "mg/dL",
              "system": "http://unitsofmeasure.org"
            }
          },
          {
            "high": {
              "value": 1.3,
              "code": "mg/dL",
              "system": "http://unitsofmeasure.org"
            }
          }
        ],
        "interpretation": [
          {
            "coding": [
              {
                "code": "H",
                "system": "http://terminology.hl7.org/CodeSystem/v3-ObservationInterpretation",
                "display": "High"
              }
            ]
          }
        ],
        "text": {
          "status": "generated",
          "div": "<div xmlns=\"http://www.w3.org/1999/xhtml\"><table class=\"hl7__eu__lab__report\"><tr><th>Test</th><th>08-Jun-2016</th><th>Reference&#xA0;Range</th><th>Unit</th></tr><tr><td>Creatinine [Mass/volume] in Serum or Plasma</td><td>2.1</td><td>0.9 - 1.3</td><td>H</td><td>mg/dL</td></tr></table></div>"
        },
        "status": "final",
        "subject": {
          "reference": "urn:uuid:5565eb09-8cc6-4a8c-ae36-04cccaa1df7d",
          "display": "Θεμιστοκλής Λιναρδάκη"
        },
        "effectiveDateTime": "2016-06-08T06:16:00Z",
        "specimen": {
          "reference": "urn:uuid:0693d605-007c-4085-84ad-f8daeca71383"
        }
      }
    },
    {
      "fullUrl": "urn:uuid:c9d66dcc-39c0-441b-ab2a-0579b85eabe7",
      "resource": {
        "resourceType": "Observation",
        "id": "c9d66dcc-39c0-441b-ab2a-0579b85eabe7",
        "meta": {
          "profile": [
            "http://hl7.eu/fhir/laboratory/StructureDefinition/Observation-resultslab-eu-lab"
          ]
        },
        "performer": [
          {
            "display": "The Central European Lab"
          }
        ],
        "category": [
          {
            "coding": [
              {
                "system": "http://terminology.hl7.org/CodeSystem/observation-category",
                "code": "laboratory"
              }
            ]
          }
        ],
        "code": {
          "coding": [
            {
              "code": "17861-6",
              "system": "http://loinc.org",
              "display": "Calcium [Mass/volume] in Serum or Plasma"
            }
          ],
          "text": "Calcium [Mass/volume] in Serum or Plasma"
        },
        "valueQuantity": {
          "system": "http://unitsofmeasure.org",
          "value": 10.1,
          "unit": "mg/dL",
          "code": "mg/dL"
        },
        "referenceRange": [
          {
            "low": {
              "value": 8.5,
              "code": "mg/dL",
              "system": "http://unitsofmeasure.org"
            }
          },
          {
            "high": {
              "value": 10.5,
              "code": "mg/dL",
              "system": "http://unitsofmeasure.org"
            }
          }
        ],
        "text": {
          "status": "generated",
          "div": "<div xmlns=\"http://www.w3.org/1999/xhtml\"><table class=\"hl7__eu__lab__report\"><tr><th>Test</th><th>08-Jun-2016</th><th>Reference&#xA0;Range</th><th>Unit</th></tr><tr><td>Calcium [Mass/volume] in Serum or Plasma</td><td>10.1</td><td>8.5 - 10.5</td><td></td><td>mg/dL</td></tr></table></div>"
        },
        "status": "final",
        "subject": {
          "reference": "urn:uuid:5565eb09-8cc6-4a8c-ae36-04cccaa1df7d",
          "display": "Θεμιστοκλής Λιναρδάκη"
        },
        "effectiveDateTime": "2016-06-08T06:16:00Z",
        "specimen": {
          "reference": "urn:uuid:0693d605-007c-4085-84ad-f8daeca71383"
        }
      }
    },
    {
      "fullUrl": "urn:uuid:3029ebf3-8bde-4048-8ffb-413bc6d3b404",
      "resource": {
        "resourceType": "Observation",
        "id": "3029ebf3-8bde-4048-8ffb-413bc6d3b404",
        "meta": {
          "profile": [
            "http://hl7.eu/fhir/laboratory/StructureDefinition/Observation-resultslab-eu-lab"
          ]
        },
        "performer": [
          {
            "display": "The Central European Lab"
          }
        ],
        "category": [
          {
            "coding": [
              {
                "system": "http://terminology.hl7.org/CodeSystem/observation-category",
                "code": "laboratory"
              }
            ]
          }
        ],
        "code": {
          "coding": [
            {
              "code": "2951-2",
              "system": "http://loinc.org",
              "display": "Sodium [Moles/volume] in Serum or Plasma"
            }
          ],
          "text": "Sodium [Moles/volume] in Serum or Plasma"
        },
        "valueQuantity": {
          "system": "http://unitsofmeasure.org",
          "value": 137,
          "unit": "mmol/L",
          "code": "mmol/L"
        },
        "referenceRange": [
          {
            "low": {
              "value": 135,
              "code": "mmol/L",
              "system": "http://unitsofmeasure.org"
            }
          },
          {
            "high": {
              "value": 145,
              "code": "mmol/L",
              "system": "http://unitsofmeasure.org"
            }
          }
        ],
        "text": {
          "status": "generated",
          "div": "<div xmlns=\"http://www.w3.org/1999/xhtml\"><table class=\"hl7__eu__lab__report\"><tr><th>Test</th><th>08-Jun-2016</th><th>Reference&#xA0;Range</th><th>Unit</th></tr><tr><td>Sodium [Moles/volume] in Serum or Plasma</td><td>137.0</td><td>135 - 145</td><td></td><td>mmol/L</td></tr></table></div>"
        },
        "status": "final",
        "subject": {
          "reference": "urn:uuid:5565eb09-8cc6-4a8c-ae36-04cccaa1df7d",
          "display": "Θεμιστοκλής Λιναρδάκη"
        },
        "effectiveDateTime": "2016-06-08T06:16:00Z",
        "specimen": {
          "reference": "urn:uuid:0693d605-007c-4085-84ad-f8daeca71383"
        }
      }
    },
    {
      "fullUrl": "urn:uuid:647671ab-ebf2-45f2-a3f9-c8ab9519ade0",
      "resource": {
        "resourceType": "Observation",
        "id": "647671ab-ebf2-45f2-a3f9-c8ab9519ade0",
        "meta": {
          "profile": [
            "http://hl7.eu/fhir/laboratory/StructureDefinition/Observation-resultslab-eu-lab"
          ]
        },
        "performer": [
          {
            "display": "The Central European Lab"
          }
        ],
        "category": [
          {
            "coding": [
              {
                "system": "http://terminology.hl7.org/CodeSystem/observation-category",
                "code": "laboratory"
              }
            ]
          }
        ],
        "code": {
          "coding": [
            {
              "code": "2823-3",
              "system": "http://loinc.org",
              "display": "Potassium [Moles/volume] in Serum or Plasma"
            }
          ],
          "text": "Potassium [Moles/volume] in Serum or Plasma"
        },
        "valueQuantity": {
          "system": "http://unitsofmeasure.org",
          "value": 4,
          "unit": "mmol/L",
          "code": "mmol/L"
        },
        "referenceRange": [
          {
            "low": {
              "value": 3.5,
              "code": "mmol/L",
              "system": "http://unitsofmeasure.org"
            }
          },
          {
            "high": {
              "value": 5,
              "code": "mmol/L",
              "system": "http://unitsofmeasure.org"
            }
          }
        ],
        "text": {
          "status": "generated",
          "div": "<div xmlns=\"http://www.w3.org/1999/xhtml\"><table class=\"hl7__eu__lab__report\"><tr><th>Test</th><th>08-Jun-2016</th><th>Reference&#xA0;Range</th><th>Unit</th></tr><tr><td>Potassium [Moles/volume] in Serum or Plasma</td><td>4.0</td><td>3.5 - 5</td><td></td><td>mmol/L</td></tr></table></div>"
        },
        "status": "final",
        "subject": {
          "reference": "urn:uuid:5565eb09-8cc6-4a8c-ae36-04cccaa1df7d",
          "display": "Θεμιστοκλής Λιναρδάκη"
        },
        "effectiveDateTime": "2016-06-08T06:16:00Z",
        "specimen": {
          "reference": "urn:uuid:0693d605-007c-4085-84ad-f8daeca71383"
        }
      }
    },
    {
      "fullUrl": "urn:uuid:e8428c05-ff8d-44f6-aa52-a37ad0ec9780",
      "resource": {
        "resourceType": "Observation",
        "id": "e8428c05-ff8d-44f6-aa52-a37ad0ec9780",
        "meta": {
          "profile": [
            "http://hl7.eu/fhir/laboratory/StructureDefinition/Observation-resultslab-eu-lab"
          ]
        },
        "performer": [
          {
            "display": "The Central European Lab"
          }
        ],
        "category": [
          {
            "coding": [
              {
                "system": "http://terminology.hl7.org/CodeSystem/observation-category",
                "code": "laboratory"
              }
            ]
          }
        ],
        "code": {
          "coding": [
            {
              "code": "2075-0",
              "system": "http://loinc.org",
              "display": "Chloride [Moles/volume] in Serum or Plasma"
            }
          ],
          "text": "Chloride [Moles/volume] in Serum or Plasma"
        },
        "valueQuantity": {
          "system": "http://unitsofmeasure.org",
          "value": 107.1,
          "unit": "mmol/L",
          "code": "mmol/L"
        },
        "referenceRange": [
          {
            "low": {
              "value": 98,
              "code": "mmol/L",
              "system": "http://unitsofmeasure.org"
            }
          },
          {
            "high": {
              "value": 108,
              "code": "mmol/L",
              "system": "http://unitsofmeasure.org"
            }
          }
        ],
        "text": {
          "status": "generated",
          "div": "<div xmlns=\"http://www.w3.org/1999/xhtml\"><table class=\"hl7__eu__lab__report\"><tr><th>Test</th><th>08-Jun-2016</th><th>Reference&#xA0;Range</th><th>Unit</th></tr><tr><td>Chloride [Moles/volume] in Serum or Plasma</td><td>107.1</td><td>98 - 108</td><td></td><td>mmol/L</td></tr></table></div>"
        },
        "status": "final",
        "subject": {
          "reference": "urn:uuid:5565eb09-8cc6-4a8c-ae36-04cccaa1df7d",
          "display": "Θεμιστοκλής Λιναρδάκη"
        },
        "effectiveDateTime": "2016-06-08T06:16:00Z",
        "specimen": {
          "reference": "urn:uuid:0693d605-007c-4085-84ad-f8daeca71383"
        }
      }
    },
    {
      "fullUrl": "urn:uuid:5b404f11-5dd9-41bb-b8f9-97d3da19a77d",
      "resource": {
        "resourceType": "Observation",
        "id": "5b404f11-5dd9-41bb-b8f9-97d3da19a77d",
        "meta": {
          "profile": [
            "http://hl7.eu/fhir/laboratory/StructureDefinition/Observation-resultslab-eu-lab"
          ]
        },
        "performer": [
          {
            "display": "The Central European Lab"
          }
        ],
        "category": [
          {
            "coding": [
              {
                "system": "http://terminology.hl7.org/CodeSystem/observation-category",
                "code": "laboratory"
              }
            ]
          }
        ],
        "code": {
          "coding": [
            {
              "code": "2028-9",
              "system": "http://loinc.org",
              "display": "Carbon dioxide, total [Moles/volume] in Serum or Plasma"
            }
          ],
          "text": "Carbon dioxide, total [Moles/volume] in Serum or Plasma"
        },
        "valueQuantity": {
          "system": "http://unitsofmeasure.org",
          "value": 22.3,
          "unit": "mmol/L",
          "code": "mmol/L"
        },
        "referenceRange": [
          {
            "low": {
              "value": 22,
              "code": "mmol/L",
              "system": "http://unitsofmeasure.org"
            }
          },
          {
            "high": {
              "value": 29,
              "code": "mmol/L",
              "system": "http://unitsofmeasure.org"
            }
          }
        ],
        "text": {
          "status": "generated",
          "div": "<div xmlns=\"http://www.w3.org/1999/xhtml\"><table class=\"hl7__eu__lab__report\"><tr><th>Test</th><th>08-Jun-2016</th><th>Reference&#xA0;Range</th><th>Unit</th></tr><tr><td>Carbon dioxide, total [Moles/volume] in Serum or Plasma</td><td>22.3</td><td>22 - 29</td><td></td><td>mmol/L</td></tr></table></div>"
        },
        "status": "final",
        "subject": {
          "reference": "urn:uuid:5565eb09-8cc6-4a8c-ae36-04cccaa1df7d",
          "display": "Θεμιστοκλής Λιναρδάκη"
        },
        "effectiveDateTime": "2016-06-08T06:16:00Z",
        "specimen": {
          "reference": "urn:uuid:0693d605-007c-4085-84ad-f8daeca71383"
        }
      }
    },
    {
      "fullUrl": "urn:uuid:cf8a5042-8873-4b10-a388-4994b6b11936",
      "resource": {
        "resourceType": "Observation",
        "id": "cf8a5042-8873-4b10-a388-4994b6b11936",
        "meta": {
          "profile": [
            "http://hl7.eu/fhir/laboratory/StructureDefinition/Observation-resultslab-eu-lab"
          ]
        },
        "performer": [
          {
            "display": "The Central European Lab"
          }
        ],
        "category": [
          {
            "coding": [
              {
                "system": "http://terminology.hl7.org/CodeSystem/observation-category",
                "code": "laboratory"
              }
            ]
          }
        ],
        "code": {
          "coding": [
            {
              "code": "5767-9",
              "system": "http://loinc.org",
              "display": "Appearance of Urine"
            }
          ],
          "text": "Appearance of Urine"
        },
        "text": {
          "status": "generated",
          "div": "<div xmlns=\"http://www.w3.org/1999/xhtml\"><table class=\"hl7__eu__lab__report\"><tr><th>Test</th><th>08-Jun-2016</th><th>Reference&#xA0;Range</th><th>Unit</th></tr><tr><td>Appearance of Urine</td></tr></table></div>"
        },
        "status": "final",
        "subject": {
          "reference": "urn:uuid:5565eb09-8cc6-4a8c-ae36-04cccaa1df7d",
          "display": "Θεμιστοκλής Λιναρδάκη"
        },
        "effectiveDateTime": "2016-06-08T06:16:00Z",
        "specimen": {
          "reference": "urn:uuid:1d346622-e2ae-4bdb-a007-11fa8cd1b347"
        }
      }
    },
    {
      "fullUrl": "urn:uuid:c9666db8-30a0-4b21-8ab6-47242d22be68",
      "resource": {
        "resourceType": "Observation",
        "id": "c9666db8-30a0-4b21-8ab6-47242d22be68",
        "meta": {
          "profile": [
            "http://hl7.eu/fhir/laboratory/StructureDefinition/Observation-resultslab-eu-lab"
          ]
        },
        "performer": [
          {
            "display": "The Central European Lab"
          }
        ],
        "category": [
          {
            "coding": [
              {
                "system": "http://terminology.hl7.org/CodeSystem/observation-category",
                "code": "laboratory"
              }
            ]
          }
        ],
        "code": {
          "coding": [
            {
              "code": "34533-0",
              "system": "http://loinc.org",
              "display": "Odor of Urine"
            }
          ],
          "text": "Odor of Urine"
        },
        "text": {
          "status": "generated",
          "div": "<div xmlns=\"http://www.w3.org/1999/xhtml\"><table class=\"hl7__eu__lab__report\"><tr><th>Test</th><th>08-Jun-2016</th><th>Reference&#xA0;Range</th><th>Unit</th></tr><tr><td>Odor of Urine</td></tr></table></div>"
        },
        "status": "final",
        "subject": {
          "reference": "urn:uuid:5565eb09-8cc6-4a8c-ae36-04cccaa1df7d",
          "display": "Θεμιστοκλής Λιναρδάκη"
        },
        "effectiveDateTime": "2016-06-08T06:16:00Z",
        "specimen": {
          "reference": "urn:uuid:1d346622-e2ae-4bdb-a007-11fa8cd1b347"
        }
      }
    },
    {
      "fullUrl": "urn:uuid:d50a8d7d-a8db-4f46-a652-b46853fd071d",
      "resource": {
        "resourceType": "Observation",
        "id": "d50a8d7d-a8db-4f46-a652-b46853fd071d",
        "meta": {
          "profile": [
            "http://hl7.eu/fhir/laboratory/StructureDefinition/Observation-resultslab-eu-lab"
          ]
        },
        "performer": [
          {
            "display": "The Central European Lab"
          }
        ],
        "category": [
          {
            "coding": [
              {
                "system": "http://terminology.hl7.org/CodeSystem/observation-category",
                "code": "laboratory"
              }
            ]
          }
        ],
        "code": {
          "coding": [
            {
              "code": "32167-9",
              "system": "http://loinc.org",
              "display": "Clarity of Urine"
            }
          ],
          "text": "Clarity of Urine"
        },
        "text": {
          "status": "generated",
          "div": "<div xmlns=\"http://www.w3.org/1999/xhtml\"><table class=\"hl7__eu__lab__report\"><tr><th>Test</th><th>08-Jun-2016</th><th>Reference&#xA0;Range</th><th>Unit</th></tr><tr><td>Clarity of Urine</td></tr></table></div>"
        },
        "status": "final",
        "subject": {
          "reference": "urn:uuid:5565eb09-8cc6-4a8c-ae36-04cccaa1df7d",
          "display": "Θεμιστοκλής Λιναρδάκη"
        },
        "effectiveDateTime": "2016-06-08T06:16:00Z",
        "specimen": {
          "reference": "urn:uuid:1d346622-e2ae-4bdb-a007-11fa8cd1b347"
        }
      }
    },
    {
      "fullUrl": "urn:uuid:7cc78ac0-6d2f-4ec0-92f1-48f65b229e86",
      "resource": {
        "resourceType": "Observation",
        "id": "7cc78ac0-6d2f-4ec0-92f1-48f65b229e86",
        "meta": {
          "profile": [
            "http://hl7.eu/fhir/laboratory/StructureDefinition/Observation-resultslab-eu-lab"
          ]
        },
        "performer": [
          {
            "display": "The Central European Lab"
          }
        ],
        "category": [
          {
            "coding": [
              {
                "system": "http://terminology.hl7.org/CodeSystem/observation-category",
                "code": "laboratory"
              }
            ]
          }
        ],
        "code": {
          "coding": [
            {
              "code": "5778-6",
              "system": "http://loinc.org",
              "display": "Color of Urine"
            }
          ],
          "text": "Color of Urine"
        },
        "text": {
          "status": "generated",
          "div": "<div xmlns=\"http://www.w3.org/1999/xhtml\"><table class=\"hl7__eu__lab__report\"><tr><th>Test</th><th>08-Jun-2016</th><th>Reference&#xA0;Range</th><th>Unit</th></tr><tr><td>Color of Urine</td></tr></table></div>"
        },
        "status": "final",
        "subject": {
          "reference": "urn:uuid:5565eb09-8cc6-4a8c-ae36-04cccaa1df7d",
          "display": "Θεμιστοκλής Λιναρδάκη"
        },
        "effectiveDateTime": "2016-06-08T06:16:00Z",
        "specimen": {
          "reference": "urn:uuid:1d346622-e2ae-4bdb-a007-11fa8cd1b347"
        }
      }
    },
    {
      "fullUrl": "urn:uuid:d6151589-b949-4858-862e-d75e5f08b974",
      "resource": {
        "resourceType": "Observation",
        "id": "d6151589-b949-4858-862e-d75e5f08b974",
        "meta": {
          "profile": [
            "http://hl7.eu/fhir/laboratory/StructureDefinition/Observation-resultslab-eu-lab"
          ]
        },
        "performer": [
          {
            "display": "The Central European Lab"
          }
        ],
        "category": [
          {
            "coding": [
              {
                "system": "http://terminology.hl7.org/CodeSystem/observation-category",
                "code": "laboratory"
              }
            ]
          }
        ],
        "code": {
          "coding": [
            {
              "code": "5792-7",
              "system": "http://loinc.org",
              "display": "Glucose [Mass/volume] in Urine by Test strip"
            }
          ],
          "text": "Glucose [Mass/volume] in Urine by Test strip"
        },
        "valueQuantity": {
          "system": "http://unitsofmeasure.org",
          "value": 1.5,
          "unit": "mg/dL",
          "code": "mg/dL"
        },
        "referenceRange": [
          {
            "low": {
              "value": 0,
              "code": "mg/dL",
              "system": "http://unitsofmeasure.org"
            }
          },
          {
            "high": {
              "value": 0.8,
              "code": "mg/dL",
              "system": "http://unitsofmeasure.org"
            }
          }
        ],
        "interpretation": [
          {
            "coding": [
              {
                "code": "H",
                "system": "http://terminology.hl7.org/CodeSystem/v3-ObservationInterpretation",
                "display": "High"
              }
            ]
          }
        ],
        "text": {
          "status": "generated",
          "div": "<div xmlns=\"http://www.w3.org/1999/xhtml\"><table class=\"hl7__eu__lab__report\"><tr><th>Test</th><th>08-Jun-2016</th><th>Reference&#xA0;Range</th><th>Unit</th></tr><tr><td>Glucose [Mass/volume] in Urine by Test strip</td><td>1.5</td><td>0 - 0.8</td><td>H</td><td>mg/dL</td></tr></table></div>"
        },
        "status": "final",
        "subject": {
          "reference": "urn:uuid:5565eb09-8cc6-4a8c-ae36-04cccaa1df7d",
          "display": "Θεμιστοκλής Λιναρδάκη"
        },
        "effectiveDateTime": "2016-06-08T06:16:00Z",
        "specimen": {
          "reference": "urn:uuid:1d346622-e2ae-4bdb-a007-11fa8cd1b347"
        }
      }
    },
    {
      "fullUrl": "urn:uuid:dc12b9ae-dba3-4bf6-bd80-0143b6af6192",
      "resource": {
        "resourceType": "Observation",
        "id": "dc12b9ae-dba3-4bf6-bd80-0143b6af6192",
        "meta": {
          "profile": [
            "http://hl7.eu/fhir/laboratory/StructureDefinition/Observation-resultslab-eu-lab"
          ]
        },
        "performer": [
          {
            "display": "The Central European Lab"
          }
        ],
        "category": [
          {
            "coding": [
              {
                "system": "http://terminology.hl7.org/CodeSystem/observation-category",
                "code": "laboratory"
              }
            ]
          }
        ],
        "code": {
          "coding": [
            {
              "code": "25428-4",
              "system": "http://loinc.org",
              "display": "Glucose [Presence] in Urine by Test strip"
            }
          ],
          "text": "Glucose [Presence] in Urine by Test strip"
        },
        "text": {
          "status": "generated",
          "div": "<div xmlns=\"http://www.w3.org/1999/xhtml\"><table class=\"hl7__eu__lab__report\"><tr><th>Test</th><th>08-Jun-2016</th><th>Reference&#xA0;Range</th><th>Unit</th></tr><tr><td>Glucose [Presence] in Urine by Test strip</td></tr></table></div>"
        },
        "status": "final",
        "subject": {
          "reference": "urn:uuid:5565eb09-8cc6-4a8c-ae36-04cccaa1df7d",
          "display": "Θεμιστοκλής Λιναρδάκη"
        },
        "effectiveDateTime": "2016-06-08T06:16:00Z",
        "specimen": {
          "reference": "urn:uuid:1d346622-e2ae-4bdb-a007-11fa8cd1b347"
        }
      }
    },
    {
      "fullUrl": "urn:uuid:b35e6285-b08b-49d8-acbf-49cec6ae16a2",
      "resource": {
        "resourceType": "Observation",
        "id": "b35e6285-b08b-49d8-acbf-49cec6ae16a2",
        "meta": {
          "profile": [
            "http://hl7.eu/fhir/laboratory/StructureDefinition/Observation-resultslab-eu-lab"
          ]
        },
        "performer": [
          {
            "display": "The Central European Lab"
          }
        ],
        "category": [
          {
            "coding": [
              {
                "system": "http://terminology.hl7.org/CodeSystem/observation-category",
                "code": "laboratory"
              }
            ]
          }
        ],
        "code": {
          "coding": [
            {
              "code": "20505-4",
              "system": "http://loinc.org",
              "display": "Bilirubin.total [Mass/volume] in Urine by Test strip"
            }
          ],
          "text": "Bilirubin.total [Mass/volume] in Urine by Test strip"
        },
        "valueQuantity": {
          "system": "http://unitsofmeasure.org",
          "value": 0.6,
          "unit": "mg/dL",
          "code": "mg/dL"
        },
        "referenceRange": [
          {
            "low": {
              "value": 0.2,
              "code": "mg/dL",
              "system": "http://unitsofmeasure.org"
            }
          },
          {
            "high": {
              "value": 1,
              "code": "mg/dL",
              "system": "http://unitsofmeasure.org"
            }
          }
        ],
        "text": {
          "status": "generated",
          "div": "<div xmlns=\"http://www.w3.org/1999/xhtml\"><table class=\"hl7__eu__lab__report\"><tr><th>Test</th><th>08-Jun-2016</th><th>Reference&#xA0;Range</th><th>Unit</th></tr><tr><td>Bilirubin.total [Mass/volume] in Urine by Test strip</td><td>0.6</td><td>0.2 - 1</td><td></td><td>mg/dL</td></tr></table></div>"
        },
        "status": "final",
        "subject": {
          "reference": "urn:uuid:5565eb09-8cc6-4a8c-ae36-04cccaa1df7d",
          "display": "Θεμιστοκλής Λιναρδάκη"
        },
        "effectiveDateTime": "2016-06-08T06:16:00Z",
        "specimen": {
          "reference": "urn:uuid:1d346622-e2ae-4bdb-a007-11fa8cd1b347"
        }
      }
    },
    {
      "fullUrl": "urn:uuid:16472612-cf97-4ce5-a7d3-ebe59d046a6e",
      "resource": {
        "resourceType": "Observation",
        "id": "16472612-cf97-4ce5-a7d3-ebe59d046a6e",
        "meta": {
          "profile": [
            "http://hl7.eu/fhir/laboratory/StructureDefinition/Observation-resultslab-eu-lab"
          ]
        },
        "performer": [
          {
            "display": "The Central European Lab"
          }
        ],
        "category": [
          {
            "coding": [
              {
                "system": "http://terminology.hl7.org/CodeSystem/observation-category",
                "code": "laboratory"
              }
            ]
          }
        ],
        "code": {
          "coding": [
            {
              "code": "5770-3",
              "system": "http://loinc.org",
              "display": "Bilirubin.total [Presence] in Urine by Test strip"
            }
          ],
          "text": "Bilirubin.total [Presence] in Urine by Test strip"
        },
        "text": {
          "status": "generated",
          "div": "<div xmlns=\"http://www.w3.org/1999/xhtml\"><table class=\"hl7__eu__lab__report\"><tr><th>Test</th><th>08-Jun-2016</th><th>Reference&#xA0;Range</th><th>Unit</th></tr><tr><td>Bilirubin.total [Presence] in Urine by Test strip</td></tr></table></div>"
        },
        "status": "final",
        "subject": {
          "reference": "urn:uuid:5565eb09-8cc6-4a8c-ae36-04cccaa1df7d",
          "display": "Θεμιστοκλής Λιναρδάκη"
        },
        "effectiveDateTime": "2016-06-08T06:16:00Z",
        "specimen": {
          "reference": "urn:uuid:1d346622-e2ae-4bdb-a007-11fa8cd1b347"
        }
      }
    },
    {
      "fullUrl": "urn:uuid:c29826ca-90e1-4923-b30a-f4586755600c",
      "resource": {
        "resourceType": "Observation",
        "id": "c29826ca-90e1-4923-b30a-f4586755600c",
        "meta": {
          "profile": [
            "http://hl7.eu/fhir/laboratory/StructureDefinition/Observation-resultslab-eu-lab"
          ]
        },
        "performer": [
          {
            "display": "The Central European Lab"
          }
        ],
        "category": [
          {
            "coding": [
              {
                "system": "http://terminology.hl7.org/CodeSystem/observation-category",
                "code": "laboratory"
              }
            ]
          }
        ],
        "code": {
          "coding": [
            {
              "code": "5797-6",
              "system": "http://loinc.org",
              "display": "Ketones [Mass/volume] in Urine by Test strip"
            }
          ],
          "text": "Ketones [Mass/volume] in Urine by Test strip"
        },
        "valueQuantity": {
          "system": "http://unitsofmeasure.org",
          "value": 5.9,
          "unit": "mg/dL",
          "code": "mg/dL"
        },
        "referenceRange": [
          {
            "low": {
              "value": 0,
              "code": "mg/dL",
              "system": "http://unitsofmeasure.org"
            }
          },
          {
            "high": {
              "value": 5,
              "code": "mg/dL",
              "system": "http://unitsofmeasure.org"
            }
          }
        ],
        "interpretation": [
          {
            "coding": [
              {
                "code": "H",
                "system": "http://terminology.hl7.org/CodeSystem/v3-ObservationInterpretation",
                "display": "High"
              }
            ]
          }
        ],
        "text": {
          "status": "generated",
          "div": "<div xmlns=\"http://www.w3.org/1999/xhtml\"><table class=\"hl7__eu__lab__report\"><tr><th>Test</th><th>08-Jun-2016</th><th>Reference&#xA0;Range</th><th>Unit</th></tr><tr><td>Ketones [Mass/volume] in Urine by Test strip</td><td>5.9</td><td>0 - 5</td><td>H</td><td>mg/dL</td></tr></table></div>"
        },
        "status": "final",
        "subject": {
          "reference": "urn:uuid:5565eb09-8cc6-4a8c-ae36-04cccaa1df7d",
          "display": "Θεμιστοκλής Λιναρδάκη"
        },
        "effectiveDateTime": "2016-06-08T06:16:00Z",
        "specimen": {
          "reference": "urn:uuid:1d346622-e2ae-4bdb-a007-11fa8cd1b347"
        }
      }
    },
    {
      "fullUrl": "urn:uuid:d57aa5db-ba53-475a-9e05-923ee415a688",
      "resource": {
        "resourceType": "Observation",
        "id": "d57aa5db-ba53-475a-9e05-923ee415a688",
        "meta": {
          "profile": [
            "http://hl7.eu/fhir/laboratory/StructureDefinition/Observation-resultslab-eu-lab"
          ]
        },
        "performer": [
          {
            "display": "The Central European Lab"
          }
        ],
        "category": [
          {
            "coding": [
              {
                "system": "http://terminology.hl7.org/CodeSystem/observation-category",
                "code": "laboratory"
              }
            ]
          }
        ],
        "code": {
          "coding": [
            {
              "code": "2514-8",
              "system": "http://loinc.org",
              "display": "Ketones [Presence] in Urine by Test strip"
            }
          ],
          "text": "Ketones [Presence] in Urine by Test strip"
        },
        "text": {
          "status": "generated",
          "div": "<div xmlns=\"http://www.w3.org/1999/xhtml\"><table class=\"hl7__eu__lab__report\"><tr><th>Test</th><th>08-Jun-2016</th><th>Reference&#xA0;Range</th><th>Unit</th></tr><tr><td>Ketones [Presence] in Urine by Test strip</td></tr></table></div>"
        },
        "status": "final",
        "subject": {
          "reference": "urn:uuid:5565eb09-8cc6-4a8c-ae36-04cccaa1df7d",
          "display": "Θεμιστοκλής Λιναρδάκη"
        },
        "effectiveDateTime": "2016-06-08T06:16:00Z",
        "specimen": {
          "reference": "urn:uuid:1d346622-e2ae-4bdb-a007-11fa8cd1b347"
        }
      }
    },
    {
      "fullUrl": "urn:uuid:f82f919e-c1e6-4c1a-b2c4-28a468c3f9a7",
      "resource": {
        "resourceType": "Observation",
        "id": "f82f919e-c1e6-4c1a-b2c4-28a468c3f9a7",
        "meta": {
          "profile": [
            "http://hl7.eu/fhir/laboratory/StructureDefinition/Observation-resultslab-eu-lab"
          ]
        },
        "performer": [
          {
            "display": "The Central European Lab"
          }
        ],
        "category": [
          {
            "coding": [
              {
                "system": "http://terminology.hl7.org/CodeSystem/observation-category",
                "code": "laboratory"
              }
            ]
          }
        ],
        "code": {
          "coding": [
            {
              "code": "5811-5",
              "system": "http://loinc.org",
              "display": "Specific gravity of Urine by Test strip"
            }
          ],
          "text": "Specific gravity of Urine by Test strip"
        },
        "valueQuantity": {
          "system": "http://unitsofmeasure.org",
          "value": 1,
          "unit": "{nominal}",
          "code": "{nominal}"
        },
        "referenceRange": [
          {
            "low": {
              "value": 1.005,
              "code": "g/mL",
              "system": "http://unitsofmeasure.org"
            }
          },
          {
            "high": {
              "value": 1.03,
              "code": "g/mL",
              "system": "http://unitsofmeasure.org"
            }
          }
        ],
        "interpretation": [
          {
            "coding": [
              {
                "code": "L",
                "system": "http://terminology.hl7.org/CodeSystem/v3-ObservationInterpretation",
                "display": "Low"
              }
            ]
          }
        ],
        "text": {
          "status": "generated",
          "div": "<div xmlns=\"http://www.w3.org/1999/xhtml\"><table class=\"hl7__eu__lab__report\"><tr><th>Test</th><th>08-Jun-2016</th><th>Reference&#xA0;Range</th><th>Unit</th></tr><tr><td>Specific gravity of Urine by Test strip</td><td>1.0</td><td>1.005 - 1.03</td><td>L</td><td>{nominal}</td></tr></table></div>"
        },
        "status": "final",
        "subject": {
          "reference": "urn:uuid:5565eb09-8cc6-4a8c-ae36-04cccaa1df7d",
          "display": "Θεμιστοκλής Λιναρδάκη"
        },
        "effectiveDateTime": "2016-06-08T06:16:00Z",
        "specimen": {
          "reference": "urn:uuid:1d346622-e2ae-4bdb-a007-11fa8cd1b347"
        }
      }
    },
    {
      "fullUrl": "urn:uuid:6cc41376-87ca-4d6a-b2b8-677efd89513a",
      "resource": {
        "resourceType": "Observation",
        "id": "6cc41376-87ca-4d6a-b2b8-677efd89513a",
        "meta": {
          "profile": [
            "http://hl7.eu/fhir/laboratory/StructureDefinition/Observation-resultslab-eu-lab"
          ]
        },
        "performer": [
          {
            "display": "The Central European Lab"
          }
        ],
        "category": [
          {
            "coding": [
              {
                "system": "http://terminology.hl7.org/CodeSystem/observation-category",
                "code": "laboratory"
              }
            ]
          }
        ],
        "code": {
          "coding": [
            {
              "code": "5803-2",
              "system": "http://loinc.org",
              "display": "pH of Urine by Test strip"
            }
          ],
          "text": "pH of Urine by Test strip"
        },
        "valueQuantity": {
          "system": "http://unitsofmeasure.org",
          "value": 6.9,
          "unit": "pH",
          "code": "pH"
        },
        "referenceRange": [
          {
            "low": {
              "value": 4.6,
              "code": "pH",
              "system": "http://unitsofmeasure.org"
            }
          },
          {
            "high": {
              "value": 7,
              "code": "pH",
              "system": "http://unitsofmeasure.org"
            }
          }
        ],
        "text": {
          "status": "generated",
          "div": "<div xmlns=\"http://www.w3.org/1999/xhtml\"><table class=\"hl7__eu__lab__report\"><tr><th>Test</th><th>08-Jun-2016</th><th>Reference&#xA0;Range</th><th>Unit</th></tr><tr><td>pH of Urine by Test strip</td><td>6.9</td><td>4.6 - 7</td><td></td><td>pH</td></tr></table></div>"
        },
        "status": "final",
        "subject": {
          "reference": "urn:uuid:5565eb09-8cc6-4a8c-ae36-04cccaa1df7d",
          "display": "Θεμιστοκλής Λιναρδάκη"
        },
        "effectiveDateTime": "2016-06-08T06:16:00Z",
        "specimen": {
          "reference": "urn:uuid:1d346622-e2ae-4bdb-a007-11fa8cd1b347"
        }
      }
    },
    {
      "fullUrl": "urn:uuid:5e4a7814-6d30-41f9-bb0b-be5686654462",
      "resource": {
        "resourceType": "Observation",
        "id": "5e4a7814-6d30-41f9-bb0b-be5686654462",
        "meta": {
          "profile": [
            "http://hl7.eu/fhir/laboratory/StructureDefinition/Observation-resultslab-eu-lab"
          ]
        },
        "performer": [
          {
            "display": "The Central European Lab"
          }
        ],
        "category": [
          {
            "coding": [
              {
                "system": "http://terminology.hl7.org/CodeSystem/observation-category",
                "code": "laboratory"
              }
            ]
          }
        ],
        "code": {
          "coding": [
            {
              "code": "5804-0",
              "system": "http://loinc.org",
              "display": "Protein [Mass/volume] in Urine by Test strip"
            }
          ],
          "text": "Protein [Mass/volume] in Urine by Test strip"
        },
        "valueQuantity": {
          "system": "http://unitsofmeasure.org",
          "value": 298.3,
          "unit": "mg/dL",
          "code": "mg/dL"
        },
        "referenceRange": [
          {
            "low": {
              "value": 0,
              "code": "mg/dL",
              "system": "http://unitsofmeasure.org"
            }
          },
          {
            "high": {
              "value": 150,
              "code": "mg/dL",
              "system": "http://unitsofmeasure.org"
            }
          }
        ],
        "interpretation": [
          {
            "coding": [
              {
                "code": "H",
                "system": "http://terminology.hl7.org/CodeSystem/v3-ObservationInterpretation",
                "display": "High"
              }
            ]
          }
        ],
        "text": {
          "status": "generated",
          "div": "<div xmlns=\"http://www.w3.org/1999/xhtml\"><table class=\"hl7__eu__lab__report\"><tr><th>Test</th><th>08-Jun-2016</th><th>Reference&#xA0;Range</th><th>Unit</th></tr><tr><td>Protein [Mass/volume] in Urine by Test strip</td><td>298.3</td><td>0 - 150</td><td>H</td><td>mg/dL</td></tr></table></div>"
        },
        "status": "final",
        "subject": {
          "reference": "urn:uuid:5565eb09-8cc6-4a8c-ae36-04cccaa1df7d",
          "display": "Θεμιστοκλής Λιναρδάκη"
        },
        "effectiveDateTime": "2016-06-08T06:16:00Z",
        "specimen": {
          "reference": "urn:uuid:1d346622-e2ae-4bdb-a007-11fa8cd1b347"
        }
      }
    },
    {
      "fullUrl": "urn:uuid:dad92b31-80a7-4a35-b6ed-9dc9edcd8d26",
      "resource": {
        "resourceType": "Observation",
        "id": "dad92b31-80a7-4a35-b6ed-9dc9edcd8d26",
        "meta": {
          "profile": [
            "http://hl7.eu/fhir/laboratory/StructureDefinition/Observation-resultslab-eu-lab"
          ]
        },
        "performer": [
          {
            "display": "The Central European Lab"
          }
        ],
        "category": [
          {
            "coding": [
              {
                "system": "http://terminology.hl7.org/CodeSystem/observation-category",
                "code": "laboratory"
              }
            ]
          }
        ],
        "code": {
          "coding": [
            {
              "code": "20454-5",
              "system": "http://loinc.org",
              "display": "Protein [Presence] in Urine by Test strip"
            }
          ],
          "text": "Protein [Presence] in Urine by Test strip"
        },
        "text": {
          "status": "generated",
          "div": "<div xmlns=\"http://www.w3.org/1999/xhtml\"><table class=\"hl7__eu__lab__report\"><tr><th>Test</th><th>08-Jun-2016</th><th>Reference&#xA0;Range</th><th>Unit</th></tr><tr><td>Protein [Presence] in Urine by Test strip</td></tr></table></div>"
        },
        "status": "final",
        "subject": {
          "reference": "urn:uuid:5565eb09-8cc6-4a8c-ae36-04cccaa1df7d",
          "display": "Θεμιστοκλής Λιναρδάκη"
        },
        "effectiveDateTime": "2016-06-08T06:16:00Z",
        "specimen": {
          "reference": "urn:uuid:1d346622-e2ae-4bdb-a007-11fa8cd1b347"
        }
      }
    },
    {
      "fullUrl": "urn:uuid:7cf0592b-9373-4979-897d-8510451c6860",
      "resource": {
        "resourceType": "Observation",
        "id": "7cf0592b-9373-4979-897d-8510451c6860",
        "meta": {
          "profile": [
            "http://hl7.eu/fhir/laboratory/StructureDefinition/Observation-resultslab-eu-lab"
          ]
        },
        "performer": [
          {
            "display": "The Central European Lab"
          }
        ],
        "category": [
          {
            "coding": [
              {
                "system": "http://terminology.hl7.org/CodeSystem/observation-category",
                "code": "laboratory"
              }
            ]
          }
        ],
        "code": {
          "coding": [
            {
              "code": "5802-4",
              "system": "http://loinc.org",
              "display": "Nitrite [Presence] in Urine by Test strip"
            }
          ],
          "text": "Nitrite [Presence] in Urine by Test strip"
        },
        "text": {
          "status": "generated",
          "div": "<div xmlns=\"http://www.w3.org/1999/xhtml\"><table class=\"hl7__eu__lab__report\"><tr><th>Test</th><th>08-Jun-2016</th><th>Reference&#xA0;Range</th><th>Unit</th></tr><tr><td>Nitrite [Presence] in Urine by Test strip</td></tr></table></div>"
        },
        "status": "final",
        "subject": {
          "reference": "urn:uuid:5565eb09-8cc6-4a8c-ae36-04cccaa1df7d",
          "display": "Θεμιστοκλής Λιναρδάκη"
        },
        "effectiveDateTime": "2016-06-08T06:16:00Z",
        "specimen": {
          "reference": "urn:uuid:1d346622-e2ae-4bdb-a007-11fa8cd1b347"
        }
      }
    },
    {
      "fullUrl": "urn:uuid:fc4f7a3f-7e49-477e-ace8-11a341a642a5",
      "resource": {
        "resourceType": "Observation",
        "id": "fc4f7a3f-7e49-477e-ace8-11a341a642a5",
        "meta": {
          "profile": [
            "http://hl7.eu/fhir/laboratory/StructureDefinition/Observation-resultslab-eu-lab"
          ]
        },
        "performer": [
          {
            "display": "The Central European Lab"
          }
        ],
        "category": [
          {
            "coding": [
              {
                "system": "http://terminology.hl7.org/CodeSystem/observation-category",
                "code": "laboratory"
              }
            ]
          }
        ],
        "code": {
          "coding": [
            {
              "code": "5794-3",
              "system": "http://loinc.org",
              "display": "Hemoglobin [Presence] in Urine by Test strip"
            }
          ],
          "text": "Hemoglobin [Presence] in Urine by Test strip"
        },
        "text": {
          "status": "generated",
          "div": "<div xmlns=\"http://www.w3.org/1999/xhtml\"><table class=\"hl7__eu__lab__report\"><tr><th>Test</th><th>08-Jun-2016</th><th>Reference&#xA0;Range</th><th>Unit</th></tr><tr><td>Hemoglobin [Presence] in Urine by Test strip</td></tr></table></div>"
        },
        "status": "final",
        "subject": {
          "reference": "urn:uuid:5565eb09-8cc6-4a8c-ae36-04cccaa1df7d",
          "display": "Θεμιστοκλής Λιναρδάκη"
        },
        "effectiveDateTime": "2016-06-08T06:16:00Z",
        "specimen": {
          "reference": "urn:uuid:1d346622-e2ae-4bdb-a007-11fa8cd1b347"
        }
      }
    },
    {
      "fullUrl": "urn:uuid:04182346-63d4-4afc-a93b-f2967697351a",
      "resource": {
        "resourceType": "Observation",
        "id": "04182346-63d4-4afc-a93b-f2967697351a",
        "meta": {
          "profile": [
            "http://hl7.eu/fhir/laboratory/StructureDefinition/Observation-resultslab-eu-lab"
          ]
        },
        "performer": [
          {
            "display": "The Central European Lab"
          }
        ],
        "category": [
          {
            "coding": [
              {
                "system": "http://terminology.hl7.org/CodeSystem/observation-category",
                "code": "laboratory"
              }
            ]
          }
        ],
        "code": {
          "coding": [
            {
              "code": "5799-2",
              "system": "http://loinc.org",
              "display": "Leukocyte esterase [Presence] in Urine by Test strip"
            }
          ],
          "text": "Leukocyte esterase [Presence] in Urine by Test strip"
        },
        "text": {
          "status": "generated",
          "div": "<div xmlns=\"http://www.w3.org/1999/xhtml\"><table class=\"hl7__eu__lab__report\"><tr><th>Test</th><th>08-Jun-2016</th><th>Reference&#xA0;Range</th><th>Unit</th></tr><tr><td>Leukocyte esterase [Presence] in Urine by Test strip</td></tr></table></div>"
        },
        "status": "final",
        "subject": {
          "reference": "urn:uuid:5565eb09-8cc6-4a8c-ae36-04cccaa1df7d",
          "display": "Θεμιστοκλής Λιναρδάκη"
        },
        "effectiveDateTime": "2016-06-08T06:16:00Z",
        "specimen": {
          "reference": "urn:uuid:1d346622-e2ae-4bdb-a007-11fa8cd1b347"
        }
      }
    },
    {
      "fullUrl": "urn:uuid:716dc778-b616-47c8-9974-8f5b09e9c830",
      "resource": {
        "resourceType": "Observation",
        "id": "716dc778-b616-47c8-9974-8f5b09e9c830",
        "meta": {
          "profile": [
            "http://hl7.eu/fhir/laboratory/StructureDefinition/Observation-resultslab-eu-lab"
          ]
        },
        "performer": [
          {
            "display": "The Central European Lab"
          }
        ],
        "category": [
          {
            "coding": [
              {
                "system": "http://terminology.hl7.org/CodeSystem/observation-category",
                "code": "laboratory"
              }
            ]
          }
        ],
        "code": {
          "coding": [
            {
              "code": "4548-4",
              "system": "http://loinc.org",
              "display": "Hemoglobin A1c/Hemoglobin.total in Blood"
            }
          ],
          "text": "Hemoglobin A1c/Hemoglobin.total in Blood"
        },
        "valueQuantity": {
          "system": "http://unitsofmeasure.org",
          "value": 2.9,
          "unit": "%",
          "code": "%"
        },
        "referenceRange": [
          {
            "low": {
              "value": 4.3,
              "code": "%",
              "system": "http://unitsofmeasure.org"
            }
          },
          {
            "high": {
              "value": 6.4,
              "code": "%",
              "system": "http://unitsofmeasure.org"
            }
          }
        ],
        "interpretation": [
          {
            "coding": [
              {
                "code": "L",
                "system": "http://terminology.hl7.org/CodeSystem/v3-ObservationInterpretation",
                "display": "Low"
              }
            ]
          }
        ],
        "text": {
          "status": "generated",
          "div": "<div xmlns=\"http://www.w3.org/1999/xhtml\"><table class=\"hl7__eu__lab__report\"><tr><th>Test</th><th>08-Jun-2016</th><th>Reference&#xA0;Range</th><th>Unit</th></tr><tr><td>Hemoglobin A1c/Hemoglobin.total in Blood</td><td>2.9</td><td>4.3 - 6.4</td><td>L</td><td>%</td></tr></table></div>"
        },
        "status": "final",
        "subject": {
          "reference": "urn:uuid:5565eb09-8cc6-4a8c-ae36-04cccaa1df7d",
          "display": "Θεμιστοκλής Λιναρδάκη"
        },
        "effectiveDateTime": "2016-06-08T06:16:00Z",
        "specimen": {
          "reference": "urn:uuid:c9e1e28b-219a-4729-a7a3-4eab89649636"
        }
      }
    },
    {
      "fullUrl": "urn:uuid:c609e73a-56a3-4544-95cf-99a08bc27be4",
      "resource": {
        "resourceType": "Observation",
        "id": "c609e73a-56a3-4544-95cf-99a08bc27be4",
        "meta": {
          "profile": [
            "http://hl7.eu/fhir/laboratory/StructureDefinition/Observation-resultslab-eu-lab"
          ]
        },
        "performer": [
          {
            "display": "The Central European Lab"
          }
        ],
        "category": [
          {
            "coding": [
              {
                "system": "http://terminology.hl7.org/CodeSystem/observation-category",
                "code": "laboratory"
              }
            ]
          }
        ],
        "code": {
          "coding": [
            {
              "code": "2339-0",
              "system": "http://loinc.org",
              "display": "Glucose [Mass/volume] in Blood"
            }
          ],
          "text": "Glucose [Mass/volume] in Blood"
        },
        "valueQuantity": {
          "system": "http://unitsofmeasure.org",
          "value": 99.4,
          "unit": "mg/dL",
          "code": "mg/dL"
        },
        "referenceRange": [
          {
            "low": {
              "value": 70,
              "code": "mg/dL",
              "system": "http://unitsofmeasure.org"
            }
          },
          {
            "high": {
              "value": 140,
              "code": "mg/dL",
              "system": "http://unitsofmeasure.org"
            }
          }
        ],
        "text": {
          "status": "generated",
          "div": "<div xmlns=\"http://www.w3.org/1999/xhtml\"><table class=\"hl7__eu__lab__report\"><tr><th>Test</th><th>08-Jun-2016</th><th>Reference&#xA0;Range</th><th>Unit</th></tr><tr><td>Glucose [Mass/volume] in Blood</td><td>99.4</td><td>70 - 140</td><td></td><td>mg/dL</td></tr></table></div>"
        },
        "status": "final",
        "subject": {
          "reference": "urn:uuid:5565eb09-8cc6-4a8c-ae36-04cccaa1df7d",
          "display": "Θεμιστοκλής Λιναρδάκη"
        },
        "effectiveDateTime": "2016-06-08T06:16:00Z",
        "specimen": {
          "reference": "urn:uuid:c9e1e28b-219a-4729-a7a3-4eab89649636"
        }
      }
    },
    {
      "fullUrl": "urn:uuid:80d48cb9-1f35-4a4e-808a-069a03ea1c1a",
      "resource": {
        "resourceType": "Observation",
        "id": "80d48cb9-1f35-4a4e-808a-069a03ea1c1a",
        "meta": {
          "profile": [
            "http://hl7.eu/fhir/laboratory/StructureDefinition/Observation-resultslab-eu-lab"
          ]
        },
        "performer": [
          {
            "display": "The Central European Lab"
          }
        ],
        "category": [
          {
            "coding": [
              {
                "system": "http://terminology.hl7.org/CodeSystem/observation-category",
                "code": "laboratory"
              }
            ]
          }
        ],
        "code": {
          "coding": [
            {
              "code": "6299-2",
              "system": "http://loinc.org",
              "display": "Urea nitrogen [Mass/volume] in Blood"
            }
          ],
          "text": "Urea nitrogen [Mass/volume] in Blood"
        },
        "valueQuantity": {
          "system": "http://unitsofmeasure.org",
          "value": 15.4,
          "unit": "mg/dL",
          "code": "mg/dL"
        },
        "referenceRange": [
          {
            "low": {
              "value": 7,
              "code": "mg/dL",
              "system": "http://unitsofmeasure.org"
            }
          },
          {
            "high": {
              "value": 20,
              "code": "mg/dL",
              "system": "http://unitsofmeasure.org"
            }
          }
        ],
        "text": {
          "status": "generated",
          "div": "<div xmlns=\"http://www.w3.org/1999/xhtml\"><table class=\"hl7__eu__lab__report\"><tr><th>Test</th><th>08-Jun-2016</th><th>Reference&#xA0;Range</th><th>Unit</th></tr><tr><td>Urea nitrogen [Mass/volume] in Blood</td><td>15.4</td><td>7 - 20</td><td></td><td>mg/dL</td></tr></table></div>"
        },
        "status": "final",
        "subject": {
          "reference": "urn:uuid:5565eb09-8cc6-4a8c-ae36-04cccaa1df7d",
          "display": "Θεμιστοκλής Λιναρδάκη"
        },
        "effectiveDateTime": "2016-06-08T06:16:00Z",
        "specimen": {
          "reference": "urn:uuid:c9e1e28b-219a-4729-a7a3-4eab89649636"
        }
      }
    },
    {
      "fullUrl": "urn:uuid:02fd4143-48e2-483c-be59-c5d34e4364c6",
      "resource": {
        "resourceType": "Observation",
        "id": "02fd4143-48e2-483c-be59-c5d34e4364c6",
        "meta": {
          "profile": [
            "http://hl7.eu/fhir/laboratory/StructureDefinition/Observation-resultslab-eu-lab"
          ]
        },
        "performer": [
          {
            "display": "The Central European Lab"
          }
        ],
        "category": [
          {
            "coding": [
              {
                "system": "http://terminology.hl7.org/CodeSystem/observation-category",
                "code": "laboratory"
              }
            ]
          }
        ],
        "code": {
          "coding": [
            {
              "code": "38483-4",
              "system": "http://loinc.org",
              "display": "Creatinine [Mass/volume] in Blood"
            }
          ],
          "text": "Creatinine [Mass/volume] in Blood"
        },
        "valueQuantity": {
          "system": "http://unitsofmeasure.org",
          "value": 2.4,
          "unit": "mg/dL",
          "code": "mg/dL"
        },
        "referenceRange": [
          {
            "low": {
              "value": 0.6,
              "code": "mg/dL",
              "system": "http://unitsofmeasure.org"
            }
          },
          {
            "high": {
              "value": 1.3,
              "code": "mg/dL",
              "system": "http://unitsofmeasure.org"
            }
          }
        ],
        "interpretation": [
          {
            "coding": [
              {
                "code": "H",
                "system": "http://terminology.hl7.org/CodeSystem/v3-ObservationInterpretation",
                "display": "High"
              }
            ]
          }
        ],
        "text": {
          "status": "generated",
          "div": "<div xmlns=\"http://www.w3.org/1999/xhtml\"><table class=\"hl7__eu__lab__report\"><tr><th>Test</th><th>08-Jun-2016</th><th>Reference&#xA0;Range</th><th>Unit</th></tr><tr><td>Creatinine [Mass/volume] in Blood</td><td>2.4</td><td>0.6 - 1.3</td><td>H</td><td>mg/dL</td></tr></table></div>"
        },
        "status": "final",
        "subject": {
          "reference": "urn:uuid:5565eb09-8cc6-4a8c-ae36-04cccaa1df7d",
          "display": "Θεμιστοκλής Λιναρδάκη"
        },
        "effectiveDateTime": "2016-06-08T06:16:00Z",
        "specimen": {
          "reference": "urn:uuid:c9e1e28b-219a-4729-a7a3-4eab89649636"
        }
      }
    },
    {
      "fullUrl": "urn:uuid:88aa586c-ef45-491b-9d5a-02583c0a306b",
      "resource": {
        "resourceType": "Observation",
        "id": "88aa586c-ef45-491b-9d5a-02583c0a306b",
        "meta": {
          "profile": [
            "http://hl7.eu/fhir/laboratory/StructureDefinition/Observation-resultslab-eu-lab"
          ]
        },
        "performer": [
          {
            "display": "The Central European Lab"
          }
        ],
        "category": [
          {
            "coding": [
              {
                "system": "http://terminology.hl7.org/CodeSystem/observation-category",
                "code": "laboratory"
              }
            ]
          }
        ],
        "code": {
          "coding": [
            {
              "code": "49765-1",
              "system": "http://loinc.org",
              "display": "Calcium [Mass/volume] in Blood"
            }
          ],
          "text": "Calcium [Mass/volume] in Blood"
        },
        "valueQuantity": {
          "system": "http://unitsofmeasure.org",
          "value": 10.1,
          "unit": "mg/dL",
          "code": "mg/dL"
        },
        "referenceRange": [
          {
            "low": {
              "value": 8.5,
              "code": "mg/dL",
              "system": "http://unitsofmeasure.org"
            }
          },
          {
            "high": {
              "value": 10.5,
              "code": "mg/dL",
              "system": "http://unitsofmeasure.org"
            }
          }
        ],
        "text": {
          "status": "generated",
          "div": "<div xmlns=\"http://www.w3.org/1999/xhtml\"><table class=\"hl7__eu__lab__report\"><tr><th>Test</th><th>08-Jun-2016</th><th>Reference&#xA0;Range</th><th>Unit</th></tr><tr><td>Calcium [Mass/volume] in Blood</td><td>10.1</td><td>8.5 - 10.5</td><td></td><td>mg/dL</td></tr></table></div>"
        },
        "status": "final",
        "subject": {
          "reference": "urn:uuid:5565eb09-8cc6-4a8c-ae36-04cccaa1df7d",
          "display": "Θεμιστοκλής Λιναρδάκη"
        },
        "effectiveDateTime": "2016-06-08T06:16:00Z",
        "specimen": {
          "reference": "urn:uuid:c9e1e28b-219a-4729-a7a3-4eab89649636"
        }
      }
    },
    {
      "fullUrl": "urn:uuid:1e89be5b-fce0-4617-ad68-a2fb4b4c8a71",
      "resource": {
        "resourceType": "Observation",
        "id": "1e89be5b-fce0-4617-ad68-a2fb4b4c8a71",
        "meta": {
          "profile": [
            "http://hl7.eu/fhir/laboratory/StructureDefinition/Observation-resultslab-eu-lab"
          ]
        },
        "performer": [
          {
            "display": "The Central European Lab"
          }
        ],
        "category": [
          {
            "coding": [
              {
                "system": "http://terminology.hl7.org/CodeSystem/observation-category",
                "code": "laboratory"
              }
            ]
          }
        ],
        "code": {
          "coding": [
            {
              "code": "2947-0",
              "system": "http://loinc.org",
              "display": "Sodium [Moles/volume] in Blood"
            }
          ],
          "text": "Sodium [Moles/volume] in Blood"
        },
        "valueQuantity": {
          "system": "http://unitsofmeasure.org",
          "value": 137,
          "unit": "mmol/L",
          "code": "mmol/L"
        },
        "referenceRange": [
          {
            "low": {
              "value": 135,
              "code": "mmol/L",
              "system": "http://unitsofmeasure.org"
            }
          },
          {
            "high": {
              "value": 145,
              "code": "mmol/L",
              "system": "http://unitsofmeasure.org"
            }
          }
        ],
        "text": {
          "status": "generated",
          "div": "<div xmlns=\"http://www.w3.org/1999/xhtml\"><table class=\"hl7__eu__lab__report\"><tr><th>Test</th><th>08-Jun-2016</th><th>Reference&#xA0;Range</th><th>Unit</th></tr><tr><td>Sodium [Moles/volume] in Blood</td><td>137.0</td><td>135 - 145</td><td></td><td>mmol/L</td></tr></table></div>"
        },
        "status": "final",
        "subject": {
          "reference": "urn:uuid:5565eb09-8cc6-4a8c-ae36-04cccaa1df7d",
          "display": "Θεμιστοκλής Λιναρδάκη"
        },
        "effectiveDateTime": "2016-06-08T06:16:00Z",
        "specimen": {
          "reference": "urn:uuid:c9e1e28b-219a-4729-a7a3-4eab89649636"
        }
      }
    },
    {
      "fullUrl": "urn:uuid:2edf9c5b-3bc4-40c5-848b-f8c8a4bcc4f4",
      "resource": {
        "resourceType": "Observation",
        "id": "2edf9c5b-3bc4-40c5-848b-f8c8a4bcc4f4",
        "meta": {
          "profile": [
            "http://hl7.eu/fhir/laboratory/StructureDefinition/Observation-resultslab-eu-lab"
          ]
        },
        "performer": [
          {
            "display": "The Central European Lab"
          }
        ],
        "category": [
          {
            "coding": [
              {
                "system": "http://terminology.hl7.org/CodeSystem/observation-category",
                "code": "laboratory"
              }
            ]
          }
        ],
        "code": {
          "coding": [
            {
              "code": "6298-4",
              "system": "http://loinc.org",
              "display": "Potassium [Moles/volume] in Blood"
            }
          ],
          "text": "Potassium [Moles/volume] in Blood"
        },
        "valueQuantity": {
          "system": "http://unitsofmeasure.org",
          "value": 4,
          "unit": "mmol/L",
          "code": "mmol/L"
        },
        "referenceRange": [
          {
            "low": {
              "value": 3.5,
              "code": "mmol/L",
              "system": "http://unitsofmeasure.org"
            }
          },
          {
            "high": {
              "value": 5.3,
              "code": "mmol/L",
              "system": "http://unitsofmeasure.org"
            }
          }
        ],
        "text": {
          "status": "generated",
          "div": "<div xmlns=\"http://www.w3.org/1999/xhtml\"><table class=\"hl7__eu__lab__report\"><tr><th>Test</th><th>08-Jun-2016</th><th>Reference&#xA0;Range</th><th>Unit</th></tr><tr><td>Potassium [Moles/volume] in Blood</td><td>4.0</td><td>3.5 - 5.3</td><td></td><td>mmol/L</td></tr></table></div>"
        },
        "status": "final",
        "subject": {
          "reference": "urn:uuid:5565eb09-8cc6-4a8c-ae36-04cccaa1df7d",
          "display": "Θεμιστοκλής Λιναρδάκη"
        },
        "effectiveDateTime": "2016-06-08T06:16:00Z",
        "specimen": {
          "reference": "urn:uuid:c9e1e28b-219a-4729-a7a3-4eab89649636"
        }
      }
    },
    {
      "fullUrl": "urn:uuid:900970aa-b88c-4e85-8e17-34ab0b3080a2",
      "resource": {
        "resourceType": "Observation",
        "id": "900970aa-b88c-4e85-8e17-34ab0b3080a2",
        "meta": {
          "profile": [
            "http://hl7.eu/fhir/laboratory/StructureDefinition/Observation-resultslab-eu-lab"
          ]
        },
        "performer": [
          {
            "display": "The Central European Lab"
          }
        ],
        "category": [
          {
            "coding": [
              {
                "system": "http://terminology.hl7.org/CodeSystem/observation-category",
                "code": "laboratory"
              }
            ]
          }
        ],
        "code": {
          "coding": [
            {
              "code": "2069-3",
              "system": "http://loinc.org",
              "display": "Chloride [Moles/volume] in Blood"
            }
          ],
          "text": "Chloride [Moles/volume] in Blood"
        },
        "valueQuantity": {
          "system": "http://unitsofmeasure.org",
          "value": 107.1,
          "unit": "mmol/L",
          "code": "mmol/L"
        },
        "referenceRange": [
          {
            "low": {
              "value": 98,
              "code": "mmol/L",
              "system": "http://unitsofmeasure.org"
            }
          },
          {
            "high": {
              "value": 110,
              "code": "mmol/L",
              "system": "http://unitsofmeasure.org"
            }
          }
        ],
        "text": {
          "status": "generated",
          "div": "<div xmlns=\"http://www.w3.org/1999/xhtml\"><table class=\"hl7__eu__lab__report\"><tr><th>Test</th><th>08-Jun-2016</th><th>Reference&#xA0;Range</th><th>Unit</th></tr><tr><td>Chloride [Moles/volume] in Blood</td><td>107.1</td><td>98 - 110</td><td></td><td>mmol/L</td></tr></table></div>"
        },
        "status": "final",
        "subject": {
          "reference": "urn:uuid:5565eb09-8cc6-4a8c-ae36-04cccaa1df7d",
          "display": "Θεμιστοκλής Λιναρδάκη"
        },
        "effectiveDateTime": "2016-06-08T06:16:00Z",
        "specimen": {
          "reference": "urn:uuid:c9e1e28b-219a-4729-a7a3-4eab89649636"
        }
      }
    },
    {
      "fullUrl": "urn:uuid:cb0ea574-b92b-4461-a73c-dfb0964354d0",
      "resource": {
        "resourceType": "Observation",
        "id": "cb0ea574-b92b-4461-a73c-dfb0964354d0",
        "meta": {
          "profile": [
            "http://hl7.eu/fhir/laboratory/StructureDefinition/Observation-resultslab-eu-lab"
          ]
        },
        "performer": [
          {
            "display": "The Central European Lab"
          }
        ],
        "category": [
          {
            "coding": [
              {
                "system": "http://terminology.hl7.org/CodeSystem/observation-category",
                "code": "laboratory"
              }
            ]
          }
        ],
        "code": {
          "coding": [
            {
              "code": "20565-8",
              "system": "http://loinc.org",
              "display": "Carbon dioxide, total [Moles/volume] in Blood"
            }
          ],
          "text": "Carbon dioxide, total [Moles/volume] in Blood"
        },
        "valueQuantity": {
          "system": "http://unitsofmeasure.org",
          "value": 22.3,
          "unit": "mmol/L",
          "code": "mmol/L"
        },
        "referenceRange": [
          {
            "low": {
              "value": 22,
              "code": "mmol/L",
              "system": "http://unitsofmeasure.org"
            }
          },
          {
            "high": {
              "value": 29,
              "code": "mmol/L",
              "system": "http://unitsofmeasure.org"
            }
          }
        ],
        "text": {
          "status": "generated",
          "div": "<div xmlns=\"http://www.w3.org/1999/xhtml\"><table class=\"hl7__eu__lab__report\"><tr><th>Test</th><th>08-Jun-2016</th><th>Reference&#xA0;Range</th><th>Unit</th></tr><tr><td>Carbon dioxide, total [Moles/volume] in Blood</td><td>22.3</td><td>22 - 29</td><td></td><td>mmol/L</td></tr></table></div>"
        },
        "status": "final",
        "subject": {
          "reference": "urn:uuid:5565eb09-8cc6-4a8c-ae36-04cccaa1df7d",
          "display": "Θεμιστοκλής Λιναρδάκη"
        },
        "effectiveDateTime": "2016-06-08T06:16:00Z",
        "specimen": {
          "reference": "urn:uuid:c9e1e28b-219a-4729-a7a3-4eab89649636"
        }
      }
    },
    {
      "fullUrl": "urn:uuid:967d635c-79db-4f63-9cf5-e8b4a938a26e",
      "resource": {
        "resourceType": "Device",
        "id": "967d635c-79db-4f63-9cf5-e8b4a938a26e",
        "deviceName": [
          {
            "name": "SYNDERAI Synthetic Generator",
            "type": "manufacturer-name"
          }
        ],
        "version": [
          {
            "value": "5.0"
          }
        ],
        "text": {
          "status": "generated",
          "div": "<div xmlns=\"http://www.w3.org/1999/xhtml\">SYNDERAI Synthetic Generator v5.0</div>"
        },
        "status": "active\"",
        "distinctIdentifier": "synderai-generator-50",
        "manufacturer": "SYNDERAI Project"
      }
    },
    {
      "fullUrl": "urn:uuid:26012262-aacc-4ea8-8cdb-69ff2d0287e0",
      "resource": {
        "resourceType": "Provenance",
        "id": "26012262-aacc-4ea8-8cdb-69ff2d0287e0",
        "target": [
          {
            "reference": "Patient/5565eb09-8cc6-4a8c-ae36-04cccaa1df7d"
          },
          {
            "reference": "Bundle/f5f7c8bf-df87-417c-af8e-e1283fc05b09"
          },
          {
            "reference": "Composition/ef14b3ea-9179-4357-80fe-3ce7a2910255"
          },
          {
            "reference": "PractitionerRole/9fa80c73-b27e-43e2-becd-fe2e39bf92b7"
          },
          {
            "reference": "Practitioner/32752df1-e50c-45be-aa71-365a0a40d2b1"
          },
          {
            "reference": "PractitionerRole/bf62947d-ede1-4445-9e00-f5a9135da386"
          },
          {
            "reference": "Organization/c3674d03-4b89-43fb-adbb-798b34c49038"
          }
        ],
        "activity": {
          "text": "Synthetic Example Data Generation"
        },
        "policy": [
          "https://synderai.net/synderai-synthetic-data-policy"
        ],
        "agent": [
          {
            "type": {
              "text": "author"
            },
            "who": {
              "reference": "Device/967d635c-79db-4f63-9cf5-e8b4a938a26e"
            }
          }
        ],
        "reason": [
          {
            "text": "Interoperability Testing and Training (non-clinical use)"
          }
        ],
        "text": {
          "status": "generated",
          "div": "<div xmlns=\"http://www.w3.org/1999/xhtml\">Provenance for SYNDERAI Synthetic Example Data Resource</div>"
        },
        "recorded": "2016-06-08T08:16:00Z"
      }
    },
    {
      "fullUrl": "urn:uuid:9fa80c73-b27e-43e2-becd-fe2e39bf92b7",
      "resource": {
        "resourceType": "PractitionerRole",
        "id": "9fa80c73-b27e-43e2-becd-fe2e39bf92b7",
        "meta": {
          "profile": [
            "http://hl7.eu/fhir/base/StructureDefinition/practitionerRole-eu"
          ]
        },
        "text": {
          "status": "generated",
          "div": "<div xmlns=\"http://www.w3.org/1999/xhtml\">Laboratory Role Id: 9fa80c73-b27e-43e2-becd-fe2e39bf92b7</div>"
        },
        "practitioner": {
          "reference": "urn:uuid:32752df1-e50c-45be-aa71-365a0a40d2b1"
        }
      }
    },
    {
      "fullUrl": "urn:uuid:32752df1-e50c-45be-aa71-365a0a40d2b1",
      "resource": {
        "resourceType": "Practitioner",
        "id": "32752df1-e50c-45be-aa71-365a0a40d2b1",
        "meta": {
          "profile": [
            "http://hl7.eu/fhir/base/StructureDefinition/practitioner-eu"
          ]
        },
        "identifier": [
          {
            "assigner": {
              "display": "HL7 Europe"
            },
            "system": "urn:oid:2.16.840.1.113883.2.51.999",
            "value": "76c8a48e-7feb-4b98-8d2a-9600dcc8099b"
          }
        ],
        "name": [
          {
            "prefix": [
              "dr"
            ],
            "given": [
              "Ex"
            ],
            "family": "Ample"
          }
        ],
        "address": [
          {
            "line": [
              "Laboratoire Central Européenne",
              "Boulevard du Jardin Botanique 32"
            ],
            "postalCode": "1000",
            "city": "Brussels",
            "country": "Belgium"
          }
        ],
        "text": {
          "status": "generated",
          "div": "<div xmlns=\"http://www.w3.org/1999/xhtml\">Laboratory: Laboratoire Central Européenne, 1000 Brussels, Belgium</div>"
        }
      }
    }
  ],
  "type": "document",
  "timestamp": "2016-06-08T08:16:00Z"
}
