{
  "resourceType": "Bundle",
  "id": "56f5cf16-71e9-4a6f-b855-3f528311120f",
  "meta": {
    "profile": [
      "http://hl7.eu/fhir/laboratory/StructureDefinition/Bundle-eu-lab"
    ]
  },
  "identifier": {
    "assigner": {
      "display": "HL7 Europe"
    },
    "system": "urn:oid:2.16.840.1.113883.2.51.999",
    "value": "10186af1-2554-441e-bedb-ff6899dd51df"
  },
  "entry": [
    {
      "fullUrl": "urn:uuid:7867e91d-6972-4773-a553-a0fe0cd29dfe",
      "resource": {
        "resourceType": "Composition",
        "id": "7867e91d-6972-4773-a553-a0fe0cd29dfe",
        "meta": {
          "profile": [
            "http://hl7.eu/fhir/laboratory/StructureDefinition/Composition-eu-lab"
          ]
        },
        "identifier": {
          "assigner": {
            "display": "HL7 Europe"
          },
          "system": "urn:oid:2.16.840.1.113883.2.51.999",
          "value": "0f1af9ff-384e-4d6e-87d7-f467c30c7ce5"
        },
        "author": [
          {
            "reference": "urn:uuid:437fc2fc-a9a7-499e-a5c7-ca91805ae0d5"
          }
        ],
        "category": [
          {
            "coding": [
              {
                "code": "26436-6",
                "system": "http://loinc.org",
                "display": "Laboratory studies (set)"
              }
            ]
          }
        ],
        "type": {
          "coding": [
            {
              "code": "11502-2",
              "system": "http://loinc.org",
              "display": "Laboratory report"
            }
          ],
          "text": "Laboratory Report"
        },
        "section": [
          {
            "code": {
              "coding": [
                {
                  "code": "26436-6",
                  "system": "http://loinc.org",
                  "display": "Laboratory studies (set)"
                }
              ],
              "text": "Laboratory studies"
            },
            "section": [
              {
                "code": {
                  "coding": [
                    {
                      "code": "$18719-5",
                      "system": "http://loinc.org",
                      "display": "Chemistry studies (set)"
                    }
                  ],
                  "text": "Chemistry"
                },
                "entry": [
                  {
                    "reference": "urn:uuid:474dcb9c-4beb-4f70-baa2-f6a3a38f9b88"
                  },
                  {
                    "reference": "urn:uuid:a2989d4f-0d32-4eed-942b-2d0f863a6065"
                  },
                  {
                    "reference": "urn:uuid:5e8116ff-8e1f-4896-bd3c-c7246869d096"
                  },
                  {
                    "reference": "urn:uuid:8cdb7018-da48-449d-8859-e041c62f822e"
                  },
                  {
                    "reference": "urn:uuid:388fa76a-b3b3-49ec-a49d-7a6c6dc41a49"
                  },
                  {
                    "reference": "urn:uuid:d6319d12-08c2-4799-bc83-8d84aa64b363"
                  },
                  {
                    "reference": "urn:uuid:825d5397-ef6b-4269-863a-d509033fc2d9"
                  },
                  {
                    "reference": "urn:uuid:2de31bca-1cd7-41eb-b284-abbb52e9351e"
                  },
                  {
                    "reference": "urn:uuid:b7878f45-16a7-4635-8716-704e705fff22"
                  },
                  {
                    "reference": "urn:uuid:bfb587ae-8122-4c3c-a23a-1b7b39608501"
                  },
                  {
                    "reference": "urn:uuid:a629a361-50e1-4a00-9a8f-8685dad6ecba"
                  },
                  {
                    "reference": "urn:uuid:45aa3c0c-1964-49e8-bf4d-339db706e459"
                  },
                  {
                    "reference": "urn:uuid:e57ea241-6c7e-4421-a397-9b1aa487ea11"
                  },
                  {
                    "reference": "urn:uuid:cd9e6f2b-ee7d-4ebf-bcea-534585ed8822"
                  },
                  {
                    "reference": "urn:uuid:6bfaa394-cb3d-4af8-966e-f7e74082b010"
                  },
                  {
                    "reference": "urn:uuid:2f9031d2-a869-447b-8465-1d50d7e94d38"
                  },
                  {
                    "reference": "urn:uuid:8e414547-4c81-428b-920a-201aaa7eaca1"
                  },
                  {
                    "reference": "urn:uuid:c53fce40-1ba2-4589-ba0b-978c22bb76e0"
                  },
                  {
                    "reference": "urn:uuid:2e7108aa-2698-4588-905f-7c98cd4a69e1"
                  }
                ],
                "text": {
                  "status": "generated",
                  "div": "<div xmlns=\"http://www.w3.org/1999/xhtml\"><h3>Chemistry</h3><table class=\"hl7__eu__lab__report\"><thead><tr><th>Test</th><th>11-APR-2024</th><th>Reference&#xA0;Range</th><th>Unit</th></tr></thead><tbody><tr><td>Glucose [Mass/volume] in Blood</td><td>88.9</td><td>70 - 140</td><td>mg/dL</td></tr><tr><td>Urea nitrogen [Mass/volume] in Blood</td><td>8.6</td><td>7 - 25</td><td>mg/dL</td></tr><tr><td>Creatinine [Mass/volume] in Blood</td><td><strong>2.7 H</strong></td><td>0.9 - 1.3</td><td>mg/dL</td></tr><tr><td>Calcium [Mass/volume] in Blood</td><td>9.1</td><td>8.5 - 10.5</td><td>mg/dL</td></tr><tr><td>Sodium [Moles/volume] in Blood</td><td>140.0</td><td>135 - 145</td><td>mmol/L</td></tr><tr><td>Potassium [Moles/volume] in Blood</td><td>4.8</td><td>3.5 - 5.1</td><td>mmol/L</td></tr><tr><td>Chloride [Moles/volume] in Blood</td><td>108.2</td><td>98 - 110</td><td>mmol/L</td></tr><tr><td>Carbon dioxide, total [Moles/volume] in Blood</td><td>23.2</td><td>22 - 29</td><td>mmol/L</td></tr><tr><td>Protein [Mass/volume] in Serum or Plasma</td><td>7.3</td><td>6 - 8.3</td><td>g/dL</td></tr><tr><td>Albumin [Mass/volume] in Serum or Plasma</td><td>3.6</td><td>3.2 - 5.5</td><td>g/dL</td></tr><tr><td>Globulin [Mass/volume] in Serum by calculation</td><td>2.3</td><td>1.5 - 3.5</td><td>g/L</td></tr><tr><td>Bilirubin.total [Mass/volume] in Serum or Plasma</td><td>0.5</td><td>0.3 - 1.2</td><td>mg/dL</td></tr><tr><td>Alkaline phosphatase [Enzymatic activity/volume] in Serum or Plasma</td><td>59.3</td><td>39 - 147</td><td>U/L</td></tr><tr><td>Alanine aminotransferase [Enzymatic activity/volume] in Serum or Plasma</td><td>41.7</td><td>7 - 60</td><td>U/L</td></tr><tr><td>Aspartate aminotransferase [Enzymatic activity/volume] in Serum or Plasma</td><td>30.1</td><td>10 - 40</td><td>U/L</td></tr><tr><td>Cholesterol [Mass/volume] in Serum or Plasma</td><td>180.5</td><td>100 - 200</td><td>mg/dL</td></tr><tr><td>Triglyceride [Mass/volume] in Serum or Plasma</td><td>168.6</td><td>45 - 175</td><td>mg/dL</td></tr><tr><td>Cholesterol in LDL [Mass/volume] in Serum or Plasma by Direct assay</td><td>146.6</td><td>0 - 190</td><td>mg/dL</td></tr><tr><td>Cholesterol in HDL [Mass/volume] in Serum or Plasma</td><td>79.9</td><td>40 - 100</td><td>mg/dL</td></tr></tbody></table></div>"
                },
                "title": "Chemistry"
              }
            ],
            "title": "Laboratory Report"
          },
          {
            "text": {
              "status": "generated",
              "div": "<div xmlns=\"http://www.w3.org/1999/xhtml\"><h3>Annotation</h3><table class=\"hl7__eu__lab__report\"><tr><th>Conclusion and Recommendations based on this report and previous findings known to us</th></tr><tr><td>All parameters are within normal limits except for elevated creatinine (2.7 mg/dL), indicating impaired renal function. Electrolytes, liver enzymes, proteins, and lipid profile are unremarkable. Recommend clinical correlation for possible chronic kidney disease and assessment of renal function trend. No acute metabolic or hepatic abnormalities detected.</td></tr></table></div>"
            },
            "code": {
              "coding": [
                {
                  "system": "http://loinc.org",
                  "code": "48767-8",
                  "display": "Annotation comment"
                }
              ]
            },
            "title": "Annotation comment"
          }
        ],
        "status": "final",
        "subject": {
          "reference": "urn:uuid:baa7862d-c59d-47a9-b7c2-ef70ba0bd0e8",
          "display": "Urbano Cantón"
        },
        "date": "2024-04-11T19:07:13Z",
        "title": "Laboratory Report",
        "confidentiality": "N"
      }
    },
    {
      "fullUrl": "urn:uuid:510ab433-e6b5-42d3-86a8-1cc2ee8c263a",
      "resource": {
        "resourceType": "DiagnosticReport",
        "id": "510ab433-e6b5-42d3-86a8-1cc2ee8c263a",
        "meta": {
          "profile": [
            "http://hl7.eu/fhir/laboratory/StructureDefinition/DiagnosticReport-eu-lab"
          ]
        },
        "identifier": [
          {
            "assigner": {
              "display": "HL7 Europe"
            },
            "system": "urn:oid:2.16.840.1.113883.2.51.999",
            "value": "e2d60dbf-4265-48b9-bf05-3a2259507d26"
          }
        ],
        "extension": [
          {
            "url": "http://hl7.org/fhir/5.0/StructureDefinition/extension-DiagnosticReport.composition",
            "valueReference": {
              "reference": "urn:uuid:0f1af9ff-384e-4d6e-87d7-f467c30c7ce5"
            }
          }
        ],
        "category": [
          {
            "coding": [
              {
                "code": "26436-6",
                "system": "http://loinc.org",
                "display": "Laboratory studies (set)"
              }
            ]
          }
        ],
        "specimen": [
          {
            "reference": "urn:uuid:0c836bcf-fe69-4175-959c-1b67ca7fac4d"
          },
          {
            "reference": "urn:uuid:cd1183bc-4324-4ef4-a2c9-59188ad32d66"
          },
          {
            "reference": "urn:uuid:57001bd1-706d-4b1a-a2b7-290a5a10a572"
          }
        ],
        "result": [
          {
            "reference": "urn:uuid:474dcb9c-4beb-4f70-baa2-f6a3a38f9b88"
          },
          {
            "reference": "urn:uuid:a2989d4f-0d32-4eed-942b-2d0f863a6065"
          },
          {
            "reference": "urn:uuid:5e8116ff-8e1f-4896-bd3c-c7246869d096"
          },
          {
            "reference": "urn:uuid:8cdb7018-da48-449d-8859-e041c62f822e"
          },
          {
            "reference": "urn:uuid:388fa76a-b3b3-49ec-a49d-7a6c6dc41a49"
          },
          {
            "reference": "urn:uuid:d6319d12-08c2-4799-bc83-8d84aa64b363"
          },
          {
            "reference": "urn:uuid:825d5397-ef6b-4269-863a-d509033fc2d9"
          },
          {
            "reference": "urn:uuid:2de31bca-1cd7-41eb-b284-abbb52e9351e"
          },
          {
            "reference": "urn:uuid:b7878f45-16a7-4635-8716-704e705fff22"
          },
          {
            "reference": "urn:uuid:bfb587ae-8122-4c3c-a23a-1b7b39608501"
          },
          {
            "reference": "urn:uuid:a629a361-50e1-4a00-9a8f-8685dad6ecba"
          },
          {
            "reference": "urn:uuid:45aa3c0c-1964-49e8-bf4d-339db706e459"
          },
          {
            "reference": "urn:uuid:e57ea241-6c7e-4421-a397-9b1aa487ea11"
          },
          {
            "reference": "urn:uuid:cd9e6f2b-ee7d-4ebf-bcea-534585ed8822"
          },
          {
            "reference": "urn:uuid:6bfaa394-cb3d-4af8-966e-f7e74082b010"
          },
          {
            "reference": "urn:uuid:2f9031d2-a869-447b-8465-1d50d7e94d38"
          },
          {
            "reference": "urn:uuid:8e414547-4c81-428b-920a-201aaa7eaca1"
          },
          {
            "reference": "urn:uuid:c53fce40-1ba2-4589-ba0b-978c22bb76e0"
          },
          {
            "reference": "urn:uuid:2e7108aa-2698-4588-905f-7c98cd4a69e1"
          }
        ],
        "status": "registered",
        "code": {
          "coding": [
            {
              "code": "11502-2",
              "system": "http://loinc.org",
              "display": "Laboratory report"
            }
          ]
        },
        "subject": {
          "reference": "urn:uuid:baa7862d-c59d-47a9-b7c2-ef70ba0bd0e8",
          "display": "Urbano Cantón"
        }
      }
    },
    {
      "fullUrl": "urn:uuid:baa7862d-c59d-47a9-b7c2-ef70ba0bd0e8",
      "resource": {
        "resourceType": "Patient",
        "id": "baa7862d-c59d-47a9-b7c2-ef70ba0bd0e8",
        "meta": {
          "security": [
            {
              "system": "http://terminology.hl7.org/CodeSystem/v3-ActReason",
              "code": "HTEST"
            },
            {
              "system": "http://terminology.hl7.org/CodeSystem/v3-ActReason",
              "code": "TRAIN"
            }
          ],
          "tag": [
            {
              "system": "https://synderai.net/fhir/CodeSystem/tags",
              "code": "synthetic",
              "display": "SYNDERAI Synthetic data"
            }
          ],
          "profile": [
            "http://hl7.eu/fhir/base/StructureDefinition/patient-eu-core"
          ]
        },
        "identifier": [
          {
            "type": {
              "coding": [
                {
                  "code": "PT",
                  "system": "http://terminology.hl7.org/CodeSystem/v2-0203"
                }
              ]
            },
            "system": "http://ec.europa.eu/identifier/eci",
            "value": "8854-480268-4"
          },
          {
            "type": {
              "coding": [
                {
                  "code": "MR",
                  "system": "http://terminology.hl7.org/CodeSystem/v2-0203"
                }
              ]
            },
            "system": "http://local.setting.eu/identifier",
            "value": "91128f5c-658f-cfab-4640-b680ec2e24a1"
          }
        ],
        "name": [
          {
            "family": "Cantón"
          },
          {
            "given": [
              "Urbano"
            ]
          },
          {
            "text": "Urbano Cantón"
          }
        ],
        "address": [
          {
            "line": [
              "Vial Vito Trujillo 29 Piso 2 "
            ],
            "use": "home",
            "type": "physical",
            "postalCode": "38001",
            "city": "Santa Cruz de Tenerife",
            "country": "Spain"
          }
        ],
        "telecom": [
          {
            "system": "phone",
            "value": "+34 740 588 857"
          }
        ],
        "extension": [
          {
            "url": "http://hl7.org/fhir/StructureDefinition/patient-nationality",
            "valueCodeableConcept": {
              "coding": [
                {
                  "code": "ES",
                  "system": "http://hl7.org/fhir/ValueSet/country"
                }
              ]
            }
          }
        ],
        "text": {
          "status": "generated",
          "div": "<div xmlns=\"http://www.w3.org/1999/xhtml\"><table class=\"hl7__ips\"><tr><td>Urbano Cantón</td><td>male</td><td>01-Apr-1945</td></tr></table></div>"
        },
        "gender": "male",
        "birthDate": "1945-04-01"
      }
    },
    {
      "fullUrl": "urn:uuid:d70c0218-365d-490a-8a93-747c4df26724",
      "resource": {
        "resourceType": "ServiceRequest",
        "id": "d70c0218-365d-490a-8a93-747c4df26724",
        "meta": {
          "profile": [
            "http://hl7.eu/fhir/laboratory/StructureDefinition/ServiceRequest-eu-lab"
          ]
        },
        "identifier": [
          {
            "system": "http://example.org",
            "value": "5a99cfb8-2fe0-4f86-901d-064456959a99"
          }
        ],
        "specimen": [
          {
            "reference": "urn:uuid:0c836bcf-fe69-4175-959c-1b67ca7fac4d"
          },
          {
            "reference": "urn:uuid:cd1183bc-4324-4ef4-a2c9-59188ad32d66"
          },
          {
            "reference": "urn:uuid:57001bd1-706d-4b1a-a2b7-290a5a10a572"
          }
        ],
        "reasonCode": [
          {
            "coding": [
              {
                "code": "55822004",
                "system": "http://snomed.info/sct",
                "display": "Hyperlipidemia"
              }
            ]
          },
          {
            "coding": [
              {
                "code": "401314000",
                "system": "http://snomed.info/sct",
                "display": "Acute non-ST segment elevation myocardial infarction"
              }
            ]
          },
          {
            "coding": [
              {
                "code": "6525002",
                "system": "http://snomed.info/sct",
                "display": "Dependent drug abuse"
              }
            ]
          },
          {
            "coding": [
              {
                "code": "124171000119105",
                "system": "http://snomed.info/sct",
                "display": "Chronic intractable migraine without aura"
              }
            ]
          },
          {
            "coding": [
              {
                "code": "414545008",
                "system": "http://snomed.info/sct",
                "display": "Ischemic heart disease"
              }
            ]
          },
          {
            "coding": [
              {
                "code": "368581000119106",
                "system": "http://snomed.info/sct",
                "display": "Neuropathy due to type 2 diabetes mellitus"
              }
            ]
          },
          {
            "coding": [
              {
                "code": "80394007",
                "system": "http://snomed.info/sct",
                "display": "Hyperglycemia"
              }
            ]
          },
          {
            "coding": [
              {
                "code": "237602007",
                "system": "http://snomed.info/sct",
                "display": "Metabolic syndrome X"
              }
            ]
          },
          {
            "coding": [
              {
                "code": "302870006",
                "system": "http://snomed.info/sct",
                "display": "Hypertriglyceridemia"
              }
            ]
          },
          {
            "coding": [
              {
                "code": "44054006",
                "system": "http://snomed.info/sct",
                "display": "Type 2 diabetes mellitus"
              }
            ]
          },
          {
            "coding": [
              {
                "code": "59621000",
                "system": "http://snomed.info/sct",
                "display": "Essential hypertension"
              }
            ]
          },
          {
            "coding": [
              {
                "code": "271737000",
                "system": "http://snomed.info/sct",
                "display": "Anemia"
              }
            ]
          },
          {
            "coding": [
              {
                "code": "40055000",
                "system": "http://snomed.info/sct",
                "display": "Chronic sinusitis"
              }
            ]
          }
        ],
        "status": "active",
        "intent": "order",
        "code": {
          "coding": [
            {
              "code": "108252007",
              "system": "http://snomed.info/sct",
              "display": "Laboratory procedure"
            }
          ]
        },
        "subject": {
          "reference": "urn:uuid:baa7862d-c59d-47a9-b7c2-ef70ba0bd0e8",
          "display": "Urbano Cantón"
        },
        "requester": {
          "reference": "urn:uuid:e4daae22-b54b-4d9c-b504-5a0ab7b5706d"
        }
      }
    },
    {
      "fullUrl": "urn:uuid:e4daae22-b54b-4d9c-b504-5a0ab7b5706d",
      "resource": {
        "resourceType": "PractitionerRole",
        "id": "e4daae22-b54b-4d9c-b504-5a0ab7b5706d",
        "meta": {
          "profile": [
            "http://hl7.eu/fhir/base/StructureDefinition/practitionerRole-eu"
          ]
        },
        "text": {
          "status": "generated",
          "div": "<div xmlns=\"http://www.w3.org/1999/xhtml\">Provider Role Id: e4daae22-b54b-4d9c-b504-5a0ab7b5706d</div>"
        },
        "organization": {
          "reference": "urn:uuid:6346244b-b8bb-481f-9d03-aba92ded4867"
        }
      }
    },
    {
      "fullUrl": "urn:uuid:6346244b-b8bb-481f-9d03-aba92ded4867",
      "resource": {
        "resourceType": "Organization",
        "id": "6346244b-b8bb-481f-9d03-aba92ded4867",
        "meta": {
          "profile": [
            "http://hl7.eu/fhir/base/StructureDefinition/organization-eu"
          ]
        },
        "identifier": [
          {
            "assigner": {
              "display": "HL7 Europe"
            },
            "system": "urn:oid:2.16.840.1.113883.2.51.999",
            "value": "2b43b9af-3aa7-47ab-b139-b9bb94bdfbd8"
          }
        ],
        "address": [
          {
            "country": "Spain"
          }
        ],
        "text": {
          "status": "generated",
          "div": "<div xmlns=\"http://www.w3.org/1999/xhtml\">Provider Organization: Centro de Salud Ruiz de Padrón</div>"
        },
        "name": "Centro de Salud Ruiz de Padrón"
      }
    },
    {
      "fullUrl": "urn:uuid:0c836bcf-fe69-4175-959c-1b67ca7fac4d",
      "resource": {
        "resourceType": "Specimen",
        "id": "0c836bcf-fe69-4175-959c-1b67ca7fac4d",
        "meta": {
          "profile": [
            "http://hl7.eu/fhir/laboratory/StructureDefinition/Specimen-eu-lab"
          ]
        },
        "collection": {
          "collectedDateTime": "2024-04-11"
        },
        "text": {
          "status": "generated",
          "div": "<div xmlns=\"http://www.w3.org/1999/xhtml\"><table class=\"hl7__eu__lab__report\"><tr><th>Specimen</th><th>Collection Date</th></tr><tr><td>Whole blood specimen (specimen)</td><td><span class=\"nb\">11-Apr-2024</span></td></tr></table></div>"
        },
        "type": {
          "coding": [
            {
              "code": "258580003",
              "system": "http://snomed.info/sct",
              "display": "Whole blood specimen (specimen)"
            }
          ]
        }
      }
    },
    {
      "fullUrl": "urn:uuid:cd1183bc-4324-4ef4-a2c9-59188ad32d66",
      "resource": {
        "resourceType": "Specimen",
        "id": "cd1183bc-4324-4ef4-a2c9-59188ad32d66",
        "meta": {
          "profile": [
            "http://hl7.eu/fhir/laboratory/StructureDefinition/Specimen-eu-lab"
          ]
        },
        "collection": {
          "collectedDateTime": "2024-04-11"
        },
        "text": {
          "status": "generated",
          "div": "<div xmlns=\"http://www.w3.org/1999/xhtml\"><table class=\"hl7__eu__lab__report\"><tr><th>Specimen</th><th>Collection Date</th></tr><tr><td>Acellular blood (serum or plasma) specimen</td><td><span class=\"nb\">11-Apr-2024</span></td></tr></table></div>"
        },
        "type": {
          "coding": [
            {
              "code": "122592007",
              "system": "http://snomed.info/sct",
              "display": "Acellular blood (serum or plasma) specimen"
            }
          ]
        }
      }
    },
    {
      "fullUrl": "urn:uuid:57001bd1-706d-4b1a-a2b7-290a5a10a572",
      "resource": {
        "resourceType": "Specimen",
        "id": "57001bd1-706d-4b1a-a2b7-290a5a10a572",
        "meta": {
          "profile": [
            "http://hl7.eu/fhir/laboratory/StructureDefinition/Specimen-eu-lab"
          ]
        },
        "collection": {
          "collectedDateTime": "2024-04-11"
        },
        "text": {
          "status": "generated",
          "div": "<div xmlns=\"http://www.w3.org/1999/xhtml\"><table class=\"hl7__eu__lab__report\"><tr><th>Specimen</th><th>Collection Date</th></tr><tr><td>Serum specimen</td><td><span class=\"nb\">11-Apr-2024</span></td></tr></table></div>"
        },
        "type": {
          "coding": [
            {
              "code": "119364003",
              "system": "http://snomed.info/sct",
              "display": "Serum specimen"
            }
          ]
        }
      }
    },
    {
      "fullUrl": "urn:uuid:474dcb9c-4beb-4f70-baa2-f6a3a38f9b88",
      "resource": {
        "resourceType": "Observation",
        "id": "474dcb9c-4beb-4f70-baa2-f6a3a38f9b88",
        "meta": {
          "profile": [
            "http://hl7.eu/fhir/laboratory/StructureDefinition/Observation-resultslab-eu-lab"
          ]
        },
        "performer": [
          {
            "display": "The Central European Lab"
          }
        ],
        "category": [
          {
            "coding": [
              {
                "system": "http://terminology.hl7.org/CodeSystem/observation-category",
                "code": "laboratory"
              }
            ]
          }
        ],
        "code": {
          "coding": [
            {
              "code": "2339-0",
              "system": "http://loinc.org",
              "display": "Glucose [Mass/volume] in Blood"
            }
          ],
          "text": "Glucose [Mass/volume] in Blood"
        },
        "valueQuantity": {
          "system": "http://unitsofmeasure.org",
          "value": 88.9,
          "unit": "mg/dL",
          "code": "mg/dL"
        },
        "referenceRange": [
          {
            "low": {
              "value": 70,
              "code": "mg/dL",
              "system": "http://unitsofmeasure.org"
            }
          },
          {
            "high": {
              "value": 140,
              "code": "mg/dL",
              "system": "http://unitsofmeasure.org"
            }
          }
        ],
        "text": {
          "status": "generated",
          "div": "<div xmlns=\"http://www.w3.org/1999/xhtml\"><table class=\"hl7__eu__lab__report\"><tr><th>Test</th><th>11-Apr-2024</th><th>Reference&#xA0;Range</th><th>Unit</th></tr><tr><td>Glucose [Mass/volume] in Blood</td><td>88.9</td><td>70 - 140</td><td></td><td>mg/dL</td></tr></table></div>"
        },
        "status": "final",
        "subject": {
          "reference": "urn:uuid:baa7862d-c59d-47a9-b7c2-ef70ba0bd0e8",
          "display": "Urbano Cantón"
        },
        "effectiveDateTime": "2024-04-11T17:07:13Z",
        "specimen": {
          "reference": "urn:uuid:0c836bcf-fe69-4175-959c-1b67ca7fac4d"
        }
      }
    },
    {
      "fullUrl": "urn:uuid:a2989d4f-0d32-4eed-942b-2d0f863a6065",
      "resource": {
        "resourceType": "Observation",
        "id": "a2989d4f-0d32-4eed-942b-2d0f863a6065",
        "meta": {
          "profile": [
            "http://hl7.eu/fhir/laboratory/StructureDefinition/Observation-resultslab-eu-lab"
          ]
        },
        "performer": [
          {
            "display": "The Central European Lab"
          }
        ],
        "category": [
          {
            "coding": [
              {
                "system": "http://terminology.hl7.org/CodeSystem/observation-category",
                "code": "laboratory"
              }
            ]
          }
        ],
        "code": {
          "coding": [
            {
              "code": "6299-2",
              "system": "http://loinc.org",
              "display": "Urea nitrogen [Mass/volume] in Blood"
            }
          ],
          "text": "Urea nitrogen [Mass/volume] in Blood"
        },
        "valueQuantity": {
          "system": "http://unitsofmeasure.org",
          "value": 8.6,
          "unit": "mg/dL",
          "code": "mg/dL"
        },
        "referenceRange": [
          {
            "low": {
              "value": 7,
              "code": "mg/dL",
              "system": "http://unitsofmeasure.org"
            }
          },
          {
            "high": {
              "value": 25,
              "code": "mg/dL",
              "system": "http://unitsofmeasure.org"
            }
          }
        ],
        "text": {
          "status": "generated",
          "div": "<div xmlns=\"http://www.w3.org/1999/xhtml\"><table class=\"hl7__eu__lab__report\"><tr><th>Test</th><th>11-Apr-2024</th><th>Reference&#xA0;Range</th><th>Unit</th></tr><tr><td>Urea nitrogen [Mass/volume] in Blood</td><td>8.6</td><td>7 - 25</td><td></td><td>mg/dL</td></tr></table></div>"
        },
        "status": "final",
        "subject": {
          "reference": "urn:uuid:baa7862d-c59d-47a9-b7c2-ef70ba0bd0e8",
          "display": "Urbano Cantón"
        },
        "effectiveDateTime": "2024-04-11T17:07:13Z",
        "specimen": {
          "reference": "urn:uuid:0c836bcf-fe69-4175-959c-1b67ca7fac4d"
        }
      }
    },
    {
      "fullUrl": "urn:uuid:5e8116ff-8e1f-4896-bd3c-c7246869d096",
      "resource": {
        "resourceType": "Observation",
        "id": "5e8116ff-8e1f-4896-bd3c-c7246869d096",
        "meta": {
          "profile": [
            "http://hl7.eu/fhir/laboratory/StructureDefinition/Observation-resultslab-eu-lab"
          ]
        },
        "performer": [
          {
            "display": "The Central European Lab"
          }
        ],
        "category": [
          {
            "coding": [
              {
                "system": "http://terminology.hl7.org/CodeSystem/observation-category",
                "code": "laboratory"
              }
            ]
          }
        ],
        "code": {
          "coding": [
            {
              "code": "38483-4",
              "system": "http://loinc.org",
              "display": "Creatinine [Mass/volume] in Blood"
            }
          ],
          "text": "Creatinine [Mass/volume] in Blood"
        },
        "valueQuantity": {
          "system": "http://unitsofmeasure.org",
          "value": 2.7,
          "unit": "mg/dL",
          "code": "mg/dL"
        },
        "referenceRange": [
          {
            "low": {
              "value": 0.9,
              "code": "mg/dL",
              "system": "http://unitsofmeasure.org"
            }
          },
          {
            "high": {
              "value": 1.3,
              "code": "mg/dL",
              "system": "http://unitsofmeasure.org"
            }
          }
        ],
        "interpretation": [
          {
            "coding": [
              {
                "code": "H",
                "system": "http://terminology.hl7.org/CodeSystem/v3-ObservationInterpretation",
                "display": "High"
              }
            ]
          }
        ],
        "text": {
          "status": "generated",
          "div": "<div xmlns=\"http://www.w3.org/1999/xhtml\"><table class=\"hl7__eu__lab__report\"><tr><th>Test</th><th>11-Apr-2024</th><th>Reference&#xA0;Range</th><th>Unit</th></tr><tr><td>Creatinine [Mass/volume] in Blood</td><td>2.7</td><td>0.9 - 1.3</td><td>H</td><td>mg/dL</td></tr></table></div>"
        },
        "status": "final",
        "subject": {
          "reference": "urn:uuid:baa7862d-c59d-47a9-b7c2-ef70ba0bd0e8",
          "display": "Urbano Cantón"
        },
        "effectiveDateTime": "2024-04-11T17:07:13Z",
        "specimen": {
          "reference": "urn:uuid:0c836bcf-fe69-4175-959c-1b67ca7fac4d"
        }
      }
    },
    {
      "fullUrl": "urn:uuid:8cdb7018-da48-449d-8859-e041c62f822e",
      "resource": {
        "resourceType": "Observation",
        "id": "8cdb7018-da48-449d-8859-e041c62f822e",
        "meta": {
          "profile": [
            "http://hl7.eu/fhir/laboratory/StructureDefinition/Observation-resultslab-eu-lab"
          ]
        },
        "performer": [
          {
            "display": "The Central European Lab"
          }
        ],
        "category": [
          {
            "coding": [
              {
                "system": "http://terminology.hl7.org/CodeSystem/observation-category",
                "code": "laboratory"
              }
            ]
          }
        ],
        "code": {
          "coding": [
            {
              "code": "49765-1",
              "system": "http://loinc.org",
              "display": "Calcium [Mass/volume] in Blood"
            }
          ],
          "text": "Calcium [Mass/volume] in Blood"
        },
        "valueQuantity": {
          "system": "http://unitsofmeasure.org",
          "value": 9.1,
          "unit": "mg/dL",
          "code": "mg/dL"
        },
        "referenceRange": [
          {
            "low": {
              "value": 8.5,
              "code": "mg/dL",
              "system": "http://unitsofmeasure.org"
            }
          },
          {
            "high": {
              "value": 10.5,
              "code": "mg/dL",
              "system": "http://unitsofmeasure.org"
            }
          }
        ],
        "text": {
          "status": "generated",
          "div": "<div xmlns=\"http://www.w3.org/1999/xhtml\"><table class=\"hl7__eu__lab__report\"><tr><th>Test</th><th>11-Apr-2024</th><th>Reference&#xA0;Range</th><th>Unit</th></tr><tr><td>Calcium [Mass/volume] in Blood</td><td>9.1</td><td>8.5 - 10.5</td><td></td><td>mg/dL</td></tr></table></div>"
        },
        "status": "final",
        "subject": {
          "reference": "urn:uuid:baa7862d-c59d-47a9-b7c2-ef70ba0bd0e8",
          "display": "Urbano Cantón"
        },
        "effectiveDateTime": "2024-04-11T17:07:13Z",
        "specimen": {
          "reference": "urn:uuid:0c836bcf-fe69-4175-959c-1b67ca7fac4d"
        }
      }
    },
    {
      "fullUrl": "urn:uuid:388fa76a-b3b3-49ec-a49d-7a6c6dc41a49",
      "resource": {
        "resourceType": "Observation",
        "id": "388fa76a-b3b3-49ec-a49d-7a6c6dc41a49",
        "meta": {
          "profile": [
            "http://hl7.eu/fhir/laboratory/StructureDefinition/Observation-resultslab-eu-lab"
          ]
        },
        "performer": [
          {
            "display": "The Central European Lab"
          }
        ],
        "category": [
          {
            "coding": [
              {
                "system": "http://terminology.hl7.org/CodeSystem/observation-category",
                "code": "laboratory"
              }
            ]
          }
        ],
        "code": {
          "coding": [
            {
              "code": "2947-0",
              "system": "http://loinc.org",
              "display": "Sodium [Moles/volume] in Blood"
            }
          ],
          "text": "Sodium [Moles/volume] in Blood"
        },
        "valueQuantity": {
          "system": "http://unitsofmeasure.org",
          "value": 140,
          "unit": "mmol/L",
          "code": "mmol/L"
        },
        "referenceRange": [
          {
            "low": {
              "value": 135,
              "code": "mmol/L",
              "system": "http://unitsofmeasure.org"
            }
          },
          {
            "high": {
              "value": 145,
              "code": "mmol/L",
              "system": "http://unitsofmeasure.org"
            }
          }
        ],
        "text": {
          "status": "generated",
          "div": "<div xmlns=\"http://www.w3.org/1999/xhtml\"><table class=\"hl7__eu__lab__report\"><tr><th>Test</th><th>11-Apr-2024</th><th>Reference&#xA0;Range</th><th>Unit</th></tr><tr><td>Sodium [Moles/volume] in Blood</td><td>140.0</td><td>135 - 145</td><td></td><td>mmol/L</td></tr></table></div>"
        },
        "status": "final",
        "subject": {
          "reference": "urn:uuid:baa7862d-c59d-47a9-b7c2-ef70ba0bd0e8",
          "display": "Urbano Cantón"
        },
        "effectiveDateTime": "2024-04-11T17:07:13Z",
        "specimen": {
          "reference": "urn:uuid:0c836bcf-fe69-4175-959c-1b67ca7fac4d"
        }
      }
    },
    {
      "fullUrl": "urn:uuid:d6319d12-08c2-4799-bc83-8d84aa64b363",
      "resource": {
        "resourceType": "Observation",
        "id": "d6319d12-08c2-4799-bc83-8d84aa64b363",
        "meta": {
          "profile": [
            "http://hl7.eu/fhir/laboratory/StructureDefinition/Observation-resultslab-eu-lab"
          ]
        },
        "performer": [
          {
            "display": "The Central European Lab"
          }
        ],
        "category": [
          {
            "coding": [
              {
                "system": "http://terminology.hl7.org/CodeSystem/observation-category",
                "code": "laboratory"
              }
            ]
          }
        ],
        "code": {
          "coding": [
            {
              "code": "6298-4",
              "system": "http://loinc.org",
              "display": "Potassium [Moles/volume] in Blood"
            }
          ],
          "text": "Potassium [Moles/volume] in Blood"
        },
        "valueQuantity": {
          "system": "http://unitsofmeasure.org",
          "value": 4.8,
          "unit": "mmol/L",
          "code": "mmol/L"
        },
        "referenceRange": [
          {
            "low": {
              "value": 3.5,
              "code": "mmol/L",
              "system": "http://unitsofmeasure.org"
            }
          },
          {
            "high": {
              "value": 5.1,
              "code": "mmol/L",
              "system": "http://unitsofmeasure.org"
            }
          }
        ],
        "text": {
          "status": "generated",
          "div": "<div xmlns=\"http://www.w3.org/1999/xhtml\"><table class=\"hl7__eu__lab__report\"><tr><th>Test</th><th>11-Apr-2024</th><th>Reference&#xA0;Range</th><th>Unit</th></tr><tr><td>Potassium [Moles/volume] in Blood</td><td>4.8</td><td>3.5 - 5.1</td><td></td><td>mmol/L</td></tr></table></div>"
        },
        "status": "final",
        "subject": {
          "reference": "urn:uuid:baa7862d-c59d-47a9-b7c2-ef70ba0bd0e8",
          "display": "Urbano Cantón"
        },
        "effectiveDateTime": "2024-04-11T17:07:13Z",
        "specimen": {
          "reference": "urn:uuid:0c836bcf-fe69-4175-959c-1b67ca7fac4d"
        }
      }
    },
    {
      "fullUrl": "urn:uuid:825d5397-ef6b-4269-863a-d509033fc2d9",
      "resource": {
        "resourceType": "Observation",
        "id": "825d5397-ef6b-4269-863a-d509033fc2d9",
        "meta": {
          "profile": [
            "http://hl7.eu/fhir/laboratory/StructureDefinition/Observation-resultslab-eu-lab"
          ]
        },
        "performer": [
          {
            "display": "The Central European Lab"
          }
        ],
        "category": [
          {
            "coding": [
              {
                "system": "http://terminology.hl7.org/CodeSystem/observation-category",
                "code": "laboratory"
              }
            ]
          }
        ],
        "code": {
          "coding": [
            {
              "code": "2069-3",
              "system": "http://loinc.org",
              "display": "Chloride [Moles/volume] in Blood"
            }
          ],
          "text": "Chloride [Moles/volume] in Blood"
        },
        "valueQuantity": {
          "system": "http://unitsofmeasure.org",
          "value": 108.2,
          "unit": "mmol/L",
          "code": "mmol/L"
        },
        "referenceRange": [
          {
            "low": {
              "value": 98,
              "code": "mmol/L",
              "system": "http://unitsofmeasure.org"
            }
          },
          {
            "high": {
              "value": 110,
              "code": "mmol/L",
              "system": "http://unitsofmeasure.org"
            }
          }
        ],
        "text": {
          "status": "generated",
          "div": "<div xmlns=\"http://www.w3.org/1999/xhtml\"><table class=\"hl7__eu__lab__report\"><tr><th>Test</th><th>11-Apr-2024</th><th>Reference&#xA0;Range</th><th>Unit</th></tr><tr><td>Chloride [Moles/volume] in Blood</td><td>108.2</td><td>98 - 110</td><td></td><td>mmol/L</td></tr></table></div>"
        },
        "status": "final",
        "subject": {
          "reference": "urn:uuid:baa7862d-c59d-47a9-b7c2-ef70ba0bd0e8",
          "display": "Urbano Cantón"
        },
        "effectiveDateTime": "2024-04-11T17:07:13Z",
        "specimen": {
          "reference": "urn:uuid:0c836bcf-fe69-4175-959c-1b67ca7fac4d"
        }
      }
    },
    {
      "fullUrl": "urn:uuid:2de31bca-1cd7-41eb-b284-abbb52e9351e",
      "resource": {
        "resourceType": "Observation",
        "id": "2de31bca-1cd7-41eb-b284-abbb52e9351e",
        "meta": {
          "profile": [
            "http://hl7.eu/fhir/laboratory/StructureDefinition/Observation-resultslab-eu-lab"
          ]
        },
        "performer": [
          {
            "display": "The Central European Lab"
          }
        ],
        "category": [
          {
            "coding": [
              {
                "system": "http://terminology.hl7.org/CodeSystem/observation-category",
                "code": "laboratory"
              }
            ]
          }
        ],
        "code": {
          "coding": [
            {
              "code": "20565-8",
              "system": "http://loinc.org",
              "display": "Carbon dioxide, total [Moles/volume] in Blood"
            }
          ],
          "text": "Carbon dioxide, total [Moles/volume] in Blood"
        },
        "valueQuantity": {
          "system": "http://unitsofmeasure.org",
          "value": 23.2,
          "unit": "mmol/L",
          "code": "mmol/L"
        },
        "referenceRange": [
          {
            "low": {
              "value": 22,
              "code": "mmol/L",
              "system": "http://unitsofmeasure.org"
            }
          },
          {
            "high": {
              "value": 29,
              "code": "mmol/L",
              "system": "http://unitsofmeasure.org"
            }
          }
        ],
        "text": {
          "status": "generated",
          "div": "<div xmlns=\"http://www.w3.org/1999/xhtml\"><table class=\"hl7__eu__lab__report\"><tr><th>Test</th><th>11-Apr-2024</th><th>Reference&#xA0;Range</th><th>Unit</th></tr><tr><td>Carbon dioxide, total [Moles/volume] in Blood</td><td>23.2</td><td>22 - 29</td><td></td><td>mmol/L</td></tr></table></div>"
        },
        "status": "final",
        "subject": {
          "reference": "urn:uuid:baa7862d-c59d-47a9-b7c2-ef70ba0bd0e8",
          "display": "Urbano Cantón"
        },
        "effectiveDateTime": "2024-04-11T17:07:13Z",
        "specimen": {
          "reference": "urn:uuid:0c836bcf-fe69-4175-959c-1b67ca7fac4d"
        }
      }
    },
    {
      "fullUrl": "urn:uuid:b7878f45-16a7-4635-8716-704e705fff22",
      "resource": {
        "resourceType": "Observation",
        "id": "b7878f45-16a7-4635-8716-704e705fff22",
        "meta": {
          "profile": [
            "http://hl7.eu/fhir/laboratory/StructureDefinition/Observation-resultslab-eu-lab"
          ]
        },
        "performer": [
          {
            "display": "The Central European Lab"
          }
        ],
        "category": [
          {
            "coding": [
              {
                "system": "http://terminology.hl7.org/CodeSystem/observation-category",
                "code": "laboratory"
              }
            ]
          }
        ],
        "code": {
          "coding": [
            {
              "code": "2885-2",
              "system": "http://loinc.org",
              "display": "Protein [Mass/volume] in Serum or Plasma"
            }
          ],
          "text": "Protein [Mass/volume] in Serum or Plasma"
        },
        "valueQuantity": {
          "system": "http://unitsofmeasure.org",
          "value": 7.3,
          "unit": "g/dL",
          "code": "g/dL"
        },
        "referenceRange": [
          {
            "low": {
              "value": 6,
              "code": "g/dL",
              "system": "http://unitsofmeasure.org"
            }
          },
          {
            "high": {
              "value": 8.3,
              "code": "g/dL",
              "system": "http://unitsofmeasure.org"
            }
          }
        ],
        "text": {
          "status": "generated",
          "div": "<div xmlns=\"http://www.w3.org/1999/xhtml\"><table class=\"hl7__eu__lab__report\"><tr><th>Test</th><th>11-Apr-2024</th><th>Reference&#xA0;Range</th><th>Unit</th></tr><tr><td>Protein [Mass/volume] in Serum or Plasma</td><td>7.3</td><td>6 - 8.3</td><td></td><td>g/dL</td></tr></table></div>"
        },
        "status": "final",
        "subject": {
          "reference": "urn:uuid:baa7862d-c59d-47a9-b7c2-ef70ba0bd0e8",
          "display": "Urbano Cantón"
        },
        "effectiveDateTime": "2024-04-11T17:07:13Z",
        "specimen": {
          "reference": "urn:uuid:cd1183bc-4324-4ef4-a2c9-59188ad32d66"
        }
      }
    },
    {
      "fullUrl": "urn:uuid:bfb587ae-8122-4c3c-a23a-1b7b39608501",
      "resource": {
        "resourceType": "Observation",
        "id": "bfb587ae-8122-4c3c-a23a-1b7b39608501",
        "meta": {
          "profile": [
            "http://hl7.eu/fhir/laboratory/StructureDefinition/Observation-resultslab-eu-lab"
          ]
        },
        "performer": [
          {
            "display": "The Central European Lab"
          }
        ],
        "category": [
          {
            "coding": [
              {
                "system": "http://terminology.hl7.org/CodeSystem/observation-category",
                "code": "laboratory"
              }
            ]
          }
        ],
        "code": {
          "coding": [
            {
              "code": "1751-7",
              "system": "http://loinc.org",
              "display": "Albumin [Mass/volume] in Serum or Plasma"
            }
          ],
          "text": "Albumin [Mass/volume] in Serum or Plasma"
        },
        "valueQuantity": {
          "system": "http://unitsofmeasure.org",
          "value": 3.6,
          "unit": "g/dL",
          "code": "g/dL"
        },
        "referenceRange": [
          {
            "low": {
              "value": 3.2,
              "code": "g/dL",
              "system": "http://unitsofmeasure.org"
            }
          },
          {
            "high": {
              "value": 5.5,
              "code": "g/dL",
              "system": "http://unitsofmeasure.org"
            }
          }
        ],
        "text": {
          "status": "generated",
          "div": "<div xmlns=\"http://www.w3.org/1999/xhtml\"><table class=\"hl7__eu__lab__report\"><tr><th>Test</th><th>11-Apr-2024</th><th>Reference&#xA0;Range</th><th>Unit</th></tr><tr><td>Albumin [Mass/volume] in Serum or Plasma</td><td>3.6</td><td>3.2 - 5.5</td><td></td><td>g/dL</td></tr></table></div>"
        },
        "status": "final",
        "subject": {
          "reference": "urn:uuid:baa7862d-c59d-47a9-b7c2-ef70ba0bd0e8",
          "display": "Urbano Cantón"
        },
        "effectiveDateTime": "2024-04-11T17:07:13Z",
        "specimen": {
          "reference": "urn:uuid:cd1183bc-4324-4ef4-a2c9-59188ad32d66"
        }
      }
    },
    {
      "fullUrl": "urn:uuid:a629a361-50e1-4a00-9a8f-8685dad6ecba",
      "resource": {
        "resourceType": "Observation",
        "id": "a629a361-50e1-4a00-9a8f-8685dad6ecba",
        "meta": {
          "profile": [
            "http://hl7.eu/fhir/laboratory/StructureDefinition/Observation-resultslab-eu-lab"
          ]
        },
        "performer": [
          {
            "display": "The Central European Lab"
          }
        ],
        "category": [
          {
            "coding": [
              {
                "system": "http://terminology.hl7.org/CodeSystem/observation-category",
                "code": "laboratory"
              }
            ]
          }
        ],
        "code": {
          "coding": [
            {
              "code": "10834-0",
              "system": "http://loinc.org",
              "display": "Globulin [Mass/volume] in Serum by calculation"
            }
          ],
          "text": "Globulin [Mass/volume] in Serum by calculation"
        },
        "valueQuantity": {
          "system": "http://unitsofmeasure.org",
          "value": 2.3,
          "unit": "g/L",
          "code": "g/L"
        },
        "referenceRange": [
          {
            "low": {
              "value": 1.5,
              "code": "g/L",
              "system": "http://unitsofmeasure.org"
            }
          },
          {
            "high": {
              "value": 3.5,
              "code": "g/L",
              "system": "http://unitsofmeasure.org"
            }
          }
        ],
        "text": {
          "status": "generated",
          "div": "<div xmlns=\"http://www.w3.org/1999/xhtml\"><table class=\"hl7__eu__lab__report\"><tr><th>Test</th><th>11-Apr-2024</th><th>Reference&#xA0;Range</th><th>Unit</th></tr><tr><td>Globulin [Mass/volume] in Serum by calculation</td><td>2.3</td><td>1.5 - 3.5</td><td></td><td>g/L</td></tr></table></div>"
        },
        "status": "final",
        "subject": {
          "reference": "urn:uuid:baa7862d-c59d-47a9-b7c2-ef70ba0bd0e8",
          "display": "Urbano Cantón"
        },
        "effectiveDateTime": "2024-04-11T17:07:13Z",
        "specimen": {
          "reference": "urn:uuid:57001bd1-706d-4b1a-a2b7-290a5a10a572"
        }
      }
    },
    {
      "fullUrl": "urn:uuid:45aa3c0c-1964-49e8-bf4d-339db706e459",
      "resource": {
        "resourceType": "Observation",
        "id": "45aa3c0c-1964-49e8-bf4d-339db706e459",
        "meta": {
          "profile": [
            "http://hl7.eu/fhir/laboratory/StructureDefinition/Observation-resultslab-eu-lab"
          ]
        },
        "performer": [
          {
            "display": "The Central European Lab"
          }
        ],
        "category": [
          {
            "coding": [
              {
                "system": "http://terminology.hl7.org/CodeSystem/observation-category",
                "code": "laboratory"
              }
            ]
          }
        ],
        "code": {
          "coding": [
            {
              "code": "1975-2",
              "system": "http://loinc.org",
              "display": "Bilirubin.total [Mass/volume] in Serum or Plasma"
            }
          ],
          "text": "Bilirubin.total [Mass/volume] in Serum or Plasma"
        },
        "valueQuantity": {
          "system": "http://unitsofmeasure.org",
          "value": 0.5,
          "unit": "mg/dL",
          "code": "mg/dL"
        },
        "referenceRange": [
          {
            "low": {
              "value": 0.3,
              "code": "mg/dL",
              "system": "http://unitsofmeasure.org"
            }
          },
          {
            "high": {
              "value": 1.2,
              "code": "mg/dL",
              "system": "http://unitsofmeasure.org"
            }
          }
        ],
        "text": {
          "status": "generated",
          "div": "<div xmlns=\"http://www.w3.org/1999/xhtml\"><table class=\"hl7__eu__lab__report\"><tr><th>Test</th><th>11-Apr-2024</th><th>Reference&#xA0;Range</th><th>Unit</th></tr><tr><td>Bilirubin.total [Mass/volume] in Serum or Plasma</td><td>0.5</td><td>0.3 - 1.2</td><td></td><td>mg/dL</td></tr></table></div>"
        },
        "status": "final",
        "subject": {
          "reference": "urn:uuid:baa7862d-c59d-47a9-b7c2-ef70ba0bd0e8",
          "display": "Urbano Cantón"
        },
        "effectiveDateTime": "2024-04-11T17:07:13Z",
        "specimen": {
          "reference": "urn:uuid:cd1183bc-4324-4ef4-a2c9-59188ad32d66"
        }
      }
    },
    {
      "fullUrl": "urn:uuid:e57ea241-6c7e-4421-a397-9b1aa487ea11",
      "resource": {
        "resourceType": "Observation",
        "id": "e57ea241-6c7e-4421-a397-9b1aa487ea11",
        "meta": {
          "profile": [
            "http://hl7.eu/fhir/laboratory/StructureDefinition/Observation-resultslab-eu-lab"
          ]
        },
        "performer": [
          {
            "display": "The Central European Lab"
          }
        ],
        "category": [
          {
            "coding": [
              {
                "system": "http://terminology.hl7.org/CodeSystem/observation-category",
                "code": "laboratory"
              }
            ]
          }
        ],
        "code": {
          "coding": [
            {
              "code": "6768-6",
              "system": "http://loinc.org",
              "display": "Alkaline phosphatase [Enzymatic activity/volume] in Serum or Plasma"
            }
          ],
          "text": "Alkaline phosphatase [Enzymatic activity/volume] in Serum or Plasma"
        },
        "valueQuantity": {
          "system": "http://unitsofmeasure.org",
          "value": 59.3,
          "unit": "U/L",
          "code": "U/L"
        },
        "referenceRange": [
          {
            "low": {
              "value": 39,
              "code": "U/L",
              "system": "http://unitsofmeasure.org"
            }
          },
          {
            "high": {
              "value": 147,
              "code": "U/L",
              "system": "http://unitsofmeasure.org"
            }
          }
        ],
        "text": {
          "status": "generated",
          "div": "<div xmlns=\"http://www.w3.org/1999/xhtml\"><table class=\"hl7__eu__lab__report\"><tr><th>Test</th><th>11-Apr-2024</th><th>Reference&#xA0;Range</th><th>Unit</th></tr><tr><td>Alkaline phosphatase [Enzymatic activity/volume] in Serum or Plasma</td><td>59.3</td><td>39 - 147</td><td></td><td>U/L</td></tr></table></div>"
        },
        "status": "final",
        "subject": {
          "reference": "urn:uuid:baa7862d-c59d-47a9-b7c2-ef70ba0bd0e8",
          "display": "Urbano Cantón"
        },
        "effectiveDateTime": "2024-04-11T17:07:13Z",
        "specimen": {
          "reference": "urn:uuid:cd1183bc-4324-4ef4-a2c9-59188ad32d66"
        }
      }
    },
    {
      "fullUrl": "urn:uuid:cd9e6f2b-ee7d-4ebf-bcea-534585ed8822",
      "resource": {
        "resourceType": "Observation",
        "id": "cd9e6f2b-ee7d-4ebf-bcea-534585ed8822",
        "meta": {
          "profile": [
            "http://hl7.eu/fhir/laboratory/StructureDefinition/Observation-resultslab-eu-lab"
          ]
        },
        "performer": [
          {
            "display": "The Central European Lab"
          }
        ],
        "category": [
          {
            "coding": [
              {
                "system": "http://terminology.hl7.org/CodeSystem/observation-category",
                "code": "laboratory"
              }
            ]
          }
        ],
        "code": {
          "coding": [
            {
              "code": "1742-6",
              "system": "http://loinc.org",
              "display": "Alanine aminotransferase [Enzymatic activity/volume] in Serum or Plasma"
            }
          ],
          "text": "Alanine aminotransferase [Enzymatic activity/volume] in Serum or Plasma"
        },
        "valueQuantity": {
          "system": "http://unitsofmeasure.org",
          "value": 41.7,
          "unit": "U/L",
          "code": "U/L"
        },
        "referenceRange": [
          {
            "low": {
              "value": 7,
              "code": "U/L",
              "system": "http://unitsofmeasure.org"
            }
          },
          {
            "high": {
              "value": 60,
              "code": "U/L",
              "system": "http://unitsofmeasure.org"
            }
          }
        ],
        "text": {
          "status": "generated",
          "div": "<div xmlns=\"http://www.w3.org/1999/xhtml\"><table class=\"hl7__eu__lab__report\"><tr><th>Test</th><th>11-Apr-2024</th><th>Reference&#xA0;Range</th><th>Unit</th></tr><tr><td>Alanine aminotransferase [Enzymatic activity/volume] in Serum or Plasma</td><td>41.7</td><td>7 - 60</td><td></td><td>U/L</td></tr></table></div>"
        },
        "status": "final",
        "subject": {
          "reference": "urn:uuid:baa7862d-c59d-47a9-b7c2-ef70ba0bd0e8",
          "display": "Urbano Cantón"
        },
        "effectiveDateTime": "2024-04-11T17:07:13Z",
        "specimen": {
          "reference": "urn:uuid:cd1183bc-4324-4ef4-a2c9-59188ad32d66"
        }
      }
    },
    {
      "fullUrl": "urn:uuid:6bfaa394-cb3d-4af8-966e-f7e74082b010",
      "resource": {
        "resourceType": "Observation",
        "id": "6bfaa394-cb3d-4af8-966e-f7e74082b010",
        "meta": {
          "profile": [
            "http://hl7.eu/fhir/laboratory/StructureDefinition/Observation-resultslab-eu-lab"
          ]
        },
        "performer": [
          {
            "display": "The Central European Lab"
          }
        ],
        "category": [
          {
            "coding": [
              {
                "system": "http://terminology.hl7.org/CodeSystem/observation-category",
                "code": "laboratory"
              }
            ]
          }
        ],
        "code": {
          "coding": [
            {
              "code": "1920-8",
              "system": "http://loinc.org",
              "display": "Aspartate aminotransferase [Enzymatic activity/volume] in Serum or Plasma"
            }
          ],
          "text": "Aspartate aminotransferase [Enzymatic activity/volume] in Serum or Plasma"
        },
        "valueQuantity": {
          "system": "http://unitsofmeasure.org",
          "value": 30.1,
          "unit": "U/L",
          "code": "U/L"
        },
        "referenceRange": [
          {
            "low": {
              "value": 10,
              "code": "U/L",
              "system": "http://unitsofmeasure.org"
            }
          },
          {
            "high": {
              "value": 40,
              "code": "U/L",
              "system": "http://unitsofmeasure.org"
            }
          }
        ],
        "text": {
          "status": "generated",
          "div": "<div xmlns=\"http://www.w3.org/1999/xhtml\"><table class=\"hl7__eu__lab__report\"><tr><th>Test</th><th>11-Apr-2024</th><th>Reference&#xA0;Range</th><th>Unit</th></tr><tr><td>Aspartate aminotransferase [Enzymatic activity/volume] in Serum or Plasma</td><td>30.1</td><td>10 - 40</td><td></td><td>U/L</td></tr></table></div>"
        },
        "status": "final",
        "subject": {
          "reference": "urn:uuid:baa7862d-c59d-47a9-b7c2-ef70ba0bd0e8",
          "display": "Urbano Cantón"
        },
        "effectiveDateTime": "2024-04-11T17:07:13Z",
        "specimen": {
          "reference": "urn:uuid:cd1183bc-4324-4ef4-a2c9-59188ad32d66"
        }
      }
    },
    {
      "fullUrl": "urn:uuid:2f9031d2-a869-447b-8465-1d50d7e94d38",
      "resource": {
        "resourceType": "Observation",
        "id": "2f9031d2-a869-447b-8465-1d50d7e94d38",
        "meta": {
          "profile": [
            "http://hl7.eu/fhir/laboratory/StructureDefinition/Observation-resultslab-eu-lab"
          ]
        },
        "performer": [
          {
            "display": "The Central European Lab"
          }
        ],
        "category": [
          {
            "coding": [
              {
                "system": "http://terminology.hl7.org/CodeSystem/observation-category",
                "code": "laboratory"
              }
            ]
          }
        ],
        "code": {
          "coding": [
            {
              "code": "2093-3",
              "system": "http://loinc.org",
              "display": "Cholesterol [Mass/volume] in Serum or Plasma"
            }
          ],
          "text": "Cholesterol [Mass/volume] in Serum or Plasma"
        },
        "valueQuantity": {
          "system": "http://unitsofmeasure.org",
          "value": 180.5,
          "unit": "mg/dL",
          "code": "mg/dL"
        },
        "referenceRange": [
          {
            "low": {
              "value": 100,
              "code": "mg/dL",
              "system": "http://unitsofmeasure.org"
            }
          },
          {
            "high": {
              "value": 200,
              "code": "mg/dL",
              "system": "http://unitsofmeasure.org"
            }
          }
        ],
        "text": {
          "status": "generated",
          "div": "<div xmlns=\"http://www.w3.org/1999/xhtml\"><table class=\"hl7__eu__lab__report\"><tr><th>Test</th><th>11-Apr-2024</th><th>Reference&#xA0;Range</th><th>Unit</th></tr><tr><td>Cholesterol [Mass/volume] in Serum or Plasma</td><td>180.5</td><td>100 - 200</td><td></td><td>mg/dL</td></tr></table></div>"
        },
        "status": "final",
        "subject": {
          "reference": "urn:uuid:baa7862d-c59d-47a9-b7c2-ef70ba0bd0e8",
          "display": "Urbano Cantón"
        },
        "effectiveDateTime": "2024-04-11T17:07:13Z",
        "specimen": {
          "reference": "urn:uuid:cd1183bc-4324-4ef4-a2c9-59188ad32d66"
        }
      }
    },
    {
      "fullUrl": "urn:uuid:8e414547-4c81-428b-920a-201aaa7eaca1",
      "resource": {
        "resourceType": "Observation",
        "id": "8e414547-4c81-428b-920a-201aaa7eaca1",
        "meta": {
          "profile": [
            "http://hl7.eu/fhir/laboratory/StructureDefinition/Observation-resultslab-eu-lab"
          ]
        },
        "performer": [
          {
            "display": "The Central European Lab"
          }
        ],
        "category": [
          {
            "coding": [
              {
                "system": "http://terminology.hl7.org/CodeSystem/observation-category",
                "code": "laboratory"
              }
            ]
          }
        ],
        "code": {
          "coding": [
            {
              "code": "2571-8",
              "system": "http://loinc.org",
              "display": "Triglyceride [Mass/volume] in Serum or Plasma"
            }
          ],
          "text": "Triglyceride [Mass/volume] in Serum or Plasma"
        },
        "valueQuantity": {
          "system": "http://unitsofmeasure.org",
          "value": 168.6,
          "unit": "mg/dL",
          "code": "mg/dL"
        },
        "referenceRange": [
          {
            "low": {
              "value": 45,
              "code": "mg/dL",
              "system": "http://unitsofmeasure.org"
            }
          },
          {
            "high": {
              "value": 175,
              "code": "mg/dL",
              "system": "http://unitsofmeasure.org"
            }
          }
        ],
        "text": {
          "status": "generated",
          "div": "<div xmlns=\"http://www.w3.org/1999/xhtml\"><table class=\"hl7__eu__lab__report\"><tr><th>Test</th><th>11-Apr-2024</th><th>Reference&#xA0;Range</th><th>Unit</th></tr><tr><td>Triglyceride [Mass/volume] in Serum or Plasma</td><td>168.6</td><td>45 - 175</td><td></td><td>mg/dL</td></tr></table></div>"
        },
        "status": "final",
        "subject": {
          "reference": "urn:uuid:baa7862d-c59d-47a9-b7c2-ef70ba0bd0e8",
          "display": "Urbano Cantón"
        },
        "effectiveDateTime": "2024-04-11T17:07:13Z",
        "specimen": {
          "reference": "urn:uuid:cd1183bc-4324-4ef4-a2c9-59188ad32d66"
        }
      }
    },
    {
      "fullUrl": "urn:uuid:c53fce40-1ba2-4589-ba0b-978c22bb76e0",
      "resource": {
        "resourceType": "Observation",
        "id": "c53fce40-1ba2-4589-ba0b-978c22bb76e0",
        "meta": {
          "profile": [
            "http://hl7.eu/fhir/laboratory/StructureDefinition/Observation-resultslab-eu-lab"
          ]
        },
        "performer": [
          {
            "display": "The Central European Lab"
          }
        ],
        "category": [
          {
            "coding": [
              {
                "system": "http://terminology.hl7.org/CodeSystem/observation-category",
                "code": "laboratory"
              }
            ]
          }
        ],
        "code": {
          "coding": [
            {
              "code": "18262-6",
              "system": "http://loinc.org",
              "display": "Cholesterol in LDL [Mass/volume] in Serum or Plasma by Direct assay"
            }
          ],
          "text": "Cholesterol in LDL [Mass/volume] in Serum or Plasma by Direct assay"
        },
        "valueQuantity": {
          "system": "http://unitsofmeasure.org",
          "value": 146.6,
          "unit": "mg/dL",
          "code": "mg/dL"
        },
        "referenceRange": [
          {
            "low": {
              "value": 0,
              "code": "mg/dL",
              "system": "http://unitsofmeasure.org"
            }
          },
          {
            "high": {
              "value": 190,
              "code": "mg/dL",
              "system": "http://unitsofmeasure.org"
            }
          }
        ],
        "text": {
          "status": "generated",
          "div": "<div xmlns=\"http://www.w3.org/1999/xhtml\"><table class=\"hl7__eu__lab__report\"><tr><th>Test</th><th>11-Apr-2024</th><th>Reference&#xA0;Range</th><th>Unit</th></tr><tr><td>Cholesterol in LDL [Mass/volume] in Serum or Plasma by Direct assay</td><td>146.6</td><td>0 - 190</td><td></td><td>mg/dL</td></tr></table></div>"
        },
        "status": "final",
        "subject": {
          "reference": "urn:uuid:baa7862d-c59d-47a9-b7c2-ef70ba0bd0e8",
          "display": "Urbano Cantón"
        },
        "effectiveDateTime": "2024-04-11T17:07:13Z",
        "specimen": {
          "reference": "urn:uuid:cd1183bc-4324-4ef4-a2c9-59188ad32d66"
        }
      }
    },
    {
      "fullUrl": "urn:uuid:2e7108aa-2698-4588-905f-7c98cd4a69e1",
      "resource": {
        "resourceType": "Observation",
        "id": "2e7108aa-2698-4588-905f-7c98cd4a69e1",
        "meta": {
          "profile": [
            "http://hl7.eu/fhir/laboratory/StructureDefinition/Observation-resultslab-eu-lab"
          ]
        },
        "performer": [
          {
            "display": "The Central European Lab"
          }
        ],
        "category": [
          {
            "coding": [
              {
                "system": "http://terminology.hl7.org/CodeSystem/observation-category",
                "code": "laboratory"
              }
            ]
          }
        ],
        "code": {
          "coding": [
            {
              "code": "2085-9",
              "system": "http://loinc.org",
              "display": "Cholesterol in HDL [Mass/volume] in Serum or Plasma"
            }
          ],
          "text": "Cholesterol in HDL [Mass/volume] in Serum or Plasma"
        },
        "valueQuantity": {
          "system": "http://unitsofmeasure.org",
          "value": 79.9,
          "unit": "mg/dL",
          "code": "mg/dL"
        },
        "referenceRange": [
          {
            "low": {
              "value": 40,
              "code": "mg/dL",
              "system": "http://unitsofmeasure.org"
            }
          },
          {
            "high": {
              "value": 100,
              "code": "mg/dL",
              "system": "http://unitsofmeasure.org"
            }
          }
        ],
        "text": {
          "status": "generated",
          "div": "<div xmlns=\"http://www.w3.org/1999/xhtml\"><table class=\"hl7__eu__lab__report\"><tr><th>Test</th><th>11-Apr-2024</th><th>Reference&#xA0;Range</th><th>Unit</th></tr><tr><td>Cholesterol in HDL [Mass/volume] in Serum or Plasma</td><td>79.9</td><td>40 - 100</td><td></td><td>mg/dL</td></tr></table></div>"
        },
        "status": "final",
        "subject": {
          "reference": "urn:uuid:baa7862d-c59d-47a9-b7c2-ef70ba0bd0e8",
          "display": "Urbano Cantón"
        },
        "effectiveDateTime": "2024-04-11T17:07:13Z",
        "specimen": {
          "reference": "urn:uuid:cd1183bc-4324-4ef4-a2c9-59188ad32d66"
        }
      }
    },
    {
      "fullUrl": "urn:uuid:3444d9af-e1ea-4848-9102-dabf1ba92640",
      "resource": {
        "resourceType": "Device",
        "id": "3444d9af-e1ea-4848-9102-dabf1ba92640",
        "deviceName": [
          {
            "name": "SYNDERAI Synthetic Generator",
            "type": "manufacturer-name"
          }
        ],
        "version": [
          {
            "value": "5.0"
          }
        ],
        "text": {
          "status": "generated",
          "div": "<div xmlns=\"http://www.w3.org/1999/xhtml\">SYNDERAI Synthetic Generator v5.0</div>"
        },
        "status": "active\"",
        "distinctIdentifier": "synderai-generator-50",
        "manufacturer": "SYNDERAI Project"
      }
    },
    {
      "fullUrl": "urn:uuid:8be0a419-86c1-47d0-8f15-5037ce5e93e1",
      "resource": {
        "resourceType": "Provenance",
        "id": "8be0a419-86c1-47d0-8f15-5037ce5e93e1",
        "target": [
          {
            "reference": "Patient/baa7862d-c59d-47a9-b7c2-ef70ba0bd0e8"
          },
          {
            "reference": "Bundle/56f5cf16-71e9-4a6f-b855-3f528311120f"
          },
          {
            "reference": "Composition/7867e91d-6972-4773-a553-a0fe0cd29dfe"
          },
          {
            "reference": "PractitionerRole/437fc2fc-a9a7-499e-a5c7-ca91805ae0d5"
          },
          {
            "reference": "Practitioner/1c0a697f-0fff-4953-8421-927ce4228bb1"
          },
          {
            "reference": "PractitionerRole/e4daae22-b54b-4d9c-b504-5a0ab7b5706d"
          },
          {
            "reference": "Organization/6346244b-b8bb-481f-9d03-aba92ded4867"
          }
        ],
        "activity": {
          "text": "Synthetic Example Data Generation"
        },
        "policy": [
          "https://synderai.net/synderai-synthetic-data-policy"
        ],
        "agent": [
          {
            "type": {
              "text": "author"
            },
            "who": {
              "reference": "Device/3444d9af-e1ea-4848-9102-dabf1ba92640"
            }
          }
        ],
        "reason": [
          {
            "text": "Interoperability Testing and Training (non-clinical use)"
          }
        ],
        "text": {
          "status": "generated",
          "div": "<div xmlns=\"http://www.w3.org/1999/xhtml\">Provenance for SYNDERAI Synthetic Example Data Resource</div>"
        },
        "recorded": "2024-04-11T19:07:13Z"
      }
    },
    {
      "fullUrl": "urn:uuid:437fc2fc-a9a7-499e-a5c7-ca91805ae0d5",
      "resource": {
        "resourceType": "PractitionerRole",
        "id": "437fc2fc-a9a7-499e-a5c7-ca91805ae0d5",
        "meta": {
          "profile": [
            "http://hl7.eu/fhir/base/StructureDefinition/practitionerRole-eu"
          ]
        },
        "text": {
          "status": "generated",
          "div": "<div xmlns=\"http://www.w3.org/1999/xhtml\">Laboratory Role Id: 437fc2fc-a9a7-499e-a5c7-ca91805ae0d5</div>"
        },
        "practitioner": {
          "reference": "urn:uuid:1c0a697f-0fff-4953-8421-927ce4228bb1"
        }
      }
    },
    {
      "fullUrl": "urn:uuid:1c0a697f-0fff-4953-8421-927ce4228bb1",
      "resource": {
        "resourceType": "Practitioner",
        "id": "1c0a697f-0fff-4953-8421-927ce4228bb1",
        "meta": {
          "profile": [
            "http://hl7.eu/fhir/base/StructureDefinition/practitioner-eu"
          ]
        },
        "identifier": [
          {
            "assigner": {
              "display": "HL7 Europe"
            },
            "system": "urn:oid:2.16.840.1.113883.2.51.999",
            "value": "2f456d22-cf37-4266-a4cd-7a0b2088110f"
          }
        ],
        "name": [
          {
            "prefix": [
              "dr"
            ],
            "given": [
              "Ex"
            ],
            "family": "Ample"
          }
        ],
        "address": [
          {
            "line": [
              "Laboratoire Central Européenne",
              "Boulevard du Jardin Botanique 32"
            ],
            "postalCode": "1000",
            "city": "Brussels",
            "country": "Belgium"
          }
        ],
        "text": {
          "status": "generated",
          "div": "<div xmlns=\"http://www.w3.org/1999/xhtml\">Laboratory: Laboratoire Central Européenne, 1000 Brussels, Belgium</div>"
        }
      }
    }
  ],
  "type": "document",
  "timestamp": "2024-04-11T19:07:13Z"
}
