{
  "resourceType": "Bundle",
  "id": "15e809e6-d990-43c7-80e5-7f8d8eb7139f",
  "meta": {
    "profile": [
      "http://hl7.eu/fhir/laboratory/StructureDefinition/Bundle-eu-lab"
    ]
  },
  "identifier": {
    "assigner": {
      "display": "HL7 Europe"
    },
    "system": "urn:oid:2.16.840.1.113883.2.51.999",
    "value": "2dd9af05-3ed0-4f31-b573-77d12c75c0b4"
  },
  "entry": [
    {
      "fullUrl": "urn:uuid:21bda6e1-354e-48d3-bc51-fd7c473562f2",
      "resource": {
        "resourceType": "Composition",
        "id": "21bda6e1-354e-48d3-bc51-fd7c473562f2",
        "meta": {
          "profile": [
            "http://hl7.eu/fhir/laboratory/StructureDefinition/Composition-eu-lab"
          ]
        },
        "identifier": {
          "assigner": {
            "display": "HL7 Europe"
          },
          "system": "urn:oid:2.16.840.1.113883.2.51.999",
          "value": "30d2c848-5d3e-4e38-bff0-136278480058"
        },
        "author": [
          {
            "reference": "urn:uuid:b57ac66b-e871-4df0-a0c7-81f607b4ef8f"
          }
        ],
        "category": [
          {
            "coding": [
              {
                "code": "26436-6",
                "system": "http://loinc.org",
                "display": "Laboratory studies (set)"
              }
            ]
          }
        ],
        "type": {
          "coding": [
            {
              "code": "11502-2",
              "system": "http://loinc.org",
              "display": "Laboratory report"
            }
          ],
          "text": "Laboratory Report"
        },
        "section": [
          {
            "code": {
              "coding": [
                {
                  "code": "26436-6",
                  "system": "http://loinc.org",
                  "display": "Laboratory studies (set)"
                }
              ],
              "text": "Laboratory studies"
            },
            "section": [
              {
                "code": {
                  "coding": [
                    {
                      "code": "$18719-5",
                      "system": "http://loinc.org",
                      "display": "Chemistry studies (set)"
                    }
                  ],
                  "text": "Chemistry"
                },
                "entry": [
                  {
                    "reference": "urn:uuid:a669d883-671a-4b1f-9c39-fdb2eb238d0d"
                  },
                  {
                    "reference": "urn:uuid:58393c30-0364-412e-95b7-6ce85f681ee6"
                  },
                  {
                    "reference": "urn:uuid:e80ee7e4-5c2d-4a49-8cb7-737bf645e265"
                  },
                  {
                    "reference": "urn:uuid:f9d0a89a-c344-4647-93cf-0c888af699c0"
                  },
                  {
                    "reference": "urn:uuid:787b47a0-24c9-440d-83a5-a2b72bbf4f36"
                  },
                  {
                    "reference": "urn:uuid:620e82e6-c25f-43da-8e22-22308e21dba4"
                  },
                  {
                    "reference": "urn:uuid:1722eee0-0475-430f-8f66-73ebe20573e8"
                  },
                  {
                    "reference": "urn:uuid:cba6a47a-741f-4eb5-b1bc-cd2a0cdd4340"
                  },
                  {
                    "reference": "urn:uuid:9262727b-417c-46a2-a7d0-2049ec5256b2"
                  },
                  {
                    "reference": "urn:uuid:8fc411b0-d1be-4399-8f70-8ad96ff4a871"
                  }
                ],
                "text": {
                  "status": "generated",
                  "div": "<div xmlns=\"http://www.w3.org/1999/xhtml\"><h3>Chemistry</h3><table class=\"hl7__eu__lab__report\"><thead><tr><th>Test</th><th>06-OCT-2015</th><th>Reference&#xA0;Range</th><th>Unit</th></tr></thead><tbody><tr><td>Glucose [Mass/volume] in Serum or Plasma</td><td>98.8</td><td>70 - 99</td><td>mg/dL</td></tr><tr><td>Urea nitrogen [Mass/volume] in Serum or Plasma</td><td>11.2</td><td>7 - 50</td><td>mg/dL</td></tr><tr><td>Creatinine [Mass/volume] in Serum or Plasma</td><td><strong>2.0 H</strong></td><td>0.6 - 1.1</td><td>mg/dL</td></tr><tr><td>Calcium [Mass/volume] in Serum or Plasma</td><td>9.2</td><td>8.6 - 10.4</td><td>mg/dL</td></tr><tr><td>Sodium [Moles/volume] in Serum or Plasma</td><td>139.7</td><td>135 - 145</td><td>mmol/L</td></tr><tr><td>Potassium [Moles/volume] in Serum or Plasma</td><td>3.9</td><td>3.5 - 5.1</td><td>mmol/L</td></tr><tr><td>Chloride [Moles/volume] in Serum or Plasma</td><td>101.9</td><td>98 - 108</td><td>mmol/L</td></tr><tr><td>Carbon dioxide, total [Moles/volume] in Serum or Plasma</td><td>24.3</td><td>22 - 32</td><td>mmol/L</td></tr><tr><td>Ketones [Presence] in Urine by Test strip</td><td>Urine ketone test = +</td><td></td><td></td></tr><tr><td>Hemoglobin A1c/Hemoglobin.total in Blood</td><td><strong>3.3 L</strong></td><td>4 - 6.4</td><td>%</td></tr></tbody></table></div>"
                },
                "title": "Chemistry"
              },
              {
                "code": {
                  "coding": [
                    {
                      "code": "$18729-4",
                      "system": "http://loinc.org",
                      "display": "Urinalysis studies (set)"
                    }
                  ],
                  "text": "Urinalysis"
                },
                "entry": [
                  {
                    "reference": "urn:uuid:fb3ef038-e4bf-4e22-bb7f-48bc8da3b392"
                  },
                  {
                    "reference": "urn:uuid:74e777b7-191e-462b-a628-95cc76e48a7f"
                  },
                  {
                    "reference": "urn:uuid:8062a2ea-f6cd-4261-9809-353b8e87afcd"
                  },
                  {
                    "reference": "urn:uuid:59328886-c5fa-419d-81a1-316bf27a78f7"
                  },
                  {
                    "reference": "urn:uuid:f45a72cd-12c2-47f9-821b-d444773134a8"
                  },
                  {
                    "reference": "urn:uuid:4059b29a-038c-4dbd-90ae-f7f8fe7ceea0"
                  },
                  {
                    "reference": "urn:uuid:21b39124-1774-4436-9202-b158e647543e"
                  },
                  {
                    "reference": "urn:uuid:582019e4-10dc-43c6-b811-e8df51f2f856"
                  },
                  {
                    "reference": "urn:uuid:f4c6c58b-7490-4dec-9ae3-6c3b0c5f1fae"
                  },
                  {
                    "reference": "urn:uuid:cd3eed4c-c8fa-446a-ad80-02468552e080"
                  },
                  {
                    "reference": "urn:uuid:00bd3c26-c887-4177-91dd-a0ec10355620"
                  },
                  {
                    "reference": "urn:uuid:41d7b9b3-ba87-4733-96fb-d65cf09695ce"
                  }
                ],
                "text": {
                  "status": "generated",
                  "div": "<div xmlns=\"http://www.w3.org/1999/xhtml\"><h3>Urinalysis</h3><table class=\"hl7__eu__lab__report\"><thead><tr><th>Test</th><th>06-OCT-2015</th><th>Reference&#xA0;Range</th><th>Unit</th></tr></thead><tbody><tr><td>Glucose [Mass/volume] in Urine by Test strip</td><td><strong>1.5 H</strong></td><td>0.8 - 0</td><td>mg/dL</td></tr><tr><td>Glucose [Presence] in Urine by Test strip</td><td>++</td><td></td><td></td></tr><tr><td>Bilirubin.total [Mass/volume] in Urine by Test strip</td><td>0.6</td><td>0 - 1</td><td>mg/dL</td></tr><tr><td>Bilirubin.total [Presence] in Urine by Test strip</td><td>Finding of bilirubin in urine</td><td></td><td></td></tr><tr><td>Ketones [Mass/volume] in Urine by Test strip</td><td>1.5</td><td>0 - 4</td><td>mg/dL</td></tr><tr><td>Specific gravity of Urine by Test strip</td><td><strong>1.0 L</strong></td><td>1.005 - 1.03</td><td>{nominal}</td></tr><tr><td>pH of Urine by Test strip</td><td>5.1</td><td>4.6 - 7</td><td>pH</td></tr><tr><td>Protein [Mass/volume] in Urine by Test strip</td><td><strong>229.2 H</strong></td><td>0 - 14</td><td>mg/dL</td></tr><tr><td>Protein [Presence] in Urine by Test strip</td><td>Urine protein test = ++</td><td></td><td></td></tr><tr><td>Nitrite [Presence] in Urine by Test strip</td><td>Urine nitrite negative</td><td></td><td></td></tr><tr><td>Hemoglobin [Presence] in Urine by Test strip</td><td>Urine blood test = negative</td><td></td><td></td></tr><tr><td>Leukocyte esterase [Presence] in Urine by Test strip</td><td>Urine leukocyte test negative</td><td></td><td></td></tr></tbody></table></div>"
                },
                "title": "Urinalysis"
              },
              {
                "code": {
                  "coding": [
                    {
                      "code": "$LP7846-1",
                      "system": "http://loinc.org",
                      "display": "Specimen information"
                    }
                  ],
                  "text": "Specimen information"
                },
                "entry": [
                  {
                    "reference": "urn:uuid:fda09e80-ed3c-4ab6-895c-b34f2971d132"
                  },
                  {
                    "reference": "urn:uuid:65306064-6513-459d-a1ec-443c99301376"
                  },
                  {
                    "reference": "urn:uuid:39c0f650-9d5b-4001-bd0b-3d207c95699c"
                  },
                  {
                    "reference": "urn:uuid:4c7bca16-0be8-4c27-9a34-faf2ff7ec0b9"
                  }
                ],
                "text": {
                  "status": "generated",
                  "div": "<div xmlns=\"http://www.w3.org/1999/xhtml\"><h3>Specimen information</h3><table class=\"hl7__eu__lab__report\"><thead><tr><th>Test</th><th>06-OCT-2015</th><th>Specimen</th><th></th></tr></thead><tbody><tr><td>Appearance of Urine</td><td>Cloudy urine</td><td>Urine</td><td></td></tr><tr><td>Odor of Urine</td><td>Urine smell ammoniacal</td><td>Urine</td><td></td></tr><tr><td>Clarity of Urine</td><td>Translucent</td><td>Urine</td><td></td></tr><tr><td>Color of Urine</td><td>Brown color</td><td>Urine</td><td></td></tr></tbody></table></div>"
                },
                "title": "Specimen information"
              }
            ],
            "title": "Laboratory Report"
          },
          {
            "text": {
              "status": "generated",
              "div": "<div xmlns=\"http://www.w3.org/1999/xhtml\"><h3>Annotation</h3><table class=\"hl7__eu__lab__report\"><tr><th>Conclusion and Recommendations based on this report and previous findings known to us</th></tr><tr><td>The patient shows elevated serum creatinine, indicating impaired renal function, and significant proteinuria and glucosuria, suggesting possible diabetic nephropathy or another glomerular pathology. Urine is dilute with low specific gravity, and abnormal appearance (cloudy, brown, ammoniacal), but no evidence of infection. HbA1c is low, possibly due to anemia or recent changes in glucose control. Further nephrological evaluation is recommended.</td></tr></table></div>"
            },
            "code": {
              "coding": [
                {
                  "system": "http://loinc.org",
                  "code": "48767-8",
                  "display": "Annotation comment"
                }
              ]
            },
            "title": "Annotation comment"
          }
        ],
        "status": "final",
        "subject": {
          "reference": "urn:uuid:3f28d973-591b-472d-8152-f5e90bfd2539",
          "display": "Meaghan Neary"
        },
        "date": "2015-10-06T00:11:04Z",
        "title": "Laboratory Report",
        "confidentiality": "N"
      }
    },
    {
      "fullUrl": "urn:uuid:521881cf-c685-47f7-9af1-6aab10e99f84",
      "resource": {
        "resourceType": "DiagnosticReport",
        "id": "521881cf-c685-47f7-9af1-6aab10e99f84",
        "meta": {
          "profile": [
            "http://hl7.eu/fhir/laboratory/StructureDefinition/DiagnosticReport-eu-lab"
          ]
        },
        "identifier": [
          {
            "assigner": {
              "display": "HL7 Europe"
            },
            "system": "urn:oid:2.16.840.1.113883.2.51.999",
            "value": "690d476c-436e-48ac-b7a3-3fc76639e7a2"
          }
        ],
        "extension": [
          {
            "url": "http://hl7.org/fhir/5.0/StructureDefinition/extension-DiagnosticReport.composition",
            "valueReference": {
              "reference": "urn:uuid:30d2c848-5d3e-4e38-bff0-136278480058"
            }
          }
        ],
        "category": [
          {
            "coding": [
              {
                "code": "26436-6",
                "system": "http://loinc.org",
                "display": "Laboratory studies (set)"
              }
            ]
          }
        ],
        "specimen": [
          {
            "reference": "urn:uuid:e41abd26-2053-4fd1-939a-e2825df36aa1"
          },
          {
            "reference": "urn:uuid:fed7794a-5994-4e79-bb87-6037f35adab9"
          },
          {
            "reference": "urn:uuid:6fc9ec30-1f40-4f81-95e1-a04068e0bb96"
          }
        ],
        "result": [
          {
            "reference": "urn:uuid:a669d883-671a-4b1f-9c39-fdb2eb238d0d"
          },
          {
            "reference": "urn:uuid:58393c30-0364-412e-95b7-6ce85f681ee6"
          },
          {
            "reference": "urn:uuid:e80ee7e4-5c2d-4a49-8cb7-737bf645e265"
          },
          {
            "reference": "urn:uuid:f9d0a89a-c344-4647-93cf-0c888af699c0"
          },
          {
            "reference": "urn:uuid:787b47a0-24c9-440d-83a5-a2b72bbf4f36"
          },
          {
            "reference": "urn:uuid:620e82e6-c25f-43da-8e22-22308e21dba4"
          },
          {
            "reference": "urn:uuid:1722eee0-0475-430f-8f66-73ebe20573e8"
          },
          {
            "reference": "urn:uuid:cba6a47a-741f-4eb5-b1bc-cd2a0cdd4340"
          },
          {
            "reference": "urn:uuid:fda09e80-ed3c-4ab6-895c-b34f2971d132"
          },
          {
            "reference": "urn:uuid:65306064-6513-459d-a1ec-443c99301376"
          },
          {
            "reference": "urn:uuid:39c0f650-9d5b-4001-bd0b-3d207c95699c"
          },
          {
            "reference": "urn:uuid:4c7bca16-0be8-4c27-9a34-faf2ff7ec0b9"
          },
          {
            "reference": "urn:uuid:fb3ef038-e4bf-4e22-bb7f-48bc8da3b392"
          },
          {
            "reference": "urn:uuid:74e777b7-191e-462b-a628-95cc76e48a7f"
          },
          {
            "reference": "urn:uuid:8062a2ea-f6cd-4261-9809-353b8e87afcd"
          },
          {
            "reference": "urn:uuid:59328886-c5fa-419d-81a1-316bf27a78f7"
          },
          {
            "reference": "urn:uuid:f45a72cd-12c2-47f9-821b-d444773134a8"
          },
          {
            "reference": "urn:uuid:9262727b-417c-46a2-a7d0-2049ec5256b2"
          },
          {
            "reference": "urn:uuid:4059b29a-038c-4dbd-90ae-f7f8fe7ceea0"
          },
          {
            "reference": "urn:uuid:21b39124-1774-4436-9202-b158e647543e"
          },
          {
            "reference": "urn:uuid:582019e4-10dc-43c6-b811-e8df51f2f856"
          },
          {
            "reference": "urn:uuid:f4c6c58b-7490-4dec-9ae3-6c3b0c5f1fae"
          },
          {
            "reference": "urn:uuid:cd3eed4c-c8fa-446a-ad80-02468552e080"
          },
          {
            "reference": "urn:uuid:00bd3c26-c887-4177-91dd-a0ec10355620"
          },
          {
            "reference": "urn:uuid:41d7b9b3-ba87-4733-96fb-d65cf09695ce"
          },
          {
            "reference": "urn:uuid:8fc411b0-d1be-4399-8f70-8ad96ff4a871"
          }
        ],
        "status": "registered",
        "code": {
          "coding": [
            {
              "code": "11502-2",
              "system": "http://loinc.org",
              "display": "Laboratory report"
            }
          ]
        },
        "subject": {
          "reference": "urn:uuid:3f28d973-591b-472d-8152-f5e90bfd2539",
          "display": "Meaghan Neary"
        }
      }
    },
    {
      "fullUrl": "urn:uuid:3f28d973-591b-472d-8152-f5e90bfd2539",
      "resource": {
        "resourceType": "Patient",
        "id": "3f28d973-591b-472d-8152-f5e90bfd2539",
        "meta": {
          "security": [
            {
              "system": "http://terminology.hl7.org/CodeSystem/v3-ActReason",
              "code": "HTEST"
            },
            {
              "system": "http://terminology.hl7.org/CodeSystem/v3-ActReason",
              "code": "TRAIN"
            }
          ],
          "tag": [
            {
              "system": "https://synderai.net/fhir/CodeSystem/tags",
              "code": "synthetic",
              "display": "SYNDERAI Synthetic data"
            }
          ],
          "profile": [
            "http://hl7.eu/fhir/base/StructureDefinition/patient-eu-core"
          ]
        },
        "identifier": [
          {
            "type": {
              "coding": [
                {
                  "code": "PT",
                  "system": "http://terminology.hl7.org/CodeSystem/v2-0203"
                }
              ]
            },
            "system": "http://ec.europa.eu/identifier/eci",
            "value": "1586-567257-8"
          },
          {
            "type": {
              "coding": [
                {
                  "code": "MR",
                  "system": "http://terminology.hl7.org/CodeSystem/v2-0203"
                }
              ]
            },
            "system": "http://local.setting.eu/identifier",
            "value": "443e6379-f231-b364-3ccb-644740a1aa2a"
          }
        ],
        "name": [
          {
            "family": "Neary"
          },
          {
            "given": [
              "Meaghan"
            ]
          },
          {
            "text": "Meaghan Neary"
          }
        ],
        "address": [
          {
            "line": [
              "64 Linskey Street"
            ],
            "use": "home",
            "type": "physical",
            "postalCode": "D02",
            "city": "Dublin",
            "country": "Ireland"
          }
        ],
        "telecom": [
          {
            "system": "phone",
            "value": "001-967-573-0911x465"
          }
        ],
        "extension": [
          {
            "url": "http://hl7.org/fhir/StructureDefinition/patient-nationality",
            "valueCodeableConcept": {
              "coding": [
                {
                  "code": "IE",
                  "system": "http://hl7.org/fhir/ValueSet/country"
                }
              ]
            }
          }
        ],
        "text": {
          "status": "generated",
          "div": "<div xmlns=\"http://www.w3.org/1999/xhtml\"><table class=\"hl7__ips\"><tr><td>Meaghan Neary</td><td>female</td><td>19-Dec-1960</td></tr></table></div>"
        },
        "gender": "female",
        "birthDate": "1960-12-19"
      }
    },
    {
      "fullUrl": "urn:uuid:7c200019-620a-49cb-9425-0bebcbf9bc14",
      "resource": {
        "resourceType": "ServiceRequest",
        "id": "7c200019-620a-49cb-9425-0bebcbf9bc14",
        "meta": {
          "profile": [
            "http://hl7.eu/fhir/laboratory/StructureDefinition/ServiceRequest-eu-lab"
          ]
        },
        "identifier": [
          {
            "system": "http://example.org",
            "value": "af939703-ba08-4b22-accf-4e4e64451e8d"
          }
        ],
        "specimen": [
          {
            "reference": "urn:uuid:e41abd26-2053-4fd1-939a-e2825df36aa1"
          },
          {
            "reference": "urn:uuid:fed7794a-5994-4e79-bb87-6037f35adab9"
          },
          {
            "reference": "urn:uuid:6fc9ec30-1f40-4f81-95e1-a04068e0bb96"
          }
        ],
        "reasonCode": [
          {
            "coding": [
              {
                "code": "55822004",
                "system": "http://snomed.info/sct",
                "display": "Hyperlipidemia"
              }
            ]
          },
          {
            "coding": [
              {
                "code": "433144002",
                "system": "http://snomed.info/sct",
                "display": "Chronic kidney disease stage 3"
              }
            ]
          },
          {
            "coding": [
              {
                "code": "157141000119108",
                "system": "http://snomed.info/sct",
                "display": "Proteinuria due to type 2 diabetes mellitus"
              }
            ]
          },
          {
            "coding": [
              {
                "code": "431856006",
                "system": "http://snomed.info/sct",
                "display": "Chronic kidney disease stage 2"
              }
            ]
          },
          {
            "coding": [
              {
                "code": "90781000119102",
                "system": "http://snomed.info/sct",
                "display": "Microalbuminuria due to type 2 diabetes mellitus"
              }
            ]
          },
          {
            "coding": [
              {
                "code": "127013003",
                "system": "http://snomed.info/sct",
                "display": "Disorder of kidney due to diabetes mellitus"
              }
            ]
          },
          {
            "coding": [
              {
                "code": "431855005",
                "system": "http://snomed.info/sct",
                "display": "Chronic kidney disease stage 1"
              }
            ]
          },
          {
            "coding": [
              {
                "code": "237602007",
                "system": "http://snomed.info/sct",
                "display": "Metabolic syndrome X"
              }
            ]
          },
          {
            "coding": [
              {
                "code": "271737000",
                "system": "http://snomed.info/sct",
                "display": "Anemia"
              }
            ]
          },
          {
            "coding": [
              {
                "code": "15777000",
                "system": "http://snomed.info/sct",
                "display": "Prediabetes"
              }
            ]
          },
          {
            "coding": [
              {
                "code": "59621000",
                "system": "http://snomed.info/sct",
                "display": "Essential hypertension"
              }
            ]
          }
        ],
        "status": "active",
        "intent": "order",
        "code": {
          "coding": [
            {
              "code": "108252007",
              "system": "http://snomed.info/sct",
              "display": "Laboratory procedure"
            }
          ]
        },
        "subject": {
          "reference": "urn:uuid:3f28d973-591b-472d-8152-f5e90bfd2539",
          "display": "Meaghan Neary"
        },
        "requester": {
          "reference": "urn:uuid:5fc42236-b93f-4c89-9620-53628c40fb9d"
        }
      }
    },
    {
      "fullUrl": "urn:uuid:5fc42236-b93f-4c89-9620-53628c40fb9d",
      "resource": {
        "resourceType": "PractitionerRole",
        "id": "5fc42236-b93f-4c89-9620-53628c40fb9d",
        "meta": {
          "profile": [
            "http://hl7.eu/fhir/base/StructureDefinition/practitionerRole-eu"
          ]
        },
        "text": {
          "status": "generated",
          "div": "<div xmlns=\"http://www.w3.org/1999/xhtml\">Provider Role Id: 5fc42236-b93f-4c89-9620-53628c40fb9d</div>"
        },
        "organization": {
          "reference": "urn:uuid:1d7d5712-4c43-4379-b45d-17a705e641d3"
        }
      }
    },
    {
      "fullUrl": "urn:uuid:1d7d5712-4c43-4379-b45d-17a705e641d3",
      "resource": {
        "resourceType": "Organization",
        "id": "1d7d5712-4c43-4379-b45d-17a705e641d3",
        "meta": {
          "profile": [
            "http://hl7.eu/fhir/base/StructureDefinition/organization-eu"
          ]
        },
        "identifier": [
          {
            "assigner": {
              "display": "HL7 Europe"
            },
            "system": "urn:oid:2.16.840.1.113883.2.51.999",
            "value": "1433da29-5756-4dd0-a61a-cb9e466f7f5f"
          }
        ],
        "address": [
          {
            "line": [
              "Parnell Square West nan"
            ],
            "city": "Dublin",
            "postalCode": "D01",
            "country": "Ireland"
          }
        ],
        "text": {
          "status": "generated",
          "div": "<div xmlns=\"http://www.w3.org/1999/xhtml\">Provider Organization: Rotunda Hospital</div>"
        },
        "name": "Rotunda Hospital"
      }
    },
    {
      "fullUrl": "urn:uuid:e41abd26-2053-4fd1-939a-e2825df36aa1",
      "resource": {
        "resourceType": "Specimen",
        "id": "e41abd26-2053-4fd1-939a-e2825df36aa1",
        "meta": {
          "profile": [
            "http://hl7.eu/fhir/laboratory/StructureDefinition/Specimen-eu-lab"
          ]
        },
        "collection": {
          "collectedDateTime": "2015-10-05"
        },
        "text": {
          "status": "generated",
          "div": "<div xmlns=\"http://www.w3.org/1999/xhtml\"><table class=\"hl7__eu__lab__report\"><tr><th>Specimen</th><th>Collection Date</th></tr><tr><td>Acellular blood (serum or plasma) specimen</td><td><span class=\"nb\">05-Oct-2015</span></td></tr></table></div>"
        },
        "type": {
          "coding": [
            {
              "code": "122592007",
              "system": "http://snomed.info/sct",
              "display": "Acellular blood (serum or plasma) specimen"
            }
          ]
        }
      }
    },
    {
      "fullUrl": "urn:uuid:fed7794a-5994-4e79-bb87-6037f35adab9",
      "resource": {
        "resourceType": "Specimen",
        "id": "fed7794a-5994-4e79-bb87-6037f35adab9",
        "meta": {
          "profile": [
            "http://hl7.eu/fhir/laboratory/StructureDefinition/Specimen-eu-lab"
          ]
        },
        "collection": {
          "collectedDateTime": "2015-10-05"
        },
        "text": {
          "status": "generated",
          "div": "<div xmlns=\"http://www.w3.org/1999/xhtml\"><table class=\"hl7__eu__lab__report\"><tr><th>Specimen</th><th>Collection Date</th></tr><tr><td>Urine specimen</td><td><span class=\"nb\">05-Oct-2015</span></td></tr></table></div>"
        },
        "type": {
          "coding": [
            {
              "code": "122575003",
              "system": "http://snomed.info/sct",
              "display": "Urine specimen"
            }
          ]
        }
      }
    },
    {
      "fullUrl": "urn:uuid:6fc9ec30-1f40-4f81-95e1-a04068e0bb96",
      "resource": {
        "resourceType": "Specimen",
        "id": "6fc9ec30-1f40-4f81-95e1-a04068e0bb96",
        "meta": {
          "profile": [
            "http://hl7.eu/fhir/laboratory/StructureDefinition/Specimen-eu-lab"
          ]
        },
        "collection": {
          "collectedDateTime": "2015-10-05"
        },
        "text": {
          "status": "generated",
          "div": "<div xmlns=\"http://www.w3.org/1999/xhtml\"><table class=\"hl7__eu__lab__report\"><tr><th>Specimen</th><th>Collection Date</th></tr><tr><td>Whole blood specimen (specimen)</td><td><span class=\"nb\">05-Oct-2015</span></td></tr></table></div>"
        },
        "type": {
          "coding": [
            {
              "code": "258580003",
              "system": "http://snomed.info/sct",
              "display": "Whole blood specimen (specimen)"
            }
          ]
        }
      }
    },
    {
      "fullUrl": "urn:uuid:a669d883-671a-4b1f-9c39-fdb2eb238d0d",
      "resource": {
        "resourceType": "Observation",
        "id": "a669d883-671a-4b1f-9c39-fdb2eb238d0d",
        "meta": {
          "profile": [
            "http://hl7.eu/fhir/laboratory/StructureDefinition/Observation-resultslab-eu-lab"
          ]
        },
        "performer": [
          {
            "display": "The Central European Lab"
          }
        ],
        "category": [
          {
            "coding": [
              {
                "system": "http://terminology.hl7.org/CodeSystem/observation-category",
                "code": "laboratory"
              }
            ]
          }
        ],
        "code": {
          "coding": [
            {
              "code": "2345-7",
              "system": "http://loinc.org",
              "display": "Glucose [Mass/volume] in Serum or Plasma"
            }
          ],
          "text": "Glucose [Mass/volume] in Serum or Plasma"
        },
        "valueQuantity": {
          "system": "http://unitsofmeasure.org",
          "value": 98.8,
          "unit": "mg/dL",
          "code": "mg/dL"
        },
        "referenceRange": [
          {
            "low": {
              "value": 70,
              "code": "mg/dL",
              "system": "http://unitsofmeasure.org"
            }
          },
          {
            "high": {
              "value": 99,
              "code": "mg/dL",
              "system": "http://unitsofmeasure.org"
            }
          }
        ],
        "text": {
          "status": "generated",
          "div": "<div xmlns=\"http://www.w3.org/1999/xhtml\"><table class=\"hl7__eu__lab__report\"><tr><th>Test</th><th>06-Oct-2015</th><th>Reference&#xA0;Range</th><th>Unit</th></tr><tr><td>Glucose [Mass/volume] in Serum or Plasma</td><td>98.8</td><td>70 - 99</td><td></td><td>mg/dL</td></tr></table></div>"
        },
        "status": "final",
        "subject": {
          "reference": "urn:uuid:3f28d973-591b-472d-8152-f5e90bfd2539",
          "display": "Meaghan Neary"
        },
        "effectiveDateTime": "2015-10-05T22:11:04Z",
        "specimen": {
          "reference": "urn:uuid:e41abd26-2053-4fd1-939a-e2825df36aa1"
        }
      }
    },
    {
      "fullUrl": "urn:uuid:58393c30-0364-412e-95b7-6ce85f681ee6",
      "resource": {
        "resourceType": "Observation",
        "id": "58393c30-0364-412e-95b7-6ce85f681ee6",
        "meta": {
          "profile": [
            "http://hl7.eu/fhir/laboratory/StructureDefinition/Observation-resultslab-eu-lab"
          ]
        },
        "performer": [
          {
            "display": "The Central European Lab"
          }
        ],
        "category": [
          {
            "coding": [
              {
                "system": "http://terminology.hl7.org/CodeSystem/observation-category",
                "code": "laboratory"
              }
            ]
          }
        ],
        "code": {
          "coding": [
            {
              "code": "3094-0",
              "system": "http://loinc.org",
              "display": "Urea nitrogen [Mass/volume] in Serum or Plasma"
            }
          ],
          "text": "Urea nitrogen [Mass/volume] in Serum or Plasma"
        },
        "valueQuantity": {
          "system": "http://unitsofmeasure.org",
          "value": 11.2,
          "unit": "mg/dL",
          "code": "mg/dL"
        },
        "referenceRange": [
          {
            "low": {
              "value": 7,
              "code": "mg/dL",
              "system": "http://unitsofmeasure.org"
            }
          },
          {
            "high": {
              "value": 50,
              "code": "mg/dL",
              "system": "http://unitsofmeasure.org"
            }
          }
        ],
        "text": {
          "status": "generated",
          "div": "<div xmlns=\"http://www.w3.org/1999/xhtml\"><table class=\"hl7__eu__lab__report\"><tr><th>Test</th><th>06-Oct-2015</th><th>Reference&#xA0;Range</th><th>Unit</th></tr><tr><td>Urea nitrogen [Mass/volume] in Serum or Plasma</td><td>11.2</td><td>7 - 50</td><td></td><td>mg/dL</td></tr></table></div>"
        },
        "status": "final",
        "subject": {
          "reference": "urn:uuid:3f28d973-591b-472d-8152-f5e90bfd2539",
          "display": "Meaghan Neary"
        },
        "effectiveDateTime": "2015-10-05T22:11:04Z",
        "specimen": {
          "reference": "urn:uuid:e41abd26-2053-4fd1-939a-e2825df36aa1"
        }
      }
    },
    {
      "fullUrl": "urn:uuid:e80ee7e4-5c2d-4a49-8cb7-737bf645e265",
      "resource": {
        "resourceType": "Observation",
        "id": "e80ee7e4-5c2d-4a49-8cb7-737bf645e265",
        "meta": {
          "profile": [
            "http://hl7.eu/fhir/laboratory/StructureDefinition/Observation-resultslab-eu-lab"
          ]
        },
        "performer": [
          {
            "display": "The Central European Lab"
          }
        ],
        "category": [
          {
            "coding": [
              {
                "system": "http://terminology.hl7.org/CodeSystem/observation-category",
                "code": "laboratory"
              }
            ]
          }
        ],
        "code": {
          "coding": [
            {
              "code": "2160-0",
              "system": "http://loinc.org",
              "display": "Creatinine [Mass/volume] in Serum or Plasma"
            }
          ],
          "text": "Creatinine [Mass/volume] in Serum or Plasma"
        },
        "valueQuantity": {
          "system": "http://unitsofmeasure.org",
          "value": 2,
          "unit": "mg/dL",
          "code": "mg/dL"
        },
        "referenceRange": [
          {
            "low": {
              "value": 0.6,
              "code": "mg/dL",
              "system": "http://unitsofmeasure.org"
            }
          },
          {
            "high": {
              "value": 1.1,
              "code": "mg/dL",
              "system": "http://unitsofmeasure.org"
            }
          }
        ],
        "interpretation": [
          {
            "coding": [
              {
                "code": "H",
                "system": "http://terminology.hl7.org/CodeSystem/v3-ObservationInterpretation",
                "display": "High"
              }
            ]
          }
        ],
        "text": {
          "status": "generated",
          "div": "<div xmlns=\"http://www.w3.org/1999/xhtml\"><table class=\"hl7__eu__lab__report\"><tr><th>Test</th><th>06-Oct-2015</th><th>Reference&#xA0;Range</th><th>Unit</th></tr><tr><td>Creatinine [Mass/volume] in Serum or Plasma</td><td>2.0</td><td>0.6 - 1.1</td><td>H</td><td>mg/dL</td></tr></table></div>"
        },
        "status": "final",
        "subject": {
          "reference": "urn:uuid:3f28d973-591b-472d-8152-f5e90bfd2539",
          "display": "Meaghan Neary"
        },
        "effectiveDateTime": "2015-10-05T22:11:04Z",
        "specimen": {
          "reference": "urn:uuid:e41abd26-2053-4fd1-939a-e2825df36aa1"
        }
      }
    },
    {
      "fullUrl": "urn:uuid:f9d0a89a-c344-4647-93cf-0c888af699c0",
      "resource": {
        "resourceType": "Observation",
        "id": "f9d0a89a-c344-4647-93cf-0c888af699c0",
        "meta": {
          "profile": [
            "http://hl7.eu/fhir/laboratory/StructureDefinition/Observation-resultslab-eu-lab"
          ]
        },
        "performer": [
          {
            "display": "The Central European Lab"
          }
        ],
        "category": [
          {
            "coding": [
              {
                "system": "http://terminology.hl7.org/CodeSystem/observation-category",
                "code": "laboratory"
              }
            ]
          }
        ],
        "code": {
          "coding": [
            {
              "code": "17861-6",
              "system": "http://loinc.org",
              "display": "Calcium [Mass/volume] in Serum or Plasma"
            }
          ],
          "text": "Calcium [Mass/volume] in Serum or Plasma"
        },
        "valueQuantity": {
          "system": "http://unitsofmeasure.org",
          "value": 9.2,
          "unit": "mg/dL",
          "code": "mg/dL"
        },
        "referenceRange": [
          {
            "low": {
              "value": 8.6,
              "code": "mg/dL",
              "system": "http://unitsofmeasure.org"
            }
          },
          {
            "high": {
              "value": 10.4,
              "code": "mg/dL",
              "system": "http://unitsofmeasure.org"
            }
          }
        ],
        "text": {
          "status": "generated",
          "div": "<div xmlns=\"http://www.w3.org/1999/xhtml\"><table class=\"hl7__eu__lab__report\"><tr><th>Test</th><th>06-Oct-2015</th><th>Reference&#xA0;Range</th><th>Unit</th></tr><tr><td>Calcium [Mass/volume] in Serum or Plasma</td><td>9.2</td><td>8.6 - 10.4</td><td></td><td>mg/dL</td></tr></table></div>"
        },
        "status": "final",
        "subject": {
          "reference": "urn:uuid:3f28d973-591b-472d-8152-f5e90bfd2539",
          "display": "Meaghan Neary"
        },
        "effectiveDateTime": "2015-10-05T22:11:04Z",
        "specimen": {
          "reference": "urn:uuid:e41abd26-2053-4fd1-939a-e2825df36aa1"
        }
      }
    },
    {
      "fullUrl": "urn:uuid:787b47a0-24c9-440d-83a5-a2b72bbf4f36",
      "resource": {
        "resourceType": "Observation",
        "id": "787b47a0-24c9-440d-83a5-a2b72bbf4f36",
        "meta": {
          "profile": [
            "http://hl7.eu/fhir/laboratory/StructureDefinition/Observation-resultslab-eu-lab"
          ]
        },
        "performer": [
          {
            "display": "The Central European Lab"
          }
        ],
        "category": [
          {
            "coding": [
              {
                "system": "http://terminology.hl7.org/CodeSystem/observation-category",
                "code": "laboratory"
              }
            ]
          }
        ],
        "code": {
          "coding": [
            {
              "code": "2951-2",
              "system": "http://loinc.org",
              "display": "Sodium [Moles/volume] in Serum or Plasma"
            }
          ],
          "text": "Sodium [Moles/volume] in Serum or Plasma"
        },
        "valueQuantity": {
          "system": "http://unitsofmeasure.org",
          "value": 139.7,
          "unit": "mmol/L",
          "code": "mmol/L"
        },
        "referenceRange": [
          {
            "low": {
              "value": 135,
              "code": "mmol/L",
              "system": "http://unitsofmeasure.org"
            }
          },
          {
            "high": {
              "value": 145,
              "code": "mmol/L",
              "system": "http://unitsofmeasure.org"
            }
          }
        ],
        "text": {
          "status": "generated",
          "div": "<div xmlns=\"http://www.w3.org/1999/xhtml\"><table class=\"hl7__eu__lab__report\"><tr><th>Test</th><th>06-Oct-2015</th><th>Reference&#xA0;Range</th><th>Unit</th></tr><tr><td>Sodium [Moles/volume] in Serum or Plasma</td><td>139.7</td><td>135 - 145</td><td></td><td>mmol/L</td></tr></table></div>"
        },
        "status": "final",
        "subject": {
          "reference": "urn:uuid:3f28d973-591b-472d-8152-f5e90bfd2539",
          "display": "Meaghan Neary"
        },
        "effectiveDateTime": "2015-10-05T22:11:04Z",
        "specimen": {
          "reference": "urn:uuid:e41abd26-2053-4fd1-939a-e2825df36aa1"
        }
      }
    },
    {
      "fullUrl": "urn:uuid:620e82e6-c25f-43da-8e22-22308e21dba4",
      "resource": {
        "resourceType": "Observation",
        "id": "620e82e6-c25f-43da-8e22-22308e21dba4",
        "meta": {
          "profile": [
            "http://hl7.eu/fhir/laboratory/StructureDefinition/Observation-resultslab-eu-lab"
          ]
        },
        "performer": [
          {
            "display": "The Central European Lab"
          }
        ],
        "category": [
          {
            "coding": [
              {
                "system": "http://terminology.hl7.org/CodeSystem/observation-category",
                "code": "laboratory"
              }
            ]
          }
        ],
        "code": {
          "coding": [
            {
              "code": "2823-3",
              "system": "http://loinc.org",
              "display": "Potassium [Moles/volume] in Serum or Plasma"
            }
          ],
          "text": "Potassium [Moles/volume] in Serum or Plasma"
        },
        "valueQuantity": {
          "system": "http://unitsofmeasure.org",
          "value": 3.9,
          "unit": "mmol/L",
          "code": "mmol/L"
        },
        "referenceRange": [
          {
            "low": {
              "value": 3.5,
              "code": "mmol/L",
              "system": "http://unitsofmeasure.org"
            }
          },
          {
            "high": {
              "value": 5.1,
              "code": "mmol/L",
              "system": "http://unitsofmeasure.org"
            }
          }
        ],
        "text": {
          "status": "generated",
          "div": "<div xmlns=\"http://www.w3.org/1999/xhtml\"><table class=\"hl7__eu__lab__report\"><tr><th>Test</th><th>06-Oct-2015</th><th>Reference&#xA0;Range</th><th>Unit</th></tr><tr><td>Potassium [Moles/volume] in Serum or Plasma</td><td>3.9</td><td>3.5 - 5.1</td><td></td><td>mmol/L</td></tr></table></div>"
        },
        "status": "final",
        "subject": {
          "reference": "urn:uuid:3f28d973-591b-472d-8152-f5e90bfd2539",
          "display": "Meaghan Neary"
        },
        "effectiveDateTime": "2015-10-05T22:11:04Z",
        "specimen": {
          "reference": "urn:uuid:e41abd26-2053-4fd1-939a-e2825df36aa1"
        }
      }
    },
    {
      "fullUrl": "urn:uuid:1722eee0-0475-430f-8f66-73ebe20573e8",
      "resource": {
        "resourceType": "Observation",
        "id": "1722eee0-0475-430f-8f66-73ebe20573e8",
        "meta": {
          "profile": [
            "http://hl7.eu/fhir/laboratory/StructureDefinition/Observation-resultslab-eu-lab"
          ]
        },
        "performer": [
          {
            "display": "The Central European Lab"
          }
        ],
        "category": [
          {
            "coding": [
              {
                "system": "http://terminology.hl7.org/CodeSystem/observation-category",
                "code": "laboratory"
              }
            ]
          }
        ],
        "code": {
          "coding": [
            {
              "code": "2075-0",
              "system": "http://loinc.org",
              "display": "Chloride [Moles/volume] in Serum or Plasma"
            }
          ],
          "text": "Chloride [Moles/volume] in Serum or Plasma"
        },
        "valueQuantity": {
          "system": "http://unitsofmeasure.org",
          "value": 101.9,
          "unit": "mmol/L",
          "code": "mmol/L"
        },
        "referenceRange": [
          {
            "low": {
              "value": 98,
              "code": "mmol/L",
              "system": "http://unitsofmeasure.org"
            }
          },
          {
            "high": {
              "value": 108,
              "code": "mmol/L",
              "system": "http://unitsofmeasure.org"
            }
          }
        ],
        "text": {
          "status": "generated",
          "div": "<div xmlns=\"http://www.w3.org/1999/xhtml\"><table class=\"hl7__eu__lab__report\"><tr><th>Test</th><th>06-Oct-2015</th><th>Reference&#xA0;Range</th><th>Unit</th></tr><tr><td>Chloride [Moles/volume] in Serum or Plasma</td><td>101.9</td><td>98 - 108</td><td></td><td>mmol/L</td></tr></table></div>"
        },
        "status": "final",
        "subject": {
          "reference": "urn:uuid:3f28d973-591b-472d-8152-f5e90bfd2539",
          "display": "Meaghan Neary"
        },
        "effectiveDateTime": "2015-10-05T22:11:04Z",
        "specimen": {
          "reference": "urn:uuid:e41abd26-2053-4fd1-939a-e2825df36aa1"
        }
      }
    },
    {
      "fullUrl": "urn:uuid:cba6a47a-741f-4eb5-b1bc-cd2a0cdd4340",
      "resource": {
        "resourceType": "Observation",
        "id": "cba6a47a-741f-4eb5-b1bc-cd2a0cdd4340",
        "meta": {
          "profile": [
            "http://hl7.eu/fhir/laboratory/StructureDefinition/Observation-resultslab-eu-lab"
          ]
        },
        "performer": [
          {
            "display": "The Central European Lab"
          }
        ],
        "category": [
          {
            "coding": [
              {
                "system": "http://terminology.hl7.org/CodeSystem/observation-category",
                "code": "laboratory"
              }
            ]
          }
        ],
        "code": {
          "coding": [
            {
              "code": "2028-9",
              "system": "http://loinc.org",
              "display": "Carbon dioxide, total [Moles/volume] in Serum or Plasma"
            }
          ],
          "text": "Carbon dioxide, total [Moles/volume] in Serum or Plasma"
        },
        "valueQuantity": {
          "system": "http://unitsofmeasure.org",
          "value": 24.3,
          "unit": "mmol/L",
          "code": "mmol/L"
        },
        "referenceRange": [
          {
            "low": {
              "value": 22,
              "code": "mmol/L",
              "system": "http://unitsofmeasure.org"
            }
          },
          {
            "high": {
              "value": 32,
              "code": "mmol/L",
              "system": "http://unitsofmeasure.org"
            }
          }
        ],
        "text": {
          "status": "generated",
          "div": "<div xmlns=\"http://www.w3.org/1999/xhtml\"><table class=\"hl7__eu__lab__report\"><tr><th>Test</th><th>06-Oct-2015</th><th>Reference&#xA0;Range</th><th>Unit</th></tr><tr><td>Carbon dioxide, total [Moles/volume] in Serum or Plasma</td><td>24.3</td><td>22 - 32</td><td></td><td>mmol/L</td></tr></table></div>"
        },
        "status": "final",
        "subject": {
          "reference": "urn:uuid:3f28d973-591b-472d-8152-f5e90bfd2539",
          "display": "Meaghan Neary"
        },
        "effectiveDateTime": "2015-10-05T22:11:04Z",
        "specimen": {
          "reference": "urn:uuid:e41abd26-2053-4fd1-939a-e2825df36aa1"
        }
      }
    },
    {
      "fullUrl": "urn:uuid:fda09e80-ed3c-4ab6-895c-b34f2971d132",
      "resource": {
        "resourceType": "Observation",
        "id": "fda09e80-ed3c-4ab6-895c-b34f2971d132",
        "meta": {
          "profile": [
            "http://hl7.eu/fhir/laboratory/StructureDefinition/Observation-resultslab-eu-lab"
          ]
        },
        "performer": [
          {
            "display": "The Central European Lab"
          }
        ],
        "category": [
          {
            "coding": [
              {
                "system": "http://terminology.hl7.org/CodeSystem/observation-category",
                "code": "laboratory"
              }
            ]
          }
        ],
        "code": {
          "coding": [
            {
              "code": "5767-9",
              "system": "http://loinc.org",
              "display": "Appearance of Urine"
            }
          ],
          "text": "Appearance of Urine"
        },
        "text": {
          "status": "generated",
          "div": "<div xmlns=\"http://www.w3.org/1999/xhtml\"><table class=\"hl7__eu__lab__report\"><tr><th>Test</th><th>06-Oct-2015</th><th>Reference&#xA0;Range</th><th>Unit</th></tr><tr><td>Appearance of Urine</td></tr></table></div>"
        },
        "status": "final",
        "subject": {
          "reference": "urn:uuid:3f28d973-591b-472d-8152-f5e90bfd2539",
          "display": "Meaghan Neary"
        },
        "effectiveDateTime": "2015-10-05T22:11:04Z",
        "specimen": {
          "reference": "urn:uuid:fed7794a-5994-4e79-bb87-6037f35adab9"
        }
      }
    },
    {
      "fullUrl": "urn:uuid:65306064-6513-459d-a1ec-443c99301376",
      "resource": {
        "resourceType": "Observation",
        "id": "65306064-6513-459d-a1ec-443c99301376",
        "meta": {
          "profile": [
            "http://hl7.eu/fhir/laboratory/StructureDefinition/Observation-resultslab-eu-lab"
          ]
        },
        "performer": [
          {
            "display": "The Central European Lab"
          }
        ],
        "category": [
          {
            "coding": [
              {
                "system": "http://terminology.hl7.org/CodeSystem/observation-category",
                "code": "laboratory"
              }
            ]
          }
        ],
        "code": {
          "coding": [
            {
              "code": "34533-0",
              "system": "http://loinc.org",
              "display": "Odor of Urine"
            }
          ],
          "text": "Odor of Urine"
        },
        "text": {
          "status": "generated",
          "div": "<div xmlns=\"http://www.w3.org/1999/xhtml\"><table class=\"hl7__eu__lab__report\"><tr><th>Test</th><th>06-Oct-2015</th><th>Reference&#xA0;Range</th><th>Unit</th></tr><tr><td>Odor of Urine</td></tr></table></div>"
        },
        "status": "final",
        "subject": {
          "reference": "urn:uuid:3f28d973-591b-472d-8152-f5e90bfd2539",
          "display": "Meaghan Neary"
        },
        "effectiveDateTime": "2015-10-05T22:11:04Z",
        "specimen": {
          "reference": "urn:uuid:fed7794a-5994-4e79-bb87-6037f35adab9"
        }
      }
    },
    {
      "fullUrl": "urn:uuid:39c0f650-9d5b-4001-bd0b-3d207c95699c",
      "resource": {
        "resourceType": "Observation",
        "id": "39c0f650-9d5b-4001-bd0b-3d207c95699c",
        "meta": {
          "profile": [
            "http://hl7.eu/fhir/laboratory/StructureDefinition/Observation-resultslab-eu-lab"
          ]
        },
        "performer": [
          {
            "display": "The Central European Lab"
          }
        ],
        "category": [
          {
            "coding": [
              {
                "system": "http://terminology.hl7.org/CodeSystem/observation-category",
                "code": "laboratory"
              }
            ]
          }
        ],
        "code": {
          "coding": [
            {
              "code": "32167-9",
              "system": "http://loinc.org",
              "display": "Clarity of Urine"
            }
          ],
          "text": "Clarity of Urine"
        },
        "text": {
          "status": "generated",
          "div": "<div xmlns=\"http://www.w3.org/1999/xhtml\"><table class=\"hl7__eu__lab__report\"><tr><th>Test</th><th>06-Oct-2015</th><th>Reference&#xA0;Range</th><th>Unit</th></tr><tr><td>Clarity of Urine</td></tr></table></div>"
        },
        "status": "final",
        "subject": {
          "reference": "urn:uuid:3f28d973-591b-472d-8152-f5e90bfd2539",
          "display": "Meaghan Neary"
        },
        "effectiveDateTime": "2015-10-05T22:11:04Z",
        "specimen": {
          "reference": "urn:uuid:fed7794a-5994-4e79-bb87-6037f35adab9"
        }
      }
    },
    {
      "fullUrl": "urn:uuid:4c7bca16-0be8-4c27-9a34-faf2ff7ec0b9",
      "resource": {
        "resourceType": "Observation",
        "id": "4c7bca16-0be8-4c27-9a34-faf2ff7ec0b9",
        "meta": {
          "profile": [
            "http://hl7.eu/fhir/laboratory/StructureDefinition/Observation-resultslab-eu-lab"
          ]
        },
        "performer": [
          {
            "display": "The Central European Lab"
          }
        ],
        "category": [
          {
            "coding": [
              {
                "system": "http://terminology.hl7.org/CodeSystem/observation-category",
                "code": "laboratory"
              }
            ]
          }
        ],
        "code": {
          "coding": [
            {
              "code": "5778-6",
              "system": "http://loinc.org",
              "display": "Color of Urine"
            }
          ],
          "text": "Color of Urine"
        },
        "text": {
          "status": "generated",
          "div": "<div xmlns=\"http://www.w3.org/1999/xhtml\"><table class=\"hl7__eu__lab__report\"><tr><th>Test</th><th>06-Oct-2015</th><th>Reference&#xA0;Range</th><th>Unit</th></tr><tr><td>Color of Urine</td></tr></table></div>"
        },
        "status": "final",
        "subject": {
          "reference": "urn:uuid:3f28d973-591b-472d-8152-f5e90bfd2539",
          "display": "Meaghan Neary"
        },
        "effectiveDateTime": "2015-10-05T22:11:04Z",
        "specimen": {
          "reference": "urn:uuid:fed7794a-5994-4e79-bb87-6037f35adab9"
        }
      }
    },
    {
      "fullUrl": "urn:uuid:fb3ef038-e4bf-4e22-bb7f-48bc8da3b392",
      "resource": {
        "resourceType": "Observation",
        "id": "fb3ef038-e4bf-4e22-bb7f-48bc8da3b392",
        "meta": {
          "profile": [
            "http://hl7.eu/fhir/laboratory/StructureDefinition/Observation-resultslab-eu-lab"
          ]
        },
        "performer": [
          {
            "display": "The Central European Lab"
          }
        ],
        "category": [
          {
            "coding": [
              {
                "system": "http://terminology.hl7.org/CodeSystem/observation-category",
                "code": "laboratory"
              }
            ]
          }
        ],
        "code": {
          "coding": [
            {
              "code": "5792-7",
              "system": "http://loinc.org",
              "display": "Glucose [Mass/volume] in Urine by Test strip"
            }
          ],
          "text": "Glucose [Mass/volume] in Urine by Test strip"
        },
        "valueQuantity": {
          "system": "http://unitsofmeasure.org",
          "value": 1.5,
          "unit": "mg/dL",
          "code": "mg/dL"
        },
        "referenceRange": [
          {
            "low": {
              "value": 0.8,
              "code": "mg/dL",
              "system": "http://unitsofmeasure.org"
            }
          },
          {
            "high": {
              "value": 0,
              "code": "mg/dL",
              "system": "http://unitsofmeasure.org"
            }
          }
        ],
        "interpretation": [
          {
            "coding": [
              {
                "code": "H",
                "system": "http://terminology.hl7.org/CodeSystem/v3-ObservationInterpretation",
                "display": "High"
              }
            ]
          }
        ],
        "text": {
          "status": "generated",
          "div": "<div xmlns=\"http://www.w3.org/1999/xhtml\"><table class=\"hl7__eu__lab__report\"><tr><th>Test</th><th>06-Oct-2015</th><th>Reference&#xA0;Range</th><th>Unit</th></tr><tr><td>Glucose [Mass/volume] in Urine by Test strip</td><td>1.5</td><td>0.8 - 0</td><td>H</td><td>mg/dL</td></tr></table></div>"
        },
        "status": "final",
        "subject": {
          "reference": "urn:uuid:3f28d973-591b-472d-8152-f5e90bfd2539",
          "display": "Meaghan Neary"
        },
        "effectiveDateTime": "2015-10-05T22:11:04Z",
        "specimen": {
          "reference": "urn:uuid:fed7794a-5994-4e79-bb87-6037f35adab9"
        }
      }
    },
    {
      "fullUrl": "urn:uuid:74e777b7-191e-462b-a628-95cc76e48a7f",
      "resource": {
        "resourceType": "Observation",
        "id": "74e777b7-191e-462b-a628-95cc76e48a7f",
        "meta": {
          "profile": [
            "http://hl7.eu/fhir/laboratory/StructureDefinition/Observation-resultslab-eu-lab"
          ]
        },
        "performer": [
          {
            "display": "The Central European Lab"
          }
        ],
        "category": [
          {
            "coding": [
              {
                "system": "http://terminology.hl7.org/CodeSystem/observation-category",
                "code": "laboratory"
              }
            ]
          }
        ],
        "code": {
          "coding": [
            {
              "code": "25428-4",
              "system": "http://loinc.org",
              "display": "Glucose [Presence] in Urine by Test strip"
            }
          ],
          "text": "Glucose [Presence] in Urine by Test strip"
        },
        "text": {
          "status": "generated",
          "div": "<div xmlns=\"http://www.w3.org/1999/xhtml\"><table class=\"hl7__eu__lab__report\"><tr><th>Test</th><th>06-Oct-2015</th><th>Reference&#xA0;Range</th><th>Unit</th></tr><tr><td>Glucose [Presence] in Urine by Test strip</td></tr></table></div>"
        },
        "status": "final",
        "subject": {
          "reference": "urn:uuid:3f28d973-591b-472d-8152-f5e90bfd2539",
          "display": "Meaghan Neary"
        },
        "effectiveDateTime": "2015-10-05T22:11:04Z",
        "specimen": {
          "reference": "urn:uuid:fed7794a-5994-4e79-bb87-6037f35adab9"
        }
      }
    },
    {
      "fullUrl": "urn:uuid:8062a2ea-f6cd-4261-9809-353b8e87afcd",
      "resource": {
        "resourceType": "Observation",
        "id": "8062a2ea-f6cd-4261-9809-353b8e87afcd",
        "meta": {
          "profile": [
            "http://hl7.eu/fhir/laboratory/StructureDefinition/Observation-resultslab-eu-lab"
          ]
        },
        "performer": [
          {
            "display": "The Central European Lab"
          }
        ],
        "category": [
          {
            "coding": [
              {
                "system": "http://terminology.hl7.org/CodeSystem/observation-category",
                "code": "laboratory"
              }
            ]
          }
        ],
        "code": {
          "coding": [
            {
              "code": "20505-4",
              "system": "http://loinc.org",
              "display": "Bilirubin.total [Mass/volume] in Urine by Test strip"
            }
          ],
          "text": "Bilirubin.total [Mass/volume] in Urine by Test strip"
        },
        "valueQuantity": {
          "system": "http://unitsofmeasure.org",
          "value": 0.6,
          "unit": "mg/dL",
          "code": "mg/dL"
        },
        "referenceRange": [
          {
            "low": {
              "value": 0,
              "code": "mg/dL",
              "system": "http://unitsofmeasure.org"
            }
          },
          {
            "high": {
              "value": 1,
              "code": "mg/dL",
              "system": "http://unitsofmeasure.org"
            }
          }
        ],
        "text": {
          "status": "generated",
          "div": "<div xmlns=\"http://www.w3.org/1999/xhtml\"><table class=\"hl7__eu__lab__report\"><tr><th>Test</th><th>06-Oct-2015</th><th>Reference&#xA0;Range</th><th>Unit</th></tr><tr><td>Bilirubin.total [Mass/volume] in Urine by Test strip</td><td>0.6</td><td>0 - 1</td><td></td><td>mg/dL</td></tr></table></div>"
        },
        "status": "final",
        "subject": {
          "reference": "urn:uuid:3f28d973-591b-472d-8152-f5e90bfd2539",
          "display": "Meaghan Neary"
        },
        "effectiveDateTime": "2015-10-05T22:11:04Z",
        "specimen": {
          "reference": "urn:uuid:fed7794a-5994-4e79-bb87-6037f35adab9"
        }
      }
    },
    {
      "fullUrl": "urn:uuid:59328886-c5fa-419d-81a1-316bf27a78f7",
      "resource": {
        "resourceType": "Observation",
        "id": "59328886-c5fa-419d-81a1-316bf27a78f7",
        "meta": {
          "profile": [
            "http://hl7.eu/fhir/laboratory/StructureDefinition/Observation-resultslab-eu-lab"
          ]
        },
        "performer": [
          {
            "display": "The Central European Lab"
          }
        ],
        "category": [
          {
            "coding": [
              {
                "system": "http://terminology.hl7.org/CodeSystem/observation-category",
                "code": "laboratory"
              }
            ]
          }
        ],
        "code": {
          "coding": [
            {
              "code": "5770-3",
              "system": "http://loinc.org",
              "display": "Bilirubin.total [Presence] in Urine by Test strip"
            }
          ],
          "text": "Bilirubin.total [Presence] in Urine by Test strip"
        },
        "text": {
          "status": "generated",
          "div": "<div xmlns=\"http://www.w3.org/1999/xhtml\"><table class=\"hl7__eu__lab__report\"><tr><th>Test</th><th>06-Oct-2015</th><th>Reference&#xA0;Range</th><th>Unit</th></tr><tr><td>Bilirubin.total [Presence] in Urine by Test strip</td></tr></table></div>"
        },
        "status": "final",
        "subject": {
          "reference": "urn:uuid:3f28d973-591b-472d-8152-f5e90bfd2539",
          "display": "Meaghan Neary"
        },
        "effectiveDateTime": "2015-10-05T22:11:04Z",
        "specimen": {
          "reference": "urn:uuid:fed7794a-5994-4e79-bb87-6037f35adab9"
        }
      }
    },
    {
      "fullUrl": "urn:uuid:f45a72cd-12c2-47f9-821b-d444773134a8",
      "resource": {
        "resourceType": "Observation",
        "id": "f45a72cd-12c2-47f9-821b-d444773134a8",
        "meta": {
          "profile": [
            "http://hl7.eu/fhir/laboratory/StructureDefinition/Observation-resultslab-eu-lab"
          ]
        },
        "performer": [
          {
            "display": "The Central European Lab"
          }
        ],
        "category": [
          {
            "coding": [
              {
                "system": "http://terminology.hl7.org/CodeSystem/observation-category",
                "code": "laboratory"
              }
            ]
          }
        ],
        "code": {
          "coding": [
            {
              "code": "5797-6",
              "system": "http://loinc.org",
              "display": "Ketones [Mass/volume] in Urine by Test strip"
            }
          ],
          "text": "Ketones [Mass/volume] in Urine by Test strip"
        },
        "valueQuantity": {
          "system": "http://unitsofmeasure.org",
          "value": 1.5,
          "unit": "mg/dL",
          "code": "mg/dL"
        },
        "referenceRange": [
          {
            "low": {
              "value": 0,
              "code": "mg/dL",
              "system": "http://unitsofmeasure.org"
            }
          },
          {
            "high": {
              "value": 4,
              "code": "mg/dL",
              "system": "http://unitsofmeasure.org"
            }
          }
        ],
        "text": {
          "status": "generated",
          "div": "<div xmlns=\"http://www.w3.org/1999/xhtml\"><table class=\"hl7__eu__lab__report\"><tr><th>Test</th><th>06-Oct-2015</th><th>Reference&#xA0;Range</th><th>Unit</th></tr><tr><td>Ketones [Mass/volume] in Urine by Test strip</td><td>1.5</td><td>0 - 4</td><td></td><td>mg/dL</td></tr></table></div>"
        },
        "status": "final",
        "subject": {
          "reference": "urn:uuid:3f28d973-591b-472d-8152-f5e90bfd2539",
          "display": "Meaghan Neary"
        },
        "effectiveDateTime": "2015-10-05T22:11:04Z",
        "specimen": {
          "reference": "urn:uuid:fed7794a-5994-4e79-bb87-6037f35adab9"
        }
      }
    },
    {
      "fullUrl": "urn:uuid:9262727b-417c-46a2-a7d0-2049ec5256b2",
      "resource": {
        "resourceType": "Observation",
        "id": "9262727b-417c-46a2-a7d0-2049ec5256b2",
        "meta": {
          "profile": [
            "http://hl7.eu/fhir/laboratory/StructureDefinition/Observation-resultslab-eu-lab"
          ]
        },
        "performer": [
          {
            "display": "The Central European Lab"
          }
        ],
        "category": [
          {
            "coding": [
              {
                "system": "http://terminology.hl7.org/CodeSystem/observation-category",
                "code": "laboratory"
              }
            ]
          }
        ],
        "code": {
          "coding": [
            {
              "code": "2514-8",
              "system": "http://loinc.org",
              "display": "Ketones [Presence] in Urine by Test strip"
            }
          ],
          "text": "Ketones [Presence] in Urine by Test strip"
        },
        "text": {
          "status": "generated",
          "div": "<div xmlns=\"http://www.w3.org/1999/xhtml\"><table class=\"hl7__eu__lab__report\"><tr><th>Test</th><th>06-Oct-2015</th><th>Reference&#xA0;Range</th><th>Unit</th></tr><tr><td>Ketones [Presence] in Urine by Test strip</td></tr></table></div>"
        },
        "status": "final",
        "subject": {
          "reference": "urn:uuid:3f28d973-591b-472d-8152-f5e90bfd2539",
          "display": "Meaghan Neary"
        },
        "effectiveDateTime": "2015-10-05T22:11:04Z",
        "specimen": {
          "reference": "urn:uuid:fed7794a-5994-4e79-bb87-6037f35adab9"
        }
      }
    },
    {
      "fullUrl": "urn:uuid:4059b29a-038c-4dbd-90ae-f7f8fe7ceea0",
      "resource": {
        "resourceType": "Observation",
        "id": "4059b29a-038c-4dbd-90ae-f7f8fe7ceea0",
        "meta": {
          "profile": [
            "http://hl7.eu/fhir/laboratory/StructureDefinition/Observation-resultslab-eu-lab"
          ]
        },
        "performer": [
          {
            "display": "The Central European Lab"
          }
        ],
        "category": [
          {
            "coding": [
              {
                "system": "http://terminology.hl7.org/CodeSystem/observation-category",
                "code": "laboratory"
              }
            ]
          }
        ],
        "code": {
          "coding": [
            {
              "code": "5811-5",
              "system": "http://loinc.org",
              "display": "Specific gravity of Urine by Test strip"
            }
          ],
          "text": "Specific gravity of Urine by Test strip"
        },
        "valueQuantity": {
          "system": "http://unitsofmeasure.org",
          "value": 1,
          "unit": "{nominal}",
          "code": "{nominal}"
        },
        "referenceRange": [
          {
            "low": {
              "value": 1.005,
              "code": "g/mL",
              "system": "http://unitsofmeasure.org"
            }
          },
          {
            "high": {
              "value": 1.03,
              "code": "g/mL",
              "system": "http://unitsofmeasure.org"
            }
          }
        ],
        "interpretation": [
          {
            "coding": [
              {
                "code": "L",
                "system": "http://terminology.hl7.org/CodeSystem/v3-ObservationInterpretation",
                "display": "Low"
              }
            ]
          }
        ],
        "text": {
          "status": "generated",
          "div": "<div xmlns=\"http://www.w3.org/1999/xhtml\"><table class=\"hl7__eu__lab__report\"><tr><th>Test</th><th>06-Oct-2015</th><th>Reference&#xA0;Range</th><th>Unit</th></tr><tr><td>Specific gravity of Urine by Test strip</td><td>1.0</td><td>1.005 - 1.03</td><td>L</td><td>{nominal}</td></tr></table></div>"
        },
        "status": "final",
        "subject": {
          "reference": "urn:uuid:3f28d973-591b-472d-8152-f5e90bfd2539",
          "display": "Meaghan Neary"
        },
        "effectiveDateTime": "2015-10-05T22:11:04Z",
        "specimen": {
          "reference": "urn:uuid:fed7794a-5994-4e79-bb87-6037f35adab9"
        }
      }
    },
    {
      "fullUrl": "urn:uuid:21b39124-1774-4436-9202-b158e647543e",
      "resource": {
        "resourceType": "Observation",
        "id": "21b39124-1774-4436-9202-b158e647543e",
        "meta": {
          "profile": [
            "http://hl7.eu/fhir/laboratory/StructureDefinition/Observation-resultslab-eu-lab"
          ]
        },
        "performer": [
          {
            "display": "The Central European Lab"
          }
        ],
        "category": [
          {
            "coding": [
              {
                "system": "http://terminology.hl7.org/CodeSystem/observation-category",
                "code": "laboratory"
              }
            ]
          }
        ],
        "code": {
          "coding": [
            {
              "code": "5803-2",
              "system": "http://loinc.org",
              "display": "pH of Urine by Test strip"
            }
          ],
          "text": "pH of Urine by Test strip"
        },
        "valueQuantity": {
          "system": "http://unitsofmeasure.org",
          "value": 5.1,
          "unit": "pH",
          "code": "pH"
        },
        "referenceRange": [
          {
            "low": {
              "value": 4.6,
              "code": "pH",
              "system": "http://unitsofmeasure.org"
            }
          },
          {
            "high": {
              "value": 7,
              "code": "pH",
              "system": "http://unitsofmeasure.org"
            }
          }
        ],
        "text": {
          "status": "generated",
          "div": "<div xmlns=\"http://www.w3.org/1999/xhtml\"><table class=\"hl7__eu__lab__report\"><tr><th>Test</th><th>06-Oct-2015</th><th>Reference&#xA0;Range</th><th>Unit</th></tr><tr><td>pH of Urine by Test strip</td><td>5.1</td><td>4.6 - 7</td><td></td><td>pH</td></tr></table></div>"
        },
        "status": "final",
        "subject": {
          "reference": "urn:uuid:3f28d973-591b-472d-8152-f5e90bfd2539",
          "display": "Meaghan Neary"
        },
        "effectiveDateTime": "2015-10-05T22:11:04Z",
        "specimen": {
          "reference": "urn:uuid:fed7794a-5994-4e79-bb87-6037f35adab9"
        }
      }
    },
    {
      "fullUrl": "urn:uuid:582019e4-10dc-43c6-b811-e8df51f2f856",
      "resource": {
        "resourceType": "Observation",
        "id": "582019e4-10dc-43c6-b811-e8df51f2f856",
        "meta": {
          "profile": [
            "http://hl7.eu/fhir/laboratory/StructureDefinition/Observation-resultslab-eu-lab"
          ]
        },
        "performer": [
          {
            "display": "The Central European Lab"
          }
        ],
        "category": [
          {
            "coding": [
              {
                "system": "http://terminology.hl7.org/CodeSystem/observation-category",
                "code": "laboratory"
              }
            ]
          }
        ],
        "code": {
          "coding": [
            {
              "code": "5804-0",
              "system": "http://loinc.org",
              "display": "Protein [Mass/volume] in Urine by Test strip"
            }
          ],
          "text": "Protein [Mass/volume] in Urine by Test strip"
        },
        "valueQuantity": {
          "system": "http://unitsofmeasure.org",
          "value": 229.2,
          "unit": "mg/dL",
          "code": "mg/dL"
        },
        "referenceRange": [
          {
            "low": {
              "value": 0,
              "code": "mg/dL",
              "system": "http://unitsofmeasure.org"
            }
          },
          {
            "high": {
              "value": 14,
              "code": "mg/dL",
              "system": "http://unitsofmeasure.org"
            }
          }
        ],
        "interpretation": [
          {
            "coding": [
              {
                "code": "H",
                "system": "http://terminology.hl7.org/CodeSystem/v3-ObservationInterpretation",
                "display": "High"
              }
            ]
          }
        ],
        "text": {
          "status": "generated",
          "div": "<div xmlns=\"http://www.w3.org/1999/xhtml\"><table class=\"hl7__eu__lab__report\"><tr><th>Test</th><th>06-Oct-2015</th><th>Reference&#xA0;Range</th><th>Unit</th></tr><tr><td>Protein [Mass/volume] in Urine by Test strip</td><td>229.2</td><td>0 - 14</td><td>H</td><td>mg/dL</td></tr></table></div>"
        },
        "status": "final",
        "subject": {
          "reference": "urn:uuid:3f28d973-591b-472d-8152-f5e90bfd2539",
          "display": "Meaghan Neary"
        },
        "effectiveDateTime": "2015-10-05T22:11:04Z",
        "specimen": {
          "reference": "urn:uuid:fed7794a-5994-4e79-bb87-6037f35adab9"
        }
      }
    },
    {
      "fullUrl": "urn:uuid:f4c6c58b-7490-4dec-9ae3-6c3b0c5f1fae",
      "resource": {
        "resourceType": "Observation",
        "id": "f4c6c58b-7490-4dec-9ae3-6c3b0c5f1fae",
        "meta": {
          "profile": [
            "http://hl7.eu/fhir/laboratory/StructureDefinition/Observation-resultslab-eu-lab"
          ]
        },
        "performer": [
          {
            "display": "The Central European Lab"
          }
        ],
        "category": [
          {
            "coding": [
              {
                "system": "http://terminology.hl7.org/CodeSystem/observation-category",
                "code": "laboratory"
              }
            ]
          }
        ],
        "code": {
          "coding": [
            {
              "code": "20454-5",
              "system": "http://loinc.org",
              "display": "Protein [Presence] in Urine by Test strip"
            }
          ],
          "text": "Protein [Presence] in Urine by Test strip"
        },
        "text": {
          "status": "generated",
          "div": "<div xmlns=\"http://www.w3.org/1999/xhtml\"><table class=\"hl7__eu__lab__report\"><tr><th>Test</th><th>06-Oct-2015</th><th>Reference&#xA0;Range</th><th>Unit</th></tr><tr><td>Protein [Presence] in Urine by Test strip</td></tr></table></div>"
        },
        "status": "final",
        "subject": {
          "reference": "urn:uuid:3f28d973-591b-472d-8152-f5e90bfd2539",
          "display": "Meaghan Neary"
        },
        "effectiveDateTime": "2015-10-05T22:11:04Z",
        "specimen": {
          "reference": "urn:uuid:fed7794a-5994-4e79-bb87-6037f35adab9"
        }
      }
    },
    {
      "fullUrl": "urn:uuid:cd3eed4c-c8fa-446a-ad80-02468552e080",
      "resource": {
        "resourceType": "Observation",
        "id": "cd3eed4c-c8fa-446a-ad80-02468552e080",
        "meta": {
          "profile": [
            "http://hl7.eu/fhir/laboratory/StructureDefinition/Observation-resultslab-eu-lab"
          ]
        },
        "performer": [
          {
            "display": "The Central European Lab"
          }
        ],
        "category": [
          {
            "coding": [
              {
                "system": "http://terminology.hl7.org/CodeSystem/observation-category",
                "code": "laboratory"
              }
            ]
          }
        ],
        "code": {
          "coding": [
            {
              "code": "5802-4",
              "system": "http://loinc.org",
              "display": "Nitrite [Presence] in Urine by Test strip"
            }
          ],
          "text": "Nitrite [Presence] in Urine by Test strip"
        },
        "text": {
          "status": "generated",
          "div": "<div xmlns=\"http://www.w3.org/1999/xhtml\"><table class=\"hl7__eu__lab__report\"><tr><th>Test</th><th>06-Oct-2015</th><th>Reference&#xA0;Range</th><th>Unit</th></tr><tr><td>Nitrite [Presence] in Urine by Test strip</td></tr></table></div>"
        },
        "status": "final",
        "subject": {
          "reference": "urn:uuid:3f28d973-591b-472d-8152-f5e90bfd2539",
          "display": "Meaghan Neary"
        },
        "effectiveDateTime": "2015-10-05T22:11:04Z",
        "specimen": {
          "reference": "urn:uuid:fed7794a-5994-4e79-bb87-6037f35adab9"
        }
      }
    },
    {
      "fullUrl": "urn:uuid:00bd3c26-c887-4177-91dd-a0ec10355620",
      "resource": {
        "resourceType": "Observation",
        "id": "00bd3c26-c887-4177-91dd-a0ec10355620",
        "meta": {
          "profile": [
            "http://hl7.eu/fhir/laboratory/StructureDefinition/Observation-resultslab-eu-lab"
          ]
        },
        "performer": [
          {
            "display": "The Central European Lab"
          }
        ],
        "category": [
          {
            "coding": [
              {
                "system": "http://terminology.hl7.org/CodeSystem/observation-category",
                "code": "laboratory"
              }
            ]
          }
        ],
        "code": {
          "coding": [
            {
              "code": "5794-3",
              "system": "http://loinc.org",
              "display": "Hemoglobin [Presence] in Urine by Test strip"
            }
          ],
          "text": "Hemoglobin [Presence] in Urine by Test strip"
        },
        "text": {
          "status": "generated",
          "div": "<div xmlns=\"http://www.w3.org/1999/xhtml\"><table class=\"hl7__eu__lab__report\"><tr><th>Test</th><th>06-Oct-2015</th><th>Reference&#xA0;Range</th><th>Unit</th></tr><tr><td>Hemoglobin [Presence] in Urine by Test strip</td></tr></table></div>"
        },
        "status": "final",
        "subject": {
          "reference": "urn:uuid:3f28d973-591b-472d-8152-f5e90bfd2539",
          "display": "Meaghan Neary"
        },
        "effectiveDateTime": "2015-10-05T22:11:04Z",
        "specimen": {
          "reference": "urn:uuid:fed7794a-5994-4e79-bb87-6037f35adab9"
        }
      }
    },
    {
      "fullUrl": "urn:uuid:41d7b9b3-ba87-4733-96fb-d65cf09695ce",
      "resource": {
        "resourceType": "Observation",
        "id": "41d7b9b3-ba87-4733-96fb-d65cf09695ce",
        "meta": {
          "profile": [
            "http://hl7.eu/fhir/laboratory/StructureDefinition/Observation-resultslab-eu-lab"
          ]
        },
        "performer": [
          {
            "display": "The Central European Lab"
          }
        ],
        "category": [
          {
            "coding": [
              {
                "system": "http://terminology.hl7.org/CodeSystem/observation-category",
                "code": "laboratory"
              }
            ]
          }
        ],
        "code": {
          "coding": [
            {
              "code": "5799-2",
              "system": "http://loinc.org",
              "display": "Leukocyte esterase [Presence] in Urine by Test strip"
            }
          ],
          "text": "Leukocyte esterase [Presence] in Urine by Test strip"
        },
        "text": {
          "status": "generated",
          "div": "<div xmlns=\"http://www.w3.org/1999/xhtml\"><table class=\"hl7__eu__lab__report\"><tr><th>Test</th><th>06-Oct-2015</th><th>Reference&#xA0;Range</th><th>Unit</th></tr><tr><td>Leukocyte esterase [Presence] in Urine by Test strip</td></tr></table></div>"
        },
        "status": "final",
        "subject": {
          "reference": "urn:uuid:3f28d973-591b-472d-8152-f5e90bfd2539",
          "display": "Meaghan Neary"
        },
        "effectiveDateTime": "2015-10-05T22:11:04Z",
        "specimen": {
          "reference": "urn:uuid:fed7794a-5994-4e79-bb87-6037f35adab9"
        }
      }
    },
    {
      "fullUrl": "urn:uuid:8fc411b0-d1be-4399-8f70-8ad96ff4a871",
      "resource": {
        "resourceType": "Observation",
        "id": "8fc411b0-d1be-4399-8f70-8ad96ff4a871",
        "meta": {
          "profile": [
            "http://hl7.eu/fhir/laboratory/StructureDefinition/Observation-resultslab-eu-lab"
          ]
        },
        "performer": [
          {
            "display": "The Central European Lab"
          }
        ],
        "category": [
          {
            "coding": [
              {
                "system": "http://terminology.hl7.org/CodeSystem/observation-category",
                "code": "laboratory"
              }
            ]
          }
        ],
        "code": {
          "coding": [
            {
              "code": "4548-4",
              "system": "http://loinc.org",
              "display": "Hemoglobin A1c/Hemoglobin.total in Blood"
            }
          ],
          "text": "Hemoglobin A1c/Hemoglobin.total in Blood"
        },
        "valueQuantity": {
          "system": "http://unitsofmeasure.org",
          "value": 3.3,
          "unit": "%",
          "code": "%"
        },
        "referenceRange": [
          {
            "low": {
              "value": 4,
              "code": "%",
              "system": "http://unitsofmeasure.org"
            }
          },
          {
            "high": {
              "value": 6.4,
              "code": "%",
              "system": "http://unitsofmeasure.org"
            }
          }
        ],
        "interpretation": [
          {
            "coding": [
              {
                "code": "L",
                "system": "http://terminology.hl7.org/CodeSystem/v3-ObservationInterpretation",
                "display": "Low"
              }
            ]
          }
        ],
        "text": {
          "status": "generated",
          "div": "<div xmlns=\"http://www.w3.org/1999/xhtml\"><table class=\"hl7__eu__lab__report\"><tr><th>Test</th><th>06-Oct-2015</th><th>Reference&#xA0;Range</th><th>Unit</th></tr><tr><td>Hemoglobin A1c/Hemoglobin.total in Blood</td><td>3.3</td><td>4 - 6.4</td><td>L</td><td>%</td></tr></table></div>"
        },
        "status": "final",
        "subject": {
          "reference": "urn:uuid:3f28d973-591b-472d-8152-f5e90bfd2539",
          "display": "Meaghan Neary"
        },
        "effectiveDateTime": "2015-10-05T22:11:04Z",
        "specimen": {
          "reference": "urn:uuid:6fc9ec30-1f40-4f81-95e1-a04068e0bb96"
        }
      }
    },
    {
      "fullUrl": "urn:uuid:f3d2d91b-03ad-491f-85d3-bf29c029dc42",
      "resource": {
        "resourceType": "Device",
        "id": "f3d2d91b-03ad-491f-85d3-bf29c029dc42",
        "deviceName": [
          {
            "name": "SYNDERAI Synthetic Generator",
            "type": "manufacturer-name"
          }
        ],
        "version": [
          {
            "value": "5.0"
          }
        ],
        "text": {
          "status": "generated",
          "div": "<div xmlns=\"http://www.w3.org/1999/xhtml\">SYNDERAI Synthetic Generator v5.0</div>"
        },
        "status": "active\"",
        "distinctIdentifier": "synderai-generator-50",
        "manufacturer": "SYNDERAI Project"
      }
    },
    {
      "fullUrl": "urn:uuid:6f01d59f-be8f-4652-987d-24d1e52a087d",
      "resource": {
        "resourceType": "Provenance",
        "id": "6f01d59f-be8f-4652-987d-24d1e52a087d",
        "target": [
          {
            "reference": "Patient/3f28d973-591b-472d-8152-f5e90bfd2539"
          },
          {
            "reference": "Bundle/15e809e6-d990-43c7-80e5-7f8d8eb7139f"
          },
          {
            "reference": "Composition/21bda6e1-354e-48d3-bc51-fd7c473562f2"
          },
          {
            "reference": "PractitionerRole/b57ac66b-e871-4df0-a0c7-81f607b4ef8f"
          },
          {
            "reference": "Practitioner/ef7fabd6-1d91-4d1c-90cc-77e4c7aa069f"
          },
          {
            "reference": "PractitionerRole/5fc42236-b93f-4c89-9620-53628c40fb9d"
          },
          {
            "reference": "Organization/1d7d5712-4c43-4379-b45d-17a705e641d3"
          }
        ],
        "activity": {
          "text": "Synthetic Example Data Generation"
        },
        "policy": [
          "https://synderai.net/synderai-synthetic-data-policy"
        ],
        "agent": [
          {
            "type": {
              "text": "author"
            },
            "who": {
              "reference": "Device/f3d2d91b-03ad-491f-85d3-bf29c029dc42"
            }
          }
        ],
        "reason": [
          {
            "text": "Interoperability Testing and Training (non-clinical use)"
          }
        ],
        "text": {
          "status": "generated",
          "div": "<div xmlns=\"http://www.w3.org/1999/xhtml\">Provenance for SYNDERAI Synthetic Example Data Resource</div>"
        },
        "recorded": "2015-10-06T00:11:04Z"
      }
    },
    {
      "fullUrl": "urn:uuid:b57ac66b-e871-4df0-a0c7-81f607b4ef8f",
      "resource": {
        "resourceType": "PractitionerRole",
        "id": "b57ac66b-e871-4df0-a0c7-81f607b4ef8f",
        "meta": {
          "profile": [
            "http://hl7.eu/fhir/base/StructureDefinition/practitionerRole-eu"
          ]
        },
        "text": {
          "status": "generated",
          "div": "<div xmlns=\"http://www.w3.org/1999/xhtml\">Laboratory Role Id: b57ac66b-e871-4df0-a0c7-81f607b4ef8f</div>"
        },
        "practitioner": {
          "reference": "urn:uuid:ef7fabd6-1d91-4d1c-90cc-77e4c7aa069f"
        }
      }
    },
    {
      "fullUrl": "urn:uuid:ef7fabd6-1d91-4d1c-90cc-77e4c7aa069f",
      "resource": {
        "resourceType": "Practitioner",
        "id": "ef7fabd6-1d91-4d1c-90cc-77e4c7aa069f",
        "meta": {
          "profile": [
            "http://hl7.eu/fhir/base/StructureDefinition/practitioner-eu"
          ]
        },
        "identifier": [
          {
            "assigner": {
              "display": "HL7 Europe"
            },
            "system": "urn:oid:2.16.840.1.113883.2.51.999",
            "value": "be3a4a31-c71b-43fc-b06b-fe4536252b63"
          }
        ],
        "name": [
          {
            "prefix": [
              "dr"
            ],
            "given": [
              "Ex"
            ],
            "family": "Ample"
          }
        ],
        "address": [
          {
            "line": [
              "Laboratoire Central Européenne",
              "Boulevard du Jardin Botanique 32"
            ],
            "postalCode": "1000",
            "city": "Brussels",
            "country": "Belgium"
          }
        ],
        "text": {
          "status": "generated",
          "div": "<div xmlns=\"http://www.w3.org/1999/xhtml\">Laboratory: Laboratoire Central Européenne, 1000 Brussels, Belgium</div>"
        }
      }
    }
  ],
  "type": "document",
  "timestamp": "2015-10-06T00:11:04Z"
}
