<Bundle xmlns="http://hl7.org/fhir">
   <id value="2ef9a925-3ba9-4e12-b2c7-3066b021ac9a"/>
   <meta>
      <profile value="http://hl7.eu/fhir/laboratory/StructureDefinition/Bundle-eu-lab"/>
   </meta>
   <identifier>
      <system value="urn:oid:2.16.840.1.113883.2.51.999"/>
      <value value="6ea816fb-d289-4986-8061-16598c4ee63c"/>
      <assigner>
         <display value="HL7 Europe"/>
      </assigner>
   </identifier>
   <type value="document"/>
   <timestamp value="2025-01-27T16:53:59Z"/>
   <entry>
      <fullUrl value="urn:uuid:26af9f05-1481-4fa6-8b57-f2b5628da417"/>
      <resource>
         <Composition>
            <id value="26af9f05-1481-4fa6-8b57-f2b5628da417"/>
            <meta>
               <profile value="http://hl7.eu/fhir/laboratory/StructureDefinition/Composition-eu-lab"/>
            </meta>
            <identifier>
               <system value="urn:oid:2.16.840.1.113883.2.51.999"/>
               <value value="4640ca6b-7690-4056-bf42-206efaa392d2"/>
               <assigner>
                  <display value="HL7 Europe"/>
               </assigner>
            </identifier>
            <status value="final"/>
            <type>
               <coding>
                  <system value="http://loinc.org"/>
                  <code value="11502-2"/>
                  <display value="Laboratory report"/>
               </coding>
               <text value="Laboratory Report"/>
            </type>
            <category>
               <coding>
                  <system value="http://loinc.org"/>
                  <code value="26436-6"/>
                  <display value="Laboratory studies (set)"/>
               </coding>
            </category>
            <subject>
               <reference value="urn:uuid:2bbe1e46-71da-4e10-a37f-2aa2cc2db25d"/>
               <display value="Timothy Smith"/>
            </subject>
            <date value="2025-01-27T16:53:59Z"/>
            <author>
               <reference value="urn:uuid:f2e76af7-8008-4fe2-91b2-bf3b8fc7f4bb"/>
            </author>
            <title value="Laboratory Report"/>
            <confidentiality value="N"/>
            <section>
               <title value="Laboratory Report"/>
               <code>
                  <coding>
                     <system value="http://loinc.org"/>
                     <code value="26436-6"/>
                     <display value="Laboratory studies (set)"/>
                  </coding>
                  <text value="Laboratory studies"/>
               </code>
               <section>
                  <title value="Chemistry"/>
                  <code>
                     <coding>
                        <system value="http://loinc.org"/>
                        <code value="$18719-5"/>
                        <display value="Chemistry studies (set)"/>
                     </coding>
                     <text value="Chemistry"/>
                  </code>
                  <text>
                     <status value="generated"/>
                     <div xmlns="http://www.w3.org/1999/xhtml">
                        <h3>Chemistry</h3>
                        <table class="hl7__eu__lab__report">
                           <thead>
                              <tr>
                                 <th>Test</th>
                                 <th>27-JAN-2025</th>
                                 <th>Reference Range</th>
                                 <th>Unit</th>
                              </tr>
                           </thead>
                           <tbody>
                              <tr>
                                 <td>Oxygen saturation in Arterial blood</td>
                                 <td>
                                    <strong>76.0 L</strong>
                                 </td>
                                 <td>95 - 100</td>
                                 <td>%</td>
                              </tr>
                           </tbody>
                        </table>
                     </div>
                  </text>
                  <entry>
                     <reference value="urn:uuid:0990fc6e-7bd0-4507-aeeb-92786c1d5dd3"/>
                  </entry>
               </section>
            </section>
            <section>
               <title value="Annotation comment"/>
               <code>
                  <coding>
                     <system value="http://loinc.org"/>
                     <code value="48767-8"/>
                     <display value="Annotation comment"/>
                  </coding>
               </code>
               <text>
                  <status value="generated"/>
                  <div xmlns="http://www.w3.org/1999/xhtml">
                     <h3>Annotation</h3>
                     <table class="hl7__eu__lab__report">
                        <tr>
                           <th>Conclusion and Recommendations based on this report and previous findings known to us</th>
                        </tr>
                        <tr>
                           <td>Severely reduced arterial oxygen saturation (76%) indicates significant hypoxemia, which is critical and requires immediate clinical attention. This finding suggests impaired respiratory function or gas exchange and may be life-threatening, especially in an elderly patient. Prompt evaluation and intervention are strongly recommended.</td>
                        </tr>
                     </table>
                  </div>
               </text>
            </section>
         </Composition>
      </resource>
   </entry>
   <entry>
      <fullUrl value="urn:uuid:c38b762c-ff1b-4f9d-a06d-aa8f0d33571c"/>
      <resource>
         <DiagnosticReport>
            <id value="c38b762c-ff1b-4f9d-a06d-aa8f0d33571c"/>
            <meta>
               <profile value="http://hl7.eu/fhir/laboratory/StructureDefinition/DiagnosticReport-eu-lab"/>
            </meta>
            <extension url="http://hl7.org/fhir/5.0/StructureDefinition/extension-DiagnosticReport.composition">
               <valueReference>
                  <reference value="urn:uuid:4640ca6b-7690-4056-bf42-206efaa392d2"/>
               </valueReference>
            </extension>
            <identifier>
               <system value="urn:oid:2.16.840.1.113883.2.51.999"/>
               <value value="989fd0c9-e527-4b25-b066-e166d85f56a4"/>
               <assigner>
                  <display value="HL7 Europe"/>
               </assigner>
            </identifier>
            <status value="registered"/>
            <category>
               <coding>
                  <system value="http://loinc.org"/>
                  <code value="26436-6"/>
                  <display value="Laboratory studies (set)"/>
               </coding>
            </category>
            <code>
               <coding>
                  <system value="http://loinc.org"/>
                  <code value="11502-2"/>
                  <display value="Laboratory report"/>
               </coding>
            </code>
            <subject>
               <reference value="urn:uuid:2bbe1e46-71da-4e10-a37f-2aa2cc2db25d"/>
               <display value="Timothy Smith"/>
            </subject>
            <specimen>
               <reference value="urn:uuid:6be9ce91-028f-4c41-b8eb-91bb158f3bcd"/>
            </specimen>
            <result>
               <reference value="urn:uuid:0990fc6e-7bd0-4507-aeeb-92786c1d5dd3"/>
            </result>
         </DiagnosticReport>
      </resource>
   </entry>
   <entry>
      <fullUrl value="urn:uuid:2bbe1e46-71da-4e10-a37f-2aa2cc2db25d"/>
      <resource>
         <Patient>
            <id value="2bbe1e46-71da-4e10-a37f-2aa2cc2db25d"/>
            <meta>
               <profile value="http://hl7.eu/fhir/base/StructureDefinition/patient-eu-core"/>
               <security>
                  <system value="http://terminology.hl7.org/CodeSystem/v3-ActReason"/>
                  <code value="HTEST"/>
               </security>
               <security>
                  <system value="http://terminology.hl7.org/CodeSystem/v3-ActReason"/>
                  <code value="TRAIN"/>
               </security>
               <tag>
                  <system value="https://synderai.net/fhir/CodeSystem/tags"/>
                  <code value="synthetic"/>
                  <display value="SYNDERAI Synthetic data"/>
               </tag>
            </meta>
            <text>
               <status value="generated"/>
               <div xmlns="http://www.w3.org/1999/xhtml">
                  <table class="hl7__ips">
                     <tr>
                        <td>Timothy Smith</td>
                        <td>male</td>
                        <td>10-Sep-1941</td>
                     </tr>
                  </table>
               </div>
            </text>
            <extension url="http://hl7.org/fhir/StructureDefinition/patient-nationality">
               <valueCodeableConcept>
                  <coding>
                     <system value="http://hl7.org/fhir/ValueSet/country"/>
                     <code value="GB"/>
                  </coding>
               </valueCodeableConcept>
            </extension>
            <identifier>
               <type>
                  <coding>
                     <system value="http://terminology.hl7.org/CodeSystem/v2-0203"/>
                     <code value="PT"/>
                  </coding>
               </type>
               <system value="http://ec.europa.eu/identifier/eci"/>
               <value value="8029-862360-6"/>
            </identifier>
            <identifier>
               <type>
                  <coding>
                     <system value="http://terminology.hl7.org/CodeSystem/v2-0203"/>
                     <code value="MR"/>
                  </coding>
               </type>
               <system value="http://local.setting.eu/identifier"/>
               <value value="1fe71aa8-fb8e-4622-d398-65f6235c4fef"/>
            </identifier>
            <name>
               <family value="Smith"/>
            </name>
            <name>
               <given value="Timothy"/>
            </name>
            <name>
               <text value="Timothy Smith"/>
            </name>
            <telecom>
               <system value="phone"/>
               <value value="+44(0)28 9018592"/>
            </telecom>
            <gender value="male"/>
            <birthDate value="1941-09-10"/>
            <address>
               <use value="home"/>
               <type value="physical"/>
               <line value="9 Jeffrey orchard"/>
               <city value="North Joshuaville"/>
               <postalCode value="NW1"/>
               <country value="United Kingdom"/>
            </address>
         </Patient>
      </resource>
   </entry>
   <entry>
      <fullUrl value="urn:uuid:830722df-23bc-4dec-881e-f9e97c2809e9"/>
      <resource>
         <ServiceRequest>
            <id value="830722df-23bc-4dec-881e-f9e97c2809e9"/>
            <meta>
               <profile value="http://hl7.eu/fhir/laboratory/StructureDefinition/ServiceRequest-eu-lab"/>
            </meta>
            <identifier>
               <system value="http://example.org"/>
               <value value="2f202e77-aadb-4d2a-b321-53e5625ba1b0"/>
            </identifier>
            <status value="active"/>
            <intent value="order"/>
            <code>
               <coding>
                  <system value="http://snomed.info/sct"/>
                  <code value="108252007"/>
                  <display value="Laboratory procedure"/>
               </coding>
            </code>
            <subject>
               <reference value="urn:uuid:2bbe1e46-71da-4e10-a37f-2aa2cc2db25d"/>
               <display value="Timothy Smith"/>
            </subject>
            <requester>
               <reference value="urn:uuid:abba6144-3c06-47fc-80eb-9ffce20aaef6"/>
            </requester>
            <reasonCode>
               <coding>
                  <system value="http://snomed.info/sct"/>
                  <code value="88805009"/>
                  <display value="Chronic congestive heart failure"/>
               </coding>
            </reasonCode>
            <reasonCode>
               <coding>
                  <system value="http://snomed.info/sct"/>
                  <code value="60573004"/>
                  <display value="Aortic valve stenosis"/>
               </coding>
            </reasonCode>
            <reasonCode>
               <coding>
                  <system value="http://snomed.info/sct"/>
                  <code value="414545008"/>
                  <display value="Ischemic heart disease"/>
               </coding>
            </reasonCode>
            <reasonCode>
               <coding>
                  <system value="http://snomed.info/sct"/>
                  <code value="64859006"/>
                  <display value="Osteoporosis"/>
               </coding>
            </reasonCode>
            <reasonCode>
               <coding>
                  <system value="http://snomed.info/sct"/>
                  <code value="6525002"/>
                  <display value="Dependent drug abuse"/>
               </coding>
            </reasonCode>
            <reasonCode>
               <coding>
                  <system value="http://snomed.info/sct"/>
                  <code value="55822004"/>
                  <display value="Hyperlipidemia"/>
               </coding>
            </reasonCode>
            <reasonCode>
               <coding>
                  <system value="http://snomed.info/sct"/>
                  <code value="78275009"/>
                  <display value="Obstructive sleep apnea syndrome"/>
               </coding>
            </reasonCode>
            <reasonCode>
               <coding>
                  <system value="http://snomed.info/sct"/>
                  <code value="39898005"/>
                  <display value="Sleep disorder"/>
               </coding>
            </reasonCode>
            <reasonCode>
               <coding>
                  <system value="http://snomed.info/sct"/>
                  <code value="401314000"/>
                  <display value="Acute non-ST segment elevation myocardial infarction"/>
               </coding>
            </reasonCode>
            <reasonCode>
               <coding>
                  <system value="http://snomed.info/sct"/>
                  <code value="124171000119105"/>
                  <display value="Chronic intractable migraine without aura"/>
               </coding>
            </reasonCode>
            <reasonCode>
               <coding>
                  <system value="http://snomed.info/sct"/>
                  <code value="196416002"/>
                  <display value="Impacted molars"/>
               </coding>
            </reasonCode>
            <reasonCode>
               <coding>
                  <system value="http://snomed.info/sct"/>
                  <code value="59621000"/>
                  <display value="Essential hypertension"/>
               </coding>
            </reasonCode>
            <reasonCode>
               <coding>
                  <system value="http://snomed.info/sct"/>
                  <code value="80394007"/>
                  <display value="Hyperglycemia"/>
               </coding>
            </reasonCode>
            <reasonCode>
               <coding>
                  <system value="http://snomed.info/sct"/>
                  <code value="237602007"/>
                  <display value="Metabolic syndrome X"/>
               </coding>
            </reasonCode>
            <reasonCode>
               <coding>
                  <system value="http://snomed.info/sct"/>
                  <code value="302870006"/>
                  <display value="Hypertriglyceridemia"/>
               </coding>
            </reasonCode>
            <reasonCode>
               <coding>
                  <system value="http://snomed.info/sct"/>
                  <code value="44054006"/>
                  <display value="Type 2 diabetes mellitus"/>
               </coding>
            </reasonCode>
            <reasonCode>
               <coding>
                  <system value="http://snomed.info/sct"/>
                  <code value="271737000"/>
                  <display value="Anemia"/>
               </coding>
            </reasonCode>
            <reasonCode>
               <coding>
                  <system value="http://snomed.info/sct"/>
                  <code value="15777000"/>
                  <display value="Prediabetes"/>
               </coding>
            </reasonCode>
            <specimen>
               <reference value="urn:uuid:6be9ce91-028f-4c41-b8eb-91bb158f3bcd"/>
            </specimen>
         </ServiceRequest>
      </resource>
   </entry>
   <entry>
      <fullUrl value="urn:uuid:abba6144-3c06-47fc-80eb-9ffce20aaef6"/>
      <resource>
         <PractitionerRole>
            <id value="abba6144-3c06-47fc-80eb-9ffce20aaef6"/>
            <meta>
               <profile value="http://hl7.eu/fhir/base/StructureDefinition/practitionerRole-eu"/>
            </meta>
            <text>
               <status value="generated"/>
               <div xmlns="http://www.w3.org/1999/xhtml">Provider Role Id: abba6144-3c06-47fc-80eb-9ffce20aaef6</div>
            </text>
            <organization>
               <reference value="urn:uuid:7701ca07-9520-4219-a57e-3211c9e59acf"/>
            </organization>
         </PractitionerRole>
      </resource>
   </entry>
   <entry>
      <fullUrl value="urn:uuid:7701ca07-9520-4219-a57e-3211c9e59acf"/>
      <resource>
         <Organization>
            <id value="7701ca07-9520-4219-a57e-3211c9e59acf"/>
            <meta>
               <profile value="http://hl7.eu/fhir/base/StructureDefinition/organization-eu"/>
            </meta>
            <text>
               <status value="generated"/>
               <div xmlns="http://www.w3.org/1999/xhtml">Provider Organization: Evelina Children's Hospital</div>
            </text>
            <identifier>
               <system value="urn:oid:2.16.840.1.113883.2.51.999"/>
               <value value="f221eab6-3113-4453-a3bd-a1b6361b072d"/>
               <assigner>
                  <display value="HL7 Europe"/>
               </assigner>
            </identifier>
            <name value="Evelina Children&amp;#039;s Hospital"/>
            <address>
               <city value="London"/>
               <postalCode value="SE1 7"/>
               <country value="United Kingdom"/>
            </address>
         </Organization>
      </resource>
   </entry>
   <entry>
      <fullUrl value="urn:uuid:6be9ce91-028f-4c41-b8eb-91bb158f3bcd"/>
      <resource>
         <Specimen>
            <id value="6be9ce91-028f-4c41-b8eb-91bb158f3bcd"/>
            <meta>
               <profile value="http://hl7.eu/fhir/laboratory/StructureDefinition/Specimen-eu-lab"/>
            </meta>
            <text>
               <status value="generated"/>
               <div xmlns="http://www.w3.org/1999/xhtml">
                  <table class="hl7__eu__lab__report">
                     <tr>
                        <th>Specimen</th>
                        <th>Collection Date</th>
                     </tr>
                     <tr>
                        <td>Arterial blood specimen</td>
                        <td>
                           <span class="nb">27-Jan-2025</span>
                        </td>
                     </tr>
                  </table>
               </div>
            </text>
            <type>
               <coding>
                  <system value="http://snomed.info/sct"/>
                  <code value="122552005"/>
                  <display value="Arterial blood specimen"/>
               </coding>
            </type>
            <collection>
               <collectedDateTime value="2025-01-27"/>
            </collection>
         </Specimen>
      </resource>
   </entry>
   <entry>
      <fullUrl value="urn:uuid:0990fc6e-7bd0-4507-aeeb-92786c1d5dd3"/>
      <resource>
         <Observation>
            <id value="0990fc6e-7bd0-4507-aeeb-92786c1d5dd3"/>
            <meta>
               <profile value="http://hl7.eu/fhir/laboratory/StructureDefinition/Observation-resultslab-eu-lab"/>
            </meta>
            <text>
               <status value="generated"/>
               <div xmlns="http://www.w3.org/1999/xhtml">
                  <table class="hl7__eu__lab__report">
                     <tr>
                        <th>Test</th>
                        <th>27-Jan-2025</th>
                        <th>Reference Range</th>
                        <th>Unit</th>
                     </tr>
                     <tr>
                        <td>Oxygen saturation in Arterial blood</td>
                        <td>76.0</td>
                        <td>95 - 100</td>
                        <td>L</td>
                        <td>%</td>
                     </tr>
                  </table>
               </div>
            </text>
            <status value="final"/>
            <category>
               <coding>
                  <system value="http://terminology.hl7.org/CodeSystem/observation-category"/>
                  <code value="laboratory"/>
               </coding>
            </category>
            <code>
               <coding>
                  <system value="http://loinc.org"/>
                  <code value="2708-6"/>
                  <display value="Oxygen saturation in Arterial blood"/>
               </coding>
               <text value="Oxygen saturation in Arterial blood"/>
            </code>
            <subject>
               <reference value="urn:uuid:2bbe1e46-71da-4e10-a37f-2aa2cc2db25d"/>
               <display value="Timothy Smith"/>
            </subject>
            <effectiveDateTime value="2025-01-27T15:53:59Z"/>
            <performer>
               <display value="The Central European Lab"/>
            </performer>
            <valueQuantity>
               <value value="76"/>
               <unit value="%"/>
               <system value="http://unitsofmeasure.org"/>
               <code value="%"/>
            </valueQuantity>
            <interpretation>
               <coding>
                  <system value="http://terminology.hl7.org/CodeSystem/v3-ObservationInterpretation"/>
                  <code value="L"/>
                  <display value="Low"/>
               </coding>
            </interpretation>
            <specimen>
               <reference value="urn:uuid:6be9ce91-028f-4c41-b8eb-91bb158f3bcd"/>
            </specimen>
            <referenceRange>
               <low>
                  <value value="95"/>
                  <system value="http://unitsofmeasure.org"/>
                  <code value="%"/>
               </low>
            </referenceRange>
            <referenceRange>
               <high>
                  <value value="100"/>
                  <system value="http://unitsofmeasure.org"/>
                  <code value="%"/>
               </high>
            </referenceRange>
         </Observation>
      </resource>
   </entry>
   <entry>
      <fullUrl value="urn:uuid:a35f1158-2197-4ad1-8532-dc7fb2e43449"/>
      <resource>
         <Device>
            <id value="a35f1158-2197-4ad1-8532-dc7fb2e43449"/>
            <text>
               <status value="generated"/>
               <div xmlns="http://www.w3.org/1999/xhtml">SYNDERAI Synthetic Generator v5.0</div>
            </text>
            <status value="active&#34;"/>
            <distinctIdentifier value="synderai-generator-50"/>
            <manufacturer value="SYNDERAI Project"/>
            <deviceName>
               <name value="SYNDERAI Synthetic Generator"/>
               <type value="manufacturer-name"/>
            </deviceName>
            <version>
               <value value="5.0"/>
            </version>
         </Device>
      </resource>
   </entry>
   <entry>
      <fullUrl value="urn:uuid:f0f4d619-d76a-4597-b6cd-faa3515629fa"/>
      <resource>
         <Provenance>
            <id value="f0f4d619-d76a-4597-b6cd-faa3515629fa"/>
            <text>
               <status value="generated"/>
               <div xmlns="http://www.w3.org/1999/xhtml">Provenance for SYNDERAI Synthetic Example Data Resource</div>
            </text>
            <target>
               <reference value="Patient/2bbe1e46-71da-4e10-a37f-2aa2cc2db25d"/>
            </target>
            <target>
               <reference value="Bundle/2ef9a925-3ba9-4e12-b2c7-3066b021ac9a"/>
            </target>
            <target>
               <reference value="Composition/26af9f05-1481-4fa6-8b57-f2b5628da417"/>
            </target>
            <target>
               <reference value="PractitionerRole/f2e76af7-8008-4fe2-91b2-bf3b8fc7f4bb"/>
            </target>
            <target>
               <reference value="Practitioner/4e959417-b133-49c0-8a4a-757f6f740ab2"/>
            </target>
            <target>
               <reference value="PractitionerRole/abba6144-3c06-47fc-80eb-9ffce20aaef6"/>
            </target>
            <target>
               <reference value="Organization/7701ca07-9520-4219-a57e-3211c9e59acf"/>
            </target>
            <recorded value="2025-01-27T16:53:59Z"/>
            <policy value="https://synderai.net/synderai-synthetic-data-policy"/>
            <reason>
               <text value="Interoperability Testing and Training (non-clinical use)"/>
            </reason>
            <activity>
               <text value="Synthetic Example Data Generation"/>
            </activity>
            <agent>
               <type>
                  <text value="author"/>
               </type>
               <who>
                  <reference value="Device/a35f1158-2197-4ad1-8532-dc7fb2e43449"/>
               </who>
            </agent>
         </Provenance>
      </resource>
   </entry>
   <entry>
      <fullUrl value="urn:uuid:f2e76af7-8008-4fe2-91b2-bf3b8fc7f4bb"/>
      <resource>
         <PractitionerRole>
            <id value="f2e76af7-8008-4fe2-91b2-bf3b8fc7f4bb"/>
            <meta>
               <profile value="http://hl7.eu/fhir/base/StructureDefinition/practitionerRole-eu"/>
            </meta>
            <text>
               <status value="generated"/>
               <div xmlns="http://www.w3.org/1999/xhtml">Laboratory Role Id: f2e76af7-8008-4fe2-91b2-bf3b8fc7f4bb</div>
            </text>
            <practitioner>
               <reference value="urn:uuid:4e959417-b133-49c0-8a4a-757f6f740ab2"/>
            </practitioner>
         </PractitionerRole>
      </resource>
   </entry>
   <entry>
      <fullUrl value="urn:uuid:4e959417-b133-49c0-8a4a-757f6f740ab2"/>
      <resource>
         <Practitioner>
            <id value="4e959417-b133-49c0-8a4a-757f6f740ab2"/>
            <meta>
               <profile value="http://hl7.eu/fhir/base/StructureDefinition/practitioner-eu"/>
            </meta>
            <text>
               <status value="generated"/>
               <div xmlns="http://www.w3.org/1999/xhtml">Laboratory: Laboratoire Central Européenne, 1000 Brussels, Belgium</div>
            </text>
            <identifier>
               <system value="urn:oid:2.16.840.1.113883.2.51.999"/>
               <value value="0076ad82-a596-40c1-8241-892dda3f185f"/>
               <assigner>
                  <display value="HL7 Europe"/>
               </assigner>
            </identifier>
            <name>
               <family value="Ample"/>
               <given value="Ex"/>
               <prefix value="dr"/>
            </name>
            <address>
               <line value="Laboratoire Central Européenne"/>
               <line value="Boulevard du Jardin Botanique 32"/>
               <city value="Brussels"/>
               <postalCode value="1000"/>
               <country value="Belgium"/>
            </address>
         </Practitioner>
      </resource>
   </entry>
</Bundle>