{
  "resourceType": "Bundle",
  "id": "f1b17bd5-0bc8-4f40-8ed8-b389a5a34247",
  "meta": {
    "profile": [
      "http://hl7.eu/fhir/laboratory/StructureDefinition/Bundle-eu-lab"
    ]
  },
  "identifier": {
    "assigner": {
      "display": "HL7 Europe"
    },
    "system": "urn:oid:2.16.840.1.113883.2.51.999",
    "value": "004a9877-af89-4ee8-9fd4-95f8c686b9a9"
  },
  "entry": [
    {
      "fullUrl": "urn:uuid:95f55894-a7ac-4bdf-b184-96e746533cd4",
      "resource": {
        "resourceType": "Composition",
        "id": "95f55894-a7ac-4bdf-b184-96e746533cd4",
        "meta": {
          "profile": [
            "http://hl7.eu/fhir/laboratory/StructureDefinition/Composition-eu-lab"
          ]
        },
        "identifier": {
          "assigner": {
            "display": "HL7 Europe"
          },
          "system": "urn:oid:2.16.840.1.113883.2.51.999",
          "value": "a0dba12e-c226-4ab0-8720-f74d69a23e49"
        },
        "author": [
          {
            "reference": "urn:uuid:55c3f934-639d-48a5-8d5b-a2ab01757a08"
          }
        ],
        "category": [
          {
            "coding": [
              {
                "code": "26436-6",
                "system": "http://loinc.org",
                "display": "Laboratory studies (set)"
              }
            ]
          }
        ],
        "type": {
          "coding": [
            {
              "code": "11502-2",
              "system": "http://loinc.org",
              "display": "Laboratory report"
            }
          ],
          "text": "Laboratory Report"
        },
        "section": [
          {
            "code": {
              "coding": [
                {
                  "code": "26436-6",
                  "system": "http://loinc.org",
                  "display": "Laboratory studies (set)"
                }
              ],
              "text": "Laboratory studies"
            },
            "section": [
              {
                "code": {
                  "coding": [
                    {
                      "code": "$18719-5",
                      "system": "http://loinc.org",
                      "display": "Chemistry studies (set)"
                    }
                  ],
                  "text": "Chemistry"
                },
                "entry": [
                  {
                    "reference": "urn:uuid:9e5ff550-193d-4d10-9b95-71516df2b31c"
                  },
                  {
                    "reference": "urn:uuid:94c470fb-5573-4616-8530-aafa1f6b9d9e"
                  },
                  {
                    "reference": "urn:uuid:934bf89f-2b4f-40bf-93ec-2e71736b37e5"
                  },
                  {
                    "reference": "urn:uuid:82e993d2-c6f9-4925-bafd-796333f40638"
                  },
                  {
                    "reference": "urn:uuid:8067c338-6a7f-4be9-bece-be40547ae560"
                  },
                  {
                    "reference": "urn:uuid:74d8cb84-d0d4-404f-a52d-7194c6a56cf0"
                  },
                  {
                    "reference": "urn:uuid:676f2458-7ac9-40d6-9b4b-f36ed1d8815c"
                  },
                  {
                    "reference": "urn:uuid:1a9a18cb-b29e-4dfd-b937-1c3ab8f25f34"
                  },
                  {
                    "reference": "urn:uuid:af0bd99d-cb2f-4d8d-92c9-f132b59fee8b"
                  },
                  {
                    "reference": "urn:uuid:ed5ef4c5-7e48-4adc-9090-c7f211fa26d1"
                  },
                  {
                    "reference": "urn:uuid:852e15b8-4f1f-4134-95e5-1ac72f14b741"
                  },
                  {
                    "reference": "urn:uuid:823c8b15-4a07-4f50-9c42-b0cde0ef5c4d"
                  },
                  {
                    "reference": "urn:uuid:1c944bce-232f-4730-a185-e90c8ac1a0c5"
                  },
                  {
                    "reference": "urn:uuid:525784c6-a31e-42d9-9154-0a047d762cf8"
                  },
                  {
                    "reference": "urn:uuid:82ceda05-004b-4263-841d-9ef4c7f4bd59"
                  },
                  {
                    "reference": "urn:uuid:07a323ac-2040-4b2d-8077-c98989c4cf7a"
                  },
                  {
                    "reference": "urn:uuid:3b0646a3-6464-43f9-97a1-58031e8de879"
                  },
                  {
                    "reference": "urn:uuid:842a94ec-3873-4500-a382-7d6f7c93ad7f"
                  }
                ],
                "text": {
                  "status": "generated",
                  "div": "<div xmlns=\"http://www.w3.org/1999/xhtml\"><h3>Chemistry</h3><table class=\"hl7__eu__lab__report\"><thead><tr><th>Test</th><th>01-FEB-2023</th><th>Reference&#xA0;Range</th><th>Unit</th></tr></thead><tbody><tr><td>Glucose [Mass/volume] in Serum or Plasma</td><td>81.6</td><td>70 - 140</td><td>mg/dL</td></tr><tr><td>Urea nitrogen [Mass/volume] in Serum or Plasma</td><td>16.8</td><td>7 - 20</td><td>mg/dL</td></tr><tr><td>Creatinine [Mass/volume] in Serum or Plasma</td><td><strong>1.9 H</strong></td><td>0.9 - 1.3</td><td>mg/dL</td></tr><tr><td>Calcium [Mass/volume] in Serum or Plasma</td><td>8.6</td><td>8.5 - 10.5</td><td>mg/dL</td></tr><tr><td>Sodium [Moles/volume] in Serum or Plasma</td><td>140.8</td><td>135 - 145</td><td>mmol/L</td></tr><tr><td>Potassium [Moles/volume] in Serum or Plasma</td><td>4.6</td><td>3.5 - 5</td><td>mmol/L</td></tr><tr><td>Chloride [Moles/volume] in Serum or Plasma</td><td>105.9</td><td>98 - 108</td><td>mmol/L</td></tr><tr><td>Carbon dioxide, total [Moles/volume] in Serum or Plasma</td><td>24.8</td><td>22 - 29</td><td>mmol/L</td></tr><tr><td>Ketones [Presence] in Urine by Test strip</td><td>Urine ketone test = ++</td><td></td><td></td></tr><tr><td>Hemoglobin A1c/Hemoglobin.total in Blood</td><td><strong>3.0 L</strong></td><td>4.3 - 6.4</td><td>%</td></tr><tr><td>Glucose [Mass/volume] in Blood</td><td>81.6</td><td>70 - 140</td><td>mg/dL</td></tr><tr><td>Urea nitrogen [Mass/volume] in Blood</td><td>16.8</td><td>7 - 20</td><td>mg/dL</td></tr><tr><td>Creatinine [Mass/volume] in Blood</td><td><strong>6.5 H</strong></td><td>0.6 - 1.3</td><td>mg/dL</td></tr><tr><td>Calcium [Mass/volume] in Blood</td><td>8.6</td><td>8.5 - 10.5</td><td>mg/dL</td></tr><tr><td>Sodium [Moles/volume] in Blood</td><td>140.8</td><td>135 - 145</td><td>mmol/L</td></tr><tr><td>Potassium [Moles/volume] in Blood</td><td>4.6</td><td>3.5 - 5.3</td><td>mmol/L</td></tr><tr><td>Chloride [Moles/volume] in Blood</td><td>105.9</td><td>98 - 110</td><td>mmol/L</td></tr><tr><td>Carbon dioxide, total [Moles/volume] in Blood</td><td>24.8</td><td>22 - 29</td><td>mmol/L</td></tr></tbody></table></div>"
                },
                "title": "Chemistry"
              },
              {
                "code": {
                  "coding": [
                    {
                      "code": "$18729-4",
                      "system": "http://loinc.org",
                      "display": "Urinalysis studies (set)"
                    }
                  ],
                  "text": "Urinalysis"
                },
                "entry": [
                  {
                    "reference": "urn:uuid:88b4768c-a9c0-4227-8b72-86d8e44edff3"
                  },
                  {
                    "reference": "urn:uuid:53ce1196-7335-4146-adb7-089494e81eb7"
                  },
                  {
                    "reference": "urn:uuid:a80f2f28-bce3-499f-98de-9fc5399e7da5"
                  },
                  {
                    "reference": "urn:uuid:e86e2660-fb06-4f0b-a9c8-8cf0383a37b4"
                  },
                  {
                    "reference": "urn:uuid:f6610a74-523b-4cbd-b9d4-d4d3140111fd"
                  },
                  {
                    "reference": "urn:uuid:38291bc3-264d-4c4d-9e18-dfab2780722c"
                  },
                  {
                    "reference": "urn:uuid:e8ca6490-92c4-4580-a0fb-2fd336ddbf34"
                  },
                  {
                    "reference": "urn:uuid:84f82e41-f0d5-4b6c-8278-3dff4aab8081"
                  },
                  {
                    "reference": "urn:uuid:ed8fdaf0-9035-4b23-b7b6-f36a14c429d5"
                  },
                  {
                    "reference": "urn:uuid:03b1bc32-e26c-49b2-8b65-db08688a4ed2"
                  },
                  {
                    "reference": "urn:uuid:6cb362ef-23f0-45b5-969a-a2c03eb7f4cb"
                  },
                  {
                    "reference": "urn:uuid:ee11856f-b833-4b7a-bae6-e68b2e940dd4"
                  }
                ],
                "text": {
                  "status": "generated",
                  "div": "<div xmlns=\"http://www.w3.org/1999/xhtml\"><h3>Urinalysis</h3><table class=\"hl7__eu__lab__report\"><thead><tr><th>Test</th><th>01-FEB-2023</th><th>Reference&#xA0;Range</th><th>Unit</th></tr></thead><tbody><tr><td>Glucose [Mass/volume] in Urine by Test strip</td><td><strong>1.5 H</strong></td><td>0 - 0.8</td><td>mg/dL</td></tr><tr><td>Glucose [Presence] in Urine by Test strip</td><td>++</td><td></td><td></td></tr><tr><td>Bilirubin.total [Mass/volume] in Urine by Test strip</td><td>0.2</td><td>0.2 - 1</td><td>mg/dL</td></tr><tr><td>Bilirubin.total [Presence] in Urine by Test strip</td><td>Finding of bilirubin in urine</td><td></td><td></td></tr><tr><td>Ketones [Mass/volume] in Urine by Test strip</td><td><strong>9.5 H</strong></td><td>0 - 5</td><td>mg/dL</td></tr><tr><td>Specific gravity of Urine by Test strip</td><td><strong>1.0 L</strong></td><td>1.005 - 1.03</td><td>{nominal}</td></tr><tr><td>pH of Urine by Test strip</td><td>5.5</td><td>4.6 - 7</td><td>pH</td></tr><tr><td>Protein [Mass/volume] in Urine by Test strip</td><td><strong>274.9 H</strong></td><td>0 - 150</td><td>mg/dL</td></tr><tr><td>Protein [Presence] in Urine by Test strip</td><td>Urine protein test = ++</td><td></td><td></td></tr><tr><td>Nitrite [Presence] in Urine by Test strip</td><td>Urine nitrite negative</td><td></td><td></td></tr><tr><td>Hemoglobin [Presence] in Urine by Test strip</td><td>Urine blood test = negative</td><td></td><td></td></tr><tr><td>Leukocyte esterase [Presence] in Urine by Test strip</td><td>Urine leukocyte test negative</td><td></td><td></td></tr></tbody></table></div>"
                },
                "title": "Urinalysis"
              },
              {
                "code": {
                  "coding": [
                    {
                      "code": "$LP7846-1",
                      "system": "http://loinc.org",
                      "display": "Specimen information"
                    }
                  ],
                  "text": "Specimen information"
                },
                "entry": [
                  {
                    "reference": "urn:uuid:8531d03f-b5cc-4db9-b6ca-e6a723aca090"
                  },
                  {
                    "reference": "urn:uuid:3ecd3299-698b-4511-a330-b9acf5657f0d"
                  },
                  {
                    "reference": "urn:uuid:05cbd8af-9966-4918-9182-474324db01eb"
                  },
                  {
                    "reference": "urn:uuid:273fc676-a969-488f-b06c-c54e4985bd84"
                  }
                ],
                "text": {
                  "status": "generated",
                  "div": "<div xmlns=\"http://www.w3.org/1999/xhtml\"><h3>Specimen information</h3><table class=\"hl7__eu__lab__report\"><thead><tr><th>Test</th><th>01-FEB-2023</th><th>Specimen</th><th></th></tr></thead><tbody><tr><td>Appearance of Urine</td><td>Cloudy urine</td><td>Urine</td><td></td></tr><tr><td>Odor of Urine</td><td>Urine smell ammoniacal</td><td>Urine</td><td></td></tr><tr><td>Clarity of Urine</td><td>Translucent</td><td>Urine</td><td></td></tr><tr><td>Color of Urine</td><td>Brown color</td><td>Urine</td><td></td></tr></tbody></table></div>"
                },
                "title": "Specimen information"
              }
            ],
            "title": "Laboratory Report"
          },
          {
            "text": {
              "status": "generated",
              "div": "<div xmlns=\"http://www.w3.org/1999/xhtml\"><h3>Annotation</h3><table class=\"hl7__eu__lab__report\"><tr><th>Conclusion and Recommendations based on this report and previous findings known to us</th></tr><tr><td>The patient shows markedly elevated creatinine, proteinuria, glucosuria, ketonuria, and abnormal urine appearance, suggesting significant renal dysfunction, possibly acute or chronic kidney disease with impaired filtration. Low urine specific gravity may indicate impaired concentrating ability. Hemoglobin A1c is unexpectedly low, which may reflect analytical or clinical issues (e.g., anemia, hemoglobinopathy). No evidence of urinary tract infection. Prompt nephrology evaluation and further assessment of glycemic status are recommended.</td></tr></table></div>"
            },
            "code": {
              "coding": [
                {
                  "system": "http://loinc.org",
                  "code": "48767-8",
                  "display": "Annotation comment"
                }
              ]
            },
            "title": "Annotation comment"
          }
        ],
        "status": "final",
        "subject": {
          "reference": "urn:uuid:b33282d4-63fe-44c5-b460-db44eef3aea6",
          "display": "Θεμιστοκλής Λιναρδάκη"
        },
        "date": "2023-02-01T07:16:00Z",
        "title": "Laboratory Report",
        "confidentiality": "N"
      }
    },
    {
      "fullUrl": "urn:uuid:fa9bf2fc-d88b-4edf-80a6-f4d09dbc8ad8",
      "resource": {
        "resourceType": "DiagnosticReport",
        "id": "fa9bf2fc-d88b-4edf-80a6-f4d09dbc8ad8",
        "meta": {
          "profile": [
            "http://hl7.eu/fhir/laboratory/StructureDefinition/DiagnosticReport-eu-lab"
          ]
        },
        "identifier": [
          {
            "assigner": {
              "display": "HL7 Europe"
            },
            "system": "urn:oid:2.16.840.1.113883.2.51.999",
            "value": "cf95d9fa-456e-40fb-8b0b-02f1b4865938"
          }
        ],
        "extension": [
          {
            "url": "http://hl7.org/fhir/5.0/StructureDefinition/extension-DiagnosticReport.composition",
            "valueReference": {
              "reference": "urn:uuid:a0dba12e-c226-4ab0-8720-f74d69a23e49"
            }
          }
        ],
        "category": [
          {
            "coding": [
              {
                "code": "26436-6",
                "system": "http://loinc.org",
                "display": "Laboratory studies (set)"
              }
            ]
          }
        ],
        "specimen": [
          {
            "reference": "urn:uuid:54f491e5-24b1-4034-a98f-e19185221b6f"
          },
          {
            "reference": "urn:uuid:23a9ab70-17df-4b56-8513-2386809db492"
          },
          {
            "reference": "urn:uuid:adb7d503-f14b-46c0-9c71-c783ec2811c0"
          }
        ],
        "result": [
          {
            "reference": "urn:uuid:9e5ff550-193d-4d10-9b95-71516df2b31c"
          },
          {
            "reference": "urn:uuid:94c470fb-5573-4616-8530-aafa1f6b9d9e"
          },
          {
            "reference": "urn:uuid:934bf89f-2b4f-40bf-93ec-2e71736b37e5"
          },
          {
            "reference": "urn:uuid:82e993d2-c6f9-4925-bafd-796333f40638"
          },
          {
            "reference": "urn:uuid:8067c338-6a7f-4be9-bece-be40547ae560"
          },
          {
            "reference": "urn:uuid:74d8cb84-d0d4-404f-a52d-7194c6a56cf0"
          },
          {
            "reference": "urn:uuid:676f2458-7ac9-40d6-9b4b-f36ed1d8815c"
          },
          {
            "reference": "urn:uuid:1a9a18cb-b29e-4dfd-b937-1c3ab8f25f34"
          },
          {
            "reference": "urn:uuid:8531d03f-b5cc-4db9-b6ca-e6a723aca090"
          },
          {
            "reference": "urn:uuid:3ecd3299-698b-4511-a330-b9acf5657f0d"
          },
          {
            "reference": "urn:uuid:05cbd8af-9966-4918-9182-474324db01eb"
          },
          {
            "reference": "urn:uuid:273fc676-a969-488f-b06c-c54e4985bd84"
          },
          {
            "reference": "urn:uuid:88b4768c-a9c0-4227-8b72-86d8e44edff3"
          },
          {
            "reference": "urn:uuid:53ce1196-7335-4146-adb7-089494e81eb7"
          },
          {
            "reference": "urn:uuid:a80f2f28-bce3-499f-98de-9fc5399e7da5"
          },
          {
            "reference": "urn:uuid:e86e2660-fb06-4f0b-a9c8-8cf0383a37b4"
          },
          {
            "reference": "urn:uuid:f6610a74-523b-4cbd-b9d4-d4d3140111fd"
          },
          {
            "reference": "urn:uuid:af0bd99d-cb2f-4d8d-92c9-f132b59fee8b"
          },
          {
            "reference": "urn:uuid:38291bc3-264d-4c4d-9e18-dfab2780722c"
          },
          {
            "reference": "urn:uuid:e8ca6490-92c4-4580-a0fb-2fd336ddbf34"
          },
          {
            "reference": "urn:uuid:84f82e41-f0d5-4b6c-8278-3dff4aab8081"
          },
          {
            "reference": "urn:uuid:ed8fdaf0-9035-4b23-b7b6-f36a14c429d5"
          },
          {
            "reference": "urn:uuid:03b1bc32-e26c-49b2-8b65-db08688a4ed2"
          },
          {
            "reference": "urn:uuid:6cb362ef-23f0-45b5-969a-a2c03eb7f4cb"
          },
          {
            "reference": "urn:uuid:ee11856f-b833-4b7a-bae6-e68b2e940dd4"
          },
          {
            "reference": "urn:uuid:ed5ef4c5-7e48-4adc-9090-c7f211fa26d1"
          },
          {
            "reference": "urn:uuid:852e15b8-4f1f-4134-95e5-1ac72f14b741"
          },
          {
            "reference": "urn:uuid:823c8b15-4a07-4f50-9c42-b0cde0ef5c4d"
          },
          {
            "reference": "urn:uuid:1c944bce-232f-4730-a185-e90c8ac1a0c5"
          },
          {
            "reference": "urn:uuid:525784c6-a31e-42d9-9154-0a047d762cf8"
          },
          {
            "reference": "urn:uuid:82ceda05-004b-4263-841d-9ef4c7f4bd59"
          },
          {
            "reference": "urn:uuid:07a323ac-2040-4b2d-8077-c98989c4cf7a"
          },
          {
            "reference": "urn:uuid:3b0646a3-6464-43f9-97a1-58031e8de879"
          },
          {
            "reference": "urn:uuid:842a94ec-3873-4500-a382-7d6f7c93ad7f"
          }
        ],
        "status": "registered",
        "code": {
          "coding": [
            {
              "code": "11502-2",
              "system": "http://loinc.org",
              "display": "Laboratory report"
            }
          ]
        },
        "subject": {
          "reference": "urn:uuid:b33282d4-63fe-44c5-b460-db44eef3aea6",
          "display": "Θεμιστοκλής Λιναρδάκη"
        }
      }
    },
    {
      "fullUrl": "urn:uuid:b33282d4-63fe-44c5-b460-db44eef3aea6",
      "resource": {
        "resourceType": "Patient",
        "id": "b33282d4-63fe-44c5-b460-db44eef3aea6",
        "meta": {
          "security": [
            {
              "system": "http://terminology.hl7.org/CodeSystem/v3-ActReason",
              "code": "HTEST"
            },
            {
              "system": "http://terminology.hl7.org/CodeSystem/v3-ActReason",
              "code": "TRAIN"
            }
          ],
          "tag": [
            {
              "system": "https://synderai.net/fhir/CodeSystem/tags",
              "code": "synthetic",
              "display": "SYNDERAI Synthetic data"
            }
          ],
          "profile": [
            "http://hl7.eu/fhir/base/StructureDefinition/patient-eu-core"
          ]
        },
        "identifier": [
          {
            "type": {
              "coding": [
                {
                  "code": "PT",
                  "system": "http://terminology.hl7.org/CodeSystem/v2-0203"
                }
              ]
            },
            "system": "http://ec.europa.eu/identifier/eci",
            "value": "5962-476889-7"
          },
          {
            "type": {
              "coding": [
                {
                  "code": "MR",
                  "system": "http://terminology.hl7.org/CodeSystem/v2-0203"
                }
              ]
            },
            "system": "http://local.setting.eu/identifier",
            "value": "925e2603-2ef9-6bdf-1330-2ebf526636c4"
          }
        ],
        "name": [
          {
            "family": "Λιναρδάκη"
          },
          {
            "given": [
              "Θεμιστοκλής"
            ]
          },
          {
            "text": "Θεμιστοκλής Λιναρδάκη"
          }
        ],
        "address": [
          {
            "line": [
              "Αμαρύνθου 54-58"
            ],
            "use": "home",
            "type": "physical",
            "postalCode": "262 21",
            "city": "Πάτρα",
            "country": "Greece"
          }
        ],
        "telecom": [
          {
            "system": "phone",
            "value": "+302226364480"
          }
        ],
        "extension": [
          {
            "url": "http://hl7.org/fhir/StructureDefinition/patient-nationality",
            "valueCodeableConcept": {
              "coding": [
                {
                  "code": "GR",
                  "system": "http://hl7.org/fhir/ValueSet/country"
                }
              ]
            }
          }
        ],
        "text": {
          "status": "generated",
          "div": "<div xmlns=\"http://www.w3.org/1999/xhtml\"><table class=\"hl7__ips\"><tr><td>Θεμιστοκλής Λιναρδάκη</td><td>male</td><td>21-Jan-1974</td></tr></table></div>"
        },
        "gender": "male",
        "birthDate": "1974-01-21"
      }
    },
    {
      "fullUrl": "urn:uuid:ea4f8255-90e8-4d58-99cf-cc894f36176c",
      "resource": {
        "resourceType": "ServiceRequest",
        "id": "ea4f8255-90e8-4d58-99cf-cc894f36176c",
        "meta": {
          "profile": [
            "http://hl7.eu/fhir/laboratory/StructureDefinition/ServiceRequest-eu-lab"
          ]
        },
        "identifier": [
          {
            "system": "http://example.org",
            "value": "e14d5361-ea44-4a0c-917f-a3f78792140d"
          }
        ],
        "specimen": [
          {
            "reference": "urn:uuid:54f491e5-24b1-4034-a98f-e19185221b6f"
          },
          {
            "reference": "urn:uuid:23a9ab70-17df-4b56-8513-2386809db492"
          },
          {
            "reference": "urn:uuid:adb7d503-f14b-46c0-9c71-c783ec2811c0"
          }
        ],
        "reasonCode": [
          {
            "coding": [
              {
                "code": "237602007",
                "system": "http://snomed.info/sct",
                "display": "Metabolic syndrome X"
              }
            ]
          },
          {
            "coding": [
              {
                "code": "433144002",
                "system": "http://snomed.info/sct",
                "display": "Chronic kidney disease stage 3"
              }
            ]
          },
          {
            "coding": [
              {
                "code": "157141000119108",
                "system": "http://snomed.info/sct",
                "display": "Proteinuria due to type 2 diabetes mellitus"
              }
            ]
          },
          {
            "coding": [
              {
                "code": "431856006",
                "system": "http://snomed.info/sct",
                "display": "Chronic kidney disease stage 2"
              }
            ]
          },
          {
            "coding": [
              {
                "code": "90781000119102",
                "system": "http://snomed.info/sct",
                "display": "Microalbuminuria due to type 2 diabetes mellitus"
              }
            ]
          },
          {
            "coding": [
              {
                "code": "127013003",
                "system": "http://snomed.info/sct",
                "display": "Disorder of kidney due to diabetes mellitus"
              }
            ]
          },
          {
            "coding": [
              {
                "code": "431855005",
                "system": "http://snomed.info/sct",
                "display": "Chronic kidney disease stage 1"
              }
            ]
          },
          {
            "coding": [
              {
                "code": "59621000",
                "system": "http://snomed.info/sct",
                "display": "Essential hypertension"
              }
            ]
          },
          {
            "coding": [
              {
                "code": "15777000",
                "system": "http://snomed.info/sct",
                "display": "Prediabetes"
              }
            ]
          },
          {
            "coding": [
              {
                "code": "271737000",
                "system": "http://snomed.info/sct",
                "display": "Anemia"
              }
            ]
          }
        ],
        "status": "active",
        "intent": "order",
        "code": {
          "coding": [
            {
              "code": "108252007",
              "system": "http://snomed.info/sct",
              "display": "Laboratory procedure"
            }
          ]
        },
        "subject": {
          "reference": "urn:uuid:b33282d4-63fe-44c5-b460-db44eef3aea6",
          "display": "Θεμιστοκλής Λιναρδάκη"
        },
        "requester": {
          "reference": "urn:uuid:58acbe5c-9f10-4e42-bce7-2cd11e765d04"
        }
      }
    },
    {
      "fullUrl": "urn:uuid:58acbe5c-9f10-4e42-bce7-2cd11e765d04",
      "resource": {
        "resourceType": "PractitionerRole",
        "id": "58acbe5c-9f10-4e42-bce7-2cd11e765d04",
        "meta": {
          "profile": [
            "http://hl7.eu/fhir/base/StructureDefinition/practitionerRole-eu"
          ]
        },
        "text": {
          "status": "generated",
          "div": "<div xmlns=\"http://www.w3.org/1999/xhtml\">Provider Role Id: 58acbe5c-9f10-4e42-bce7-2cd11e765d04</div>"
        },
        "organization": {
          "reference": "urn:uuid:29fff100-0be7-4e28-809d-5e1151b3118d"
        }
      }
    },
    {
      "fullUrl": "urn:uuid:29fff100-0be7-4e28-809d-5e1151b3118d",
      "resource": {
        "resourceType": "Organization",
        "id": "29fff100-0be7-4e28-809d-5e1151b3118d",
        "meta": {
          "profile": [
            "http://hl7.eu/fhir/base/StructureDefinition/organization-eu"
          ]
        },
        "identifier": [
          {
            "assigner": {
              "display": "HL7 Europe"
            },
            "system": "urn:oid:2.16.840.1.113883.2.51.999",
            "value": "f4fee2b3-f6e3-4bfb-963a-696bb66b5cfc"
          }
        ],
        "address": [
          {
            "line": [
              "211 Odós Filellinon"
            ],
            "city": "Patras",
            "postalCode": "262 21",
            "country": "Greece"
          }
        ],
        "text": {
          "status": "generated",
          "div": "<div xmlns=\"http://www.w3.org/1999/xhtml\">Provider Organization: Dr. Dimitris Economou</div>"
        },
        "name": "Dr. Dimitris Economou"
      }
    },
    {
      "fullUrl": "urn:uuid:54f491e5-24b1-4034-a98f-e19185221b6f",
      "resource": {
        "resourceType": "Specimen",
        "id": "54f491e5-24b1-4034-a98f-e19185221b6f",
        "meta": {
          "profile": [
            "http://hl7.eu/fhir/laboratory/StructureDefinition/Specimen-eu-lab"
          ]
        },
        "collection": {
          "collectedDateTime": "2023-02-01"
        },
        "text": {
          "status": "generated",
          "div": "<div xmlns=\"http://www.w3.org/1999/xhtml\"><table class=\"hl7__eu__lab__report\"><tr><th>Specimen</th><th>Collection Date</th></tr><tr><td>Acellular blood (serum or plasma) specimen</td><td><span class=\"nb\">01-Feb-2023</span></td></tr></table></div>"
        },
        "type": {
          "coding": [
            {
              "code": "122592007",
              "system": "http://snomed.info/sct",
              "display": "Acellular blood (serum or plasma) specimen"
            }
          ]
        }
      }
    },
    {
      "fullUrl": "urn:uuid:23a9ab70-17df-4b56-8513-2386809db492",
      "resource": {
        "resourceType": "Specimen",
        "id": "23a9ab70-17df-4b56-8513-2386809db492",
        "meta": {
          "profile": [
            "http://hl7.eu/fhir/laboratory/StructureDefinition/Specimen-eu-lab"
          ]
        },
        "collection": {
          "collectedDateTime": "2023-02-01"
        },
        "text": {
          "status": "generated",
          "div": "<div xmlns=\"http://www.w3.org/1999/xhtml\"><table class=\"hl7__eu__lab__report\"><tr><th>Specimen</th><th>Collection Date</th></tr><tr><td>Urine specimen</td><td><span class=\"nb\">01-Feb-2023</span></td></tr></table></div>"
        },
        "type": {
          "coding": [
            {
              "code": "122575003",
              "system": "http://snomed.info/sct",
              "display": "Urine specimen"
            }
          ]
        }
      }
    },
    {
      "fullUrl": "urn:uuid:adb7d503-f14b-46c0-9c71-c783ec2811c0",
      "resource": {
        "resourceType": "Specimen",
        "id": "adb7d503-f14b-46c0-9c71-c783ec2811c0",
        "meta": {
          "profile": [
            "http://hl7.eu/fhir/laboratory/StructureDefinition/Specimen-eu-lab"
          ]
        },
        "collection": {
          "collectedDateTime": "2023-02-01"
        },
        "text": {
          "status": "generated",
          "div": "<div xmlns=\"http://www.w3.org/1999/xhtml\"><table class=\"hl7__eu__lab__report\"><tr><th>Specimen</th><th>Collection Date</th></tr><tr><td>Whole blood specimen (specimen)</td><td><span class=\"nb\">01-Feb-2023</span></td></tr></table></div>"
        },
        "type": {
          "coding": [
            {
              "code": "258580003",
              "system": "http://snomed.info/sct",
              "display": "Whole blood specimen (specimen)"
            }
          ]
        }
      }
    },
    {
      "fullUrl": "urn:uuid:9e5ff550-193d-4d10-9b95-71516df2b31c",
      "resource": {
        "resourceType": "Observation",
        "id": "9e5ff550-193d-4d10-9b95-71516df2b31c",
        "meta": {
          "profile": [
            "http://hl7.eu/fhir/laboratory/StructureDefinition/Observation-resultslab-eu-lab"
          ]
        },
        "performer": [
          {
            "display": "The Central European Lab"
          }
        ],
        "category": [
          {
            "coding": [
              {
                "system": "http://terminology.hl7.org/CodeSystem/observation-category",
                "code": "laboratory"
              }
            ]
          }
        ],
        "code": {
          "coding": [
            {
              "code": "2345-7",
              "system": "http://loinc.org",
              "display": "Glucose [Mass/volume] in Serum or Plasma"
            }
          ],
          "text": "Glucose [Mass/volume] in Serum or Plasma"
        },
        "valueQuantity": {
          "system": "http://unitsofmeasure.org",
          "value": 81.6,
          "unit": "mg/dL",
          "code": "mg/dL"
        },
        "referenceRange": [
          {
            "low": {
              "value": 70,
              "code": "mg/dL",
              "system": "http://unitsofmeasure.org"
            }
          },
          {
            "high": {
              "value": 140,
              "code": "mg/dL",
              "system": "http://unitsofmeasure.org"
            }
          }
        ],
        "text": {
          "status": "generated",
          "div": "<div xmlns=\"http://www.w3.org/1999/xhtml\"><table class=\"hl7__eu__lab__report\"><tr><th>Test</th><th>01-Feb-2023</th><th>Reference&#xA0;Range</th><th>Unit</th></tr><tr><td>Glucose [Mass/volume] in Serum or Plasma</td><td>81.6</td><td>70 - 140</td><td></td><td>mg/dL</td></tr></table></div>"
        },
        "status": "final",
        "subject": {
          "reference": "urn:uuid:b33282d4-63fe-44c5-b460-db44eef3aea6",
          "display": "Θεμιστοκλής Λιναρδάκη"
        },
        "effectiveDateTime": "2023-02-01T06:16:00Z",
        "specimen": {
          "reference": "urn:uuid:54f491e5-24b1-4034-a98f-e19185221b6f"
        }
      }
    },
    {
      "fullUrl": "urn:uuid:94c470fb-5573-4616-8530-aafa1f6b9d9e",
      "resource": {
        "resourceType": "Observation",
        "id": "94c470fb-5573-4616-8530-aafa1f6b9d9e",
        "meta": {
          "profile": [
            "http://hl7.eu/fhir/laboratory/StructureDefinition/Observation-resultslab-eu-lab"
          ]
        },
        "performer": [
          {
            "display": "The Central European Lab"
          }
        ],
        "category": [
          {
            "coding": [
              {
                "system": "http://terminology.hl7.org/CodeSystem/observation-category",
                "code": "laboratory"
              }
            ]
          }
        ],
        "code": {
          "coding": [
            {
              "code": "3094-0",
              "system": "http://loinc.org",
              "display": "Urea nitrogen [Mass/volume] in Serum or Plasma"
            }
          ],
          "text": "Urea nitrogen [Mass/volume] in Serum or Plasma"
        },
        "valueQuantity": {
          "system": "http://unitsofmeasure.org",
          "value": 16.8,
          "unit": "mg/dL",
          "code": "mg/dL"
        },
        "referenceRange": [
          {
            "low": {
              "value": 7,
              "code": "mg/dL",
              "system": "http://unitsofmeasure.org"
            }
          },
          {
            "high": {
              "value": 20,
              "code": "mg/dL",
              "system": "http://unitsofmeasure.org"
            }
          }
        ],
        "text": {
          "status": "generated",
          "div": "<div xmlns=\"http://www.w3.org/1999/xhtml\"><table class=\"hl7__eu__lab__report\"><tr><th>Test</th><th>01-Feb-2023</th><th>Reference&#xA0;Range</th><th>Unit</th></tr><tr><td>Urea nitrogen [Mass/volume] in Serum or Plasma</td><td>16.8</td><td>7 - 20</td><td></td><td>mg/dL</td></tr></table></div>"
        },
        "status": "final",
        "subject": {
          "reference": "urn:uuid:b33282d4-63fe-44c5-b460-db44eef3aea6",
          "display": "Θεμιστοκλής Λιναρδάκη"
        },
        "effectiveDateTime": "2023-02-01T06:16:00Z",
        "specimen": {
          "reference": "urn:uuid:54f491e5-24b1-4034-a98f-e19185221b6f"
        }
      }
    },
    {
      "fullUrl": "urn:uuid:934bf89f-2b4f-40bf-93ec-2e71736b37e5",
      "resource": {
        "resourceType": "Observation",
        "id": "934bf89f-2b4f-40bf-93ec-2e71736b37e5",
        "meta": {
          "profile": [
            "http://hl7.eu/fhir/laboratory/StructureDefinition/Observation-resultslab-eu-lab"
          ]
        },
        "performer": [
          {
            "display": "The Central European Lab"
          }
        ],
        "category": [
          {
            "coding": [
              {
                "system": "http://terminology.hl7.org/CodeSystem/observation-category",
                "code": "laboratory"
              }
            ]
          }
        ],
        "code": {
          "coding": [
            {
              "code": "2160-0",
              "system": "http://loinc.org",
              "display": "Creatinine [Mass/volume] in Serum or Plasma"
            }
          ],
          "text": "Creatinine [Mass/volume] in Serum or Plasma"
        },
        "valueQuantity": {
          "system": "http://unitsofmeasure.org",
          "value": 1.9,
          "unit": "mg/dL",
          "code": "mg/dL"
        },
        "referenceRange": [
          {
            "low": {
              "value": 0.9,
              "code": "mg/dL",
              "system": "http://unitsofmeasure.org"
            }
          },
          {
            "high": {
              "value": 1.3,
              "code": "mg/dL",
              "system": "http://unitsofmeasure.org"
            }
          }
        ],
        "interpretation": [
          {
            "coding": [
              {
                "code": "H",
                "system": "http://terminology.hl7.org/CodeSystem/v3-ObservationInterpretation",
                "display": "High"
              }
            ]
          }
        ],
        "text": {
          "status": "generated",
          "div": "<div xmlns=\"http://www.w3.org/1999/xhtml\"><table class=\"hl7__eu__lab__report\"><tr><th>Test</th><th>01-Feb-2023</th><th>Reference&#xA0;Range</th><th>Unit</th></tr><tr><td>Creatinine [Mass/volume] in Serum or Plasma</td><td>1.9</td><td>0.9 - 1.3</td><td>H</td><td>mg/dL</td></tr></table></div>"
        },
        "status": "final",
        "subject": {
          "reference": "urn:uuid:b33282d4-63fe-44c5-b460-db44eef3aea6",
          "display": "Θεμιστοκλής Λιναρδάκη"
        },
        "effectiveDateTime": "2023-02-01T06:16:00Z",
        "specimen": {
          "reference": "urn:uuid:54f491e5-24b1-4034-a98f-e19185221b6f"
        }
      }
    },
    {
      "fullUrl": "urn:uuid:82e993d2-c6f9-4925-bafd-796333f40638",
      "resource": {
        "resourceType": "Observation",
        "id": "82e993d2-c6f9-4925-bafd-796333f40638",
        "meta": {
          "profile": [
            "http://hl7.eu/fhir/laboratory/StructureDefinition/Observation-resultslab-eu-lab"
          ]
        },
        "performer": [
          {
            "display": "The Central European Lab"
          }
        ],
        "category": [
          {
            "coding": [
              {
                "system": "http://terminology.hl7.org/CodeSystem/observation-category",
                "code": "laboratory"
              }
            ]
          }
        ],
        "code": {
          "coding": [
            {
              "code": "17861-6",
              "system": "http://loinc.org",
              "display": "Calcium [Mass/volume] in Serum or Plasma"
            }
          ],
          "text": "Calcium [Mass/volume] in Serum or Plasma"
        },
        "valueQuantity": {
          "system": "http://unitsofmeasure.org",
          "value": 8.6,
          "unit": "mg/dL",
          "code": "mg/dL"
        },
        "referenceRange": [
          {
            "low": {
              "value": 8.5,
              "code": "mg/dL",
              "system": "http://unitsofmeasure.org"
            }
          },
          {
            "high": {
              "value": 10.5,
              "code": "mg/dL",
              "system": "http://unitsofmeasure.org"
            }
          }
        ],
        "text": {
          "status": "generated",
          "div": "<div xmlns=\"http://www.w3.org/1999/xhtml\"><table class=\"hl7__eu__lab__report\"><tr><th>Test</th><th>01-Feb-2023</th><th>Reference&#xA0;Range</th><th>Unit</th></tr><tr><td>Calcium [Mass/volume] in Serum or Plasma</td><td>8.6</td><td>8.5 - 10.5</td><td></td><td>mg/dL</td></tr></table></div>"
        },
        "status": "final",
        "subject": {
          "reference": "urn:uuid:b33282d4-63fe-44c5-b460-db44eef3aea6",
          "display": "Θεμιστοκλής Λιναρδάκη"
        },
        "effectiveDateTime": "2023-02-01T06:16:00Z",
        "specimen": {
          "reference": "urn:uuid:54f491e5-24b1-4034-a98f-e19185221b6f"
        }
      }
    },
    {
      "fullUrl": "urn:uuid:8067c338-6a7f-4be9-bece-be40547ae560",
      "resource": {
        "resourceType": "Observation",
        "id": "8067c338-6a7f-4be9-bece-be40547ae560",
        "meta": {
          "profile": [
            "http://hl7.eu/fhir/laboratory/StructureDefinition/Observation-resultslab-eu-lab"
          ]
        },
        "performer": [
          {
            "display": "The Central European Lab"
          }
        ],
        "category": [
          {
            "coding": [
              {
                "system": "http://terminology.hl7.org/CodeSystem/observation-category",
                "code": "laboratory"
              }
            ]
          }
        ],
        "code": {
          "coding": [
            {
              "code": "2951-2",
              "system": "http://loinc.org",
              "display": "Sodium [Moles/volume] in Serum or Plasma"
            }
          ],
          "text": "Sodium [Moles/volume] in Serum or Plasma"
        },
        "valueQuantity": {
          "system": "http://unitsofmeasure.org",
          "value": 140.8,
          "unit": "mmol/L",
          "code": "mmol/L"
        },
        "referenceRange": [
          {
            "low": {
              "value": 135,
              "code": "mmol/L",
              "system": "http://unitsofmeasure.org"
            }
          },
          {
            "high": {
              "value": 145,
              "code": "mmol/L",
              "system": "http://unitsofmeasure.org"
            }
          }
        ],
        "text": {
          "status": "generated",
          "div": "<div xmlns=\"http://www.w3.org/1999/xhtml\"><table class=\"hl7__eu__lab__report\"><tr><th>Test</th><th>01-Feb-2023</th><th>Reference&#xA0;Range</th><th>Unit</th></tr><tr><td>Sodium [Moles/volume] in Serum or Plasma</td><td>140.8</td><td>135 - 145</td><td></td><td>mmol/L</td></tr></table></div>"
        },
        "status": "final",
        "subject": {
          "reference": "urn:uuid:b33282d4-63fe-44c5-b460-db44eef3aea6",
          "display": "Θεμιστοκλής Λιναρδάκη"
        },
        "effectiveDateTime": "2023-02-01T06:16:00Z",
        "specimen": {
          "reference": "urn:uuid:54f491e5-24b1-4034-a98f-e19185221b6f"
        }
      }
    },
    {
      "fullUrl": "urn:uuid:74d8cb84-d0d4-404f-a52d-7194c6a56cf0",
      "resource": {
        "resourceType": "Observation",
        "id": "74d8cb84-d0d4-404f-a52d-7194c6a56cf0",
        "meta": {
          "profile": [
            "http://hl7.eu/fhir/laboratory/StructureDefinition/Observation-resultslab-eu-lab"
          ]
        },
        "performer": [
          {
            "display": "The Central European Lab"
          }
        ],
        "category": [
          {
            "coding": [
              {
                "system": "http://terminology.hl7.org/CodeSystem/observation-category",
                "code": "laboratory"
              }
            ]
          }
        ],
        "code": {
          "coding": [
            {
              "code": "2823-3",
              "system": "http://loinc.org",
              "display": "Potassium [Moles/volume] in Serum or Plasma"
            }
          ],
          "text": "Potassium [Moles/volume] in Serum or Plasma"
        },
        "valueQuantity": {
          "system": "http://unitsofmeasure.org",
          "value": 4.6,
          "unit": "mmol/L",
          "code": "mmol/L"
        },
        "referenceRange": [
          {
            "low": {
              "value": 3.5,
              "code": "mmol/L",
              "system": "http://unitsofmeasure.org"
            }
          },
          {
            "high": {
              "value": 5,
              "code": "mmol/L",
              "system": "http://unitsofmeasure.org"
            }
          }
        ],
        "text": {
          "status": "generated",
          "div": "<div xmlns=\"http://www.w3.org/1999/xhtml\"><table class=\"hl7__eu__lab__report\"><tr><th>Test</th><th>01-Feb-2023</th><th>Reference&#xA0;Range</th><th>Unit</th></tr><tr><td>Potassium [Moles/volume] in Serum or Plasma</td><td>4.6</td><td>3.5 - 5</td><td></td><td>mmol/L</td></tr></table></div>"
        },
        "status": "final",
        "subject": {
          "reference": "urn:uuid:b33282d4-63fe-44c5-b460-db44eef3aea6",
          "display": "Θεμιστοκλής Λιναρδάκη"
        },
        "effectiveDateTime": "2023-02-01T06:16:00Z",
        "specimen": {
          "reference": "urn:uuid:54f491e5-24b1-4034-a98f-e19185221b6f"
        }
      }
    },
    {
      "fullUrl": "urn:uuid:676f2458-7ac9-40d6-9b4b-f36ed1d8815c",
      "resource": {
        "resourceType": "Observation",
        "id": "676f2458-7ac9-40d6-9b4b-f36ed1d8815c",
        "meta": {
          "profile": [
            "http://hl7.eu/fhir/laboratory/StructureDefinition/Observation-resultslab-eu-lab"
          ]
        },
        "performer": [
          {
            "display": "The Central European Lab"
          }
        ],
        "category": [
          {
            "coding": [
              {
                "system": "http://terminology.hl7.org/CodeSystem/observation-category",
                "code": "laboratory"
              }
            ]
          }
        ],
        "code": {
          "coding": [
            {
              "code": "2075-0",
              "system": "http://loinc.org",
              "display": "Chloride [Moles/volume] in Serum or Plasma"
            }
          ],
          "text": "Chloride [Moles/volume] in Serum or Plasma"
        },
        "valueQuantity": {
          "system": "http://unitsofmeasure.org",
          "value": 105.9,
          "unit": "mmol/L",
          "code": "mmol/L"
        },
        "referenceRange": [
          {
            "low": {
              "value": 98,
              "code": "mmol/L",
              "system": "http://unitsofmeasure.org"
            }
          },
          {
            "high": {
              "value": 108,
              "code": "mmol/L",
              "system": "http://unitsofmeasure.org"
            }
          }
        ],
        "text": {
          "status": "generated",
          "div": "<div xmlns=\"http://www.w3.org/1999/xhtml\"><table class=\"hl7__eu__lab__report\"><tr><th>Test</th><th>01-Feb-2023</th><th>Reference&#xA0;Range</th><th>Unit</th></tr><tr><td>Chloride [Moles/volume] in Serum or Plasma</td><td>105.9</td><td>98 - 108</td><td></td><td>mmol/L</td></tr></table></div>"
        },
        "status": "final",
        "subject": {
          "reference": "urn:uuid:b33282d4-63fe-44c5-b460-db44eef3aea6",
          "display": "Θεμιστοκλής Λιναρδάκη"
        },
        "effectiveDateTime": "2023-02-01T06:16:00Z",
        "specimen": {
          "reference": "urn:uuid:54f491e5-24b1-4034-a98f-e19185221b6f"
        }
      }
    },
    {
      "fullUrl": "urn:uuid:1a9a18cb-b29e-4dfd-b937-1c3ab8f25f34",
      "resource": {
        "resourceType": "Observation",
        "id": "1a9a18cb-b29e-4dfd-b937-1c3ab8f25f34",
        "meta": {
          "profile": [
            "http://hl7.eu/fhir/laboratory/StructureDefinition/Observation-resultslab-eu-lab"
          ]
        },
        "performer": [
          {
            "display": "The Central European Lab"
          }
        ],
        "category": [
          {
            "coding": [
              {
                "system": "http://terminology.hl7.org/CodeSystem/observation-category",
                "code": "laboratory"
              }
            ]
          }
        ],
        "code": {
          "coding": [
            {
              "code": "2028-9",
              "system": "http://loinc.org",
              "display": "Carbon dioxide, total [Moles/volume] in Serum or Plasma"
            }
          ],
          "text": "Carbon dioxide, total [Moles/volume] in Serum or Plasma"
        },
        "valueQuantity": {
          "system": "http://unitsofmeasure.org",
          "value": 24.8,
          "unit": "mmol/L",
          "code": "mmol/L"
        },
        "referenceRange": [
          {
            "low": {
              "value": 22,
              "code": "mmol/L",
              "system": "http://unitsofmeasure.org"
            }
          },
          {
            "high": {
              "value": 29,
              "code": "mmol/L",
              "system": "http://unitsofmeasure.org"
            }
          }
        ],
        "text": {
          "status": "generated",
          "div": "<div xmlns=\"http://www.w3.org/1999/xhtml\"><table class=\"hl7__eu__lab__report\"><tr><th>Test</th><th>01-Feb-2023</th><th>Reference&#xA0;Range</th><th>Unit</th></tr><tr><td>Carbon dioxide, total [Moles/volume] in Serum or Plasma</td><td>24.8</td><td>22 - 29</td><td></td><td>mmol/L</td></tr></table></div>"
        },
        "status": "final",
        "subject": {
          "reference": "urn:uuid:b33282d4-63fe-44c5-b460-db44eef3aea6",
          "display": "Θεμιστοκλής Λιναρδάκη"
        },
        "effectiveDateTime": "2023-02-01T06:16:00Z",
        "specimen": {
          "reference": "urn:uuid:54f491e5-24b1-4034-a98f-e19185221b6f"
        }
      }
    },
    {
      "fullUrl": "urn:uuid:8531d03f-b5cc-4db9-b6ca-e6a723aca090",
      "resource": {
        "resourceType": "Observation",
        "id": "8531d03f-b5cc-4db9-b6ca-e6a723aca090",
        "meta": {
          "profile": [
            "http://hl7.eu/fhir/laboratory/StructureDefinition/Observation-resultslab-eu-lab"
          ]
        },
        "performer": [
          {
            "display": "The Central European Lab"
          }
        ],
        "category": [
          {
            "coding": [
              {
                "system": "http://terminology.hl7.org/CodeSystem/observation-category",
                "code": "laboratory"
              }
            ]
          }
        ],
        "code": {
          "coding": [
            {
              "code": "5767-9",
              "system": "http://loinc.org",
              "display": "Appearance of Urine"
            }
          ],
          "text": "Appearance of Urine"
        },
        "text": {
          "status": "generated",
          "div": "<div xmlns=\"http://www.w3.org/1999/xhtml\"><table class=\"hl7__eu__lab__report\"><tr><th>Test</th><th>01-Feb-2023</th><th>Reference&#xA0;Range</th><th>Unit</th></tr><tr><td>Appearance of Urine</td></tr></table></div>"
        },
        "status": "final",
        "subject": {
          "reference": "urn:uuid:b33282d4-63fe-44c5-b460-db44eef3aea6",
          "display": "Θεμιστοκλής Λιναρδάκη"
        },
        "effectiveDateTime": "2023-02-01T06:16:00Z",
        "specimen": {
          "reference": "urn:uuid:23a9ab70-17df-4b56-8513-2386809db492"
        }
      }
    },
    {
      "fullUrl": "urn:uuid:3ecd3299-698b-4511-a330-b9acf5657f0d",
      "resource": {
        "resourceType": "Observation",
        "id": "3ecd3299-698b-4511-a330-b9acf5657f0d",
        "meta": {
          "profile": [
            "http://hl7.eu/fhir/laboratory/StructureDefinition/Observation-resultslab-eu-lab"
          ]
        },
        "performer": [
          {
            "display": "The Central European Lab"
          }
        ],
        "category": [
          {
            "coding": [
              {
                "system": "http://terminology.hl7.org/CodeSystem/observation-category",
                "code": "laboratory"
              }
            ]
          }
        ],
        "code": {
          "coding": [
            {
              "code": "34533-0",
              "system": "http://loinc.org",
              "display": "Odor of Urine"
            }
          ],
          "text": "Odor of Urine"
        },
        "text": {
          "status": "generated",
          "div": "<div xmlns=\"http://www.w3.org/1999/xhtml\"><table class=\"hl7__eu__lab__report\"><tr><th>Test</th><th>01-Feb-2023</th><th>Reference&#xA0;Range</th><th>Unit</th></tr><tr><td>Odor of Urine</td></tr></table></div>"
        },
        "status": "final",
        "subject": {
          "reference": "urn:uuid:b33282d4-63fe-44c5-b460-db44eef3aea6",
          "display": "Θεμιστοκλής Λιναρδάκη"
        },
        "effectiveDateTime": "2023-02-01T06:16:00Z",
        "specimen": {
          "reference": "urn:uuid:23a9ab70-17df-4b56-8513-2386809db492"
        }
      }
    },
    {
      "fullUrl": "urn:uuid:05cbd8af-9966-4918-9182-474324db01eb",
      "resource": {
        "resourceType": "Observation",
        "id": "05cbd8af-9966-4918-9182-474324db01eb",
        "meta": {
          "profile": [
            "http://hl7.eu/fhir/laboratory/StructureDefinition/Observation-resultslab-eu-lab"
          ]
        },
        "performer": [
          {
            "display": "The Central European Lab"
          }
        ],
        "category": [
          {
            "coding": [
              {
                "system": "http://terminology.hl7.org/CodeSystem/observation-category",
                "code": "laboratory"
              }
            ]
          }
        ],
        "code": {
          "coding": [
            {
              "code": "32167-9",
              "system": "http://loinc.org",
              "display": "Clarity of Urine"
            }
          ],
          "text": "Clarity of Urine"
        },
        "text": {
          "status": "generated",
          "div": "<div xmlns=\"http://www.w3.org/1999/xhtml\"><table class=\"hl7__eu__lab__report\"><tr><th>Test</th><th>01-Feb-2023</th><th>Reference&#xA0;Range</th><th>Unit</th></tr><tr><td>Clarity of Urine</td></tr></table></div>"
        },
        "status": "final",
        "subject": {
          "reference": "urn:uuid:b33282d4-63fe-44c5-b460-db44eef3aea6",
          "display": "Θεμιστοκλής Λιναρδάκη"
        },
        "effectiveDateTime": "2023-02-01T06:16:00Z",
        "specimen": {
          "reference": "urn:uuid:23a9ab70-17df-4b56-8513-2386809db492"
        }
      }
    },
    {
      "fullUrl": "urn:uuid:273fc676-a969-488f-b06c-c54e4985bd84",
      "resource": {
        "resourceType": "Observation",
        "id": "273fc676-a969-488f-b06c-c54e4985bd84",
        "meta": {
          "profile": [
            "http://hl7.eu/fhir/laboratory/StructureDefinition/Observation-resultslab-eu-lab"
          ]
        },
        "performer": [
          {
            "display": "The Central European Lab"
          }
        ],
        "category": [
          {
            "coding": [
              {
                "system": "http://terminology.hl7.org/CodeSystem/observation-category",
                "code": "laboratory"
              }
            ]
          }
        ],
        "code": {
          "coding": [
            {
              "code": "5778-6",
              "system": "http://loinc.org",
              "display": "Color of Urine"
            }
          ],
          "text": "Color of Urine"
        },
        "text": {
          "status": "generated",
          "div": "<div xmlns=\"http://www.w3.org/1999/xhtml\"><table class=\"hl7__eu__lab__report\"><tr><th>Test</th><th>01-Feb-2023</th><th>Reference&#xA0;Range</th><th>Unit</th></tr><tr><td>Color of Urine</td></tr></table></div>"
        },
        "status": "final",
        "subject": {
          "reference": "urn:uuid:b33282d4-63fe-44c5-b460-db44eef3aea6",
          "display": "Θεμιστοκλής Λιναρδάκη"
        },
        "effectiveDateTime": "2023-02-01T06:16:00Z",
        "specimen": {
          "reference": "urn:uuid:23a9ab70-17df-4b56-8513-2386809db492"
        }
      }
    },
    {
      "fullUrl": "urn:uuid:88b4768c-a9c0-4227-8b72-86d8e44edff3",
      "resource": {
        "resourceType": "Observation",
        "id": "88b4768c-a9c0-4227-8b72-86d8e44edff3",
        "meta": {
          "profile": [
            "http://hl7.eu/fhir/laboratory/StructureDefinition/Observation-resultslab-eu-lab"
          ]
        },
        "performer": [
          {
            "display": "The Central European Lab"
          }
        ],
        "category": [
          {
            "coding": [
              {
                "system": "http://terminology.hl7.org/CodeSystem/observation-category",
                "code": "laboratory"
              }
            ]
          }
        ],
        "code": {
          "coding": [
            {
              "code": "5792-7",
              "system": "http://loinc.org",
              "display": "Glucose [Mass/volume] in Urine by Test strip"
            }
          ],
          "text": "Glucose [Mass/volume] in Urine by Test strip"
        },
        "valueQuantity": {
          "system": "http://unitsofmeasure.org",
          "value": 1.5,
          "unit": "mg/dL",
          "code": "mg/dL"
        },
        "referenceRange": [
          {
            "low": {
              "value": 0,
              "code": "mg/dL",
              "system": "http://unitsofmeasure.org"
            }
          },
          {
            "high": {
              "value": 0.8,
              "code": "mg/dL",
              "system": "http://unitsofmeasure.org"
            }
          }
        ],
        "interpretation": [
          {
            "coding": [
              {
                "code": "H",
                "system": "http://terminology.hl7.org/CodeSystem/v3-ObservationInterpretation",
                "display": "High"
              }
            ]
          }
        ],
        "text": {
          "status": "generated",
          "div": "<div xmlns=\"http://www.w3.org/1999/xhtml\"><table class=\"hl7__eu__lab__report\"><tr><th>Test</th><th>01-Feb-2023</th><th>Reference&#xA0;Range</th><th>Unit</th></tr><tr><td>Glucose [Mass/volume] in Urine by Test strip</td><td>1.5</td><td>0 - 0.8</td><td>H</td><td>mg/dL</td></tr></table></div>"
        },
        "status": "final",
        "subject": {
          "reference": "urn:uuid:b33282d4-63fe-44c5-b460-db44eef3aea6",
          "display": "Θεμιστοκλής Λιναρδάκη"
        },
        "effectiveDateTime": "2023-02-01T06:16:00Z",
        "specimen": {
          "reference": "urn:uuid:23a9ab70-17df-4b56-8513-2386809db492"
        }
      }
    },
    {
      "fullUrl": "urn:uuid:53ce1196-7335-4146-adb7-089494e81eb7",
      "resource": {
        "resourceType": "Observation",
        "id": "53ce1196-7335-4146-adb7-089494e81eb7",
        "meta": {
          "profile": [
            "http://hl7.eu/fhir/laboratory/StructureDefinition/Observation-resultslab-eu-lab"
          ]
        },
        "performer": [
          {
            "display": "The Central European Lab"
          }
        ],
        "category": [
          {
            "coding": [
              {
                "system": "http://terminology.hl7.org/CodeSystem/observation-category",
                "code": "laboratory"
              }
            ]
          }
        ],
        "code": {
          "coding": [
            {
              "code": "25428-4",
              "system": "http://loinc.org",
              "display": "Glucose [Presence] in Urine by Test strip"
            }
          ],
          "text": "Glucose [Presence] in Urine by Test strip"
        },
        "text": {
          "status": "generated",
          "div": "<div xmlns=\"http://www.w3.org/1999/xhtml\"><table class=\"hl7__eu__lab__report\"><tr><th>Test</th><th>01-Feb-2023</th><th>Reference&#xA0;Range</th><th>Unit</th></tr><tr><td>Glucose [Presence] in Urine by Test strip</td></tr></table></div>"
        },
        "status": "final",
        "subject": {
          "reference": "urn:uuid:b33282d4-63fe-44c5-b460-db44eef3aea6",
          "display": "Θεμιστοκλής Λιναρδάκη"
        },
        "effectiveDateTime": "2023-02-01T06:16:00Z",
        "specimen": {
          "reference": "urn:uuid:23a9ab70-17df-4b56-8513-2386809db492"
        }
      }
    },
    {
      "fullUrl": "urn:uuid:a80f2f28-bce3-499f-98de-9fc5399e7da5",
      "resource": {
        "resourceType": "Observation",
        "id": "a80f2f28-bce3-499f-98de-9fc5399e7da5",
        "meta": {
          "profile": [
            "http://hl7.eu/fhir/laboratory/StructureDefinition/Observation-resultslab-eu-lab"
          ]
        },
        "performer": [
          {
            "display": "The Central European Lab"
          }
        ],
        "category": [
          {
            "coding": [
              {
                "system": "http://terminology.hl7.org/CodeSystem/observation-category",
                "code": "laboratory"
              }
            ]
          }
        ],
        "code": {
          "coding": [
            {
              "code": "20505-4",
              "system": "http://loinc.org",
              "display": "Bilirubin.total [Mass/volume] in Urine by Test strip"
            }
          ],
          "text": "Bilirubin.total [Mass/volume] in Urine by Test strip"
        },
        "valueQuantity": {
          "system": "http://unitsofmeasure.org",
          "value": 0.2,
          "unit": "mg/dL",
          "code": "mg/dL"
        },
        "referenceRange": [
          {
            "low": {
              "value": 0.2,
              "code": "mg/dL",
              "system": "http://unitsofmeasure.org"
            }
          },
          {
            "high": {
              "value": 1,
              "code": "mg/dL",
              "system": "http://unitsofmeasure.org"
            }
          }
        ],
        "text": {
          "status": "generated",
          "div": "<div xmlns=\"http://www.w3.org/1999/xhtml\"><table class=\"hl7__eu__lab__report\"><tr><th>Test</th><th>01-Feb-2023</th><th>Reference&#xA0;Range</th><th>Unit</th></tr><tr><td>Bilirubin.total [Mass/volume] in Urine by Test strip</td><td>0.2</td><td>0.2 - 1</td><td></td><td>mg/dL</td></tr></table></div>"
        },
        "status": "final",
        "subject": {
          "reference": "urn:uuid:b33282d4-63fe-44c5-b460-db44eef3aea6",
          "display": "Θεμιστοκλής Λιναρδάκη"
        },
        "effectiveDateTime": "2023-02-01T06:16:00Z",
        "specimen": {
          "reference": "urn:uuid:23a9ab70-17df-4b56-8513-2386809db492"
        }
      }
    },
    {
      "fullUrl": "urn:uuid:e86e2660-fb06-4f0b-a9c8-8cf0383a37b4",
      "resource": {
        "resourceType": "Observation",
        "id": "e86e2660-fb06-4f0b-a9c8-8cf0383a37b4",
        "meta": {
          "profile": [
            "http://hl7.eu/fhir/laboratory/StructureDefinition/Observation-resultslab-eu-lab"
          ]
        },
        "performer": [
          {
            "display": "The Central European Lab"
          }
        ],
        "category": [
          {
            "coding": [
              {
                "system": "http://terminology.hl7.org/CodeSystem/observation-category",
                "code": "laboratory"
              }
            ]
          }
        ],
        "code": {
          "coding": [
            {
              "code": "5770-3",
              "system": "http://loinc.org",
              "display": "Bilirubin.total [Presence] in Urine by Test strip"
            }
          ],
          "text": "Bilirubin.total [Presence] in Urine by Test strip"
        },
        "text": {
          "status": "generated",
          "div": "<div xmlns=\"http://www.w3.org/1999/xhtml\"><table class=\"hl7__eu__lab__report\"><tr><th>Test</th><th>01-Feb-2023</th><th>Reference&#xA0;Range</th><th>Unit</th></tr><tr><td>Bilirubin.total [Presence] in Urine by Test strip</td></tr></table></div>"
        },
        "status": "final",
        "subject": {
          "reference": "urn:uuid:b33282d4-63fe-44c5-b460-db44eef3aea6",
          "display": "Θεμιστοκλής Λιναρδάκη"
        },
        "effectiveDateTime": "2023-02-01T06:16:00Z",
        "specimen": {
          "reference": "urn:uuid:23a9ab70-17df-4b56-8513-2386809db492"
        }
      }
    },
    {
      "fullUrl": "urn:uuid:f6610a74-523b-4cbd-b9d4-d4d3140111fd",
      "resource": {
        "resourceType": "Observation",
        "id": "f6610a74-523b-4cbd-b9d4-d4d3140111fd",
        "meta": {
          "profile": [
            "http://hl7.eu/fhir/laboratory/StructureDefinition/Observation-resultslab-eu-lab"
          ]
        },
        "performer": [
          {
            "display": "The Central European Lab"
          }
        ],
        "category": [
          {
            "coding": [
              {
                "system": "http://terminology.hl7.org/CodeSystem/observation-category",
                "code": "laboratory"
              }
            ]
          }
        ],
        "code": {
          "coding": [
            {
              "code": "5797-6",
              "system": "http://loinc.org",
              "display": "Ketones [Mass/volume] in Urine by Test strip"
            }
          ],
          "text": "Ketones [Mass/volume] in Urine by Test strip"
        },
        "valueQuantity": {
          "system": "http://unitsofmeasure.org",
          "value": 9.5,
          "unit": "mg/dL",
          "code": "mg/dL"
        },
        "referenceRange": [
          {
            "low": {
              "value": 0,
              "code": "mg/dL",
              "system": "http://unitsofmeasure.org"
            }
          },
          {
            "high": {
              "value": 5,
              "code": "mg/dL",
              "system": "http://unitsofmeasure.org"
            }
          }
        ],
        "interpretation": [
          {
            "coding": [
              {
                "code": "H",
                "system": "http://terminology.hl7.org/CodeSystem/v3-ObservationInterpretation",
                "display": "High"
              }
            ]
          }
        ],
        "text": {
          "status": "generated",
          "div": "<div xmlns=\"http://www.w3.org/1999/xhtml\"><table class=\"hl7__eu__lab__report\"><tr><th>Test</th><th>01-Feb-2023</th><th>Reference&#xA0;Range</th><th>Unit</th></tr><tr><td>Ketones [Mass/volume] in Urine by Test strip</td><td>9.5</td><td>0 - 5</td><td>H</td><td>mg/dL</td></tr></table></div>"
        },
        "status": "final",
        "subject": {
          "reference": "urn:uuid:b33282d4-63fe-44c5-b460-db44eef3aea6",
          "display": "Θεμιστοκλής Λιναρδάκη"
        },
        "effectiveDateTime": "2023-02-01T06:16:00Z",
        "specimen": {
          "reference": "urn:uuid:23a9ab70-17df-4b56-8513-2386809db492"
        }
      }
    },
    {
      "fullUrl": "urn:uuid:af0bd99d-cb2f-4d8d-92c9-f132b59fee8b",
      "resource": {
        "resourceType": "Observation",
        "id": "af0bd99d-cb2f-4d8d-92c9-f132b59fee8b",
        "meta": {
          "profile": [
            "http://hl7.eu/fhir/laboratory/StructureDefinition/Observation-resultslab-eu-lab"
          ]
        },
        "performer": [
          {
            "display": "The Central European Lab"
          }
        ],
        "category": [
          {
            "coding": [
              {
                "system": "http://terminology.hl7.org/CodeSystem/observation-category",
                "code": "laboratory"
              }
            ]
          }
        ],
        "code": {
          "coding": [
            {
              "code": "2514-8",
              "system": "http://loinc.org",
              "display": "Ketones [Presence] in Urine by Test strip"
            }
          ],
          "text": "Ketones [Presence] in Urine by Test strip"
        },
        "text": {
          "status": "generated",
          "div": "<div xmlns=\"http://www.w3.org/1999/xhtml\"><table class=\"hl7__eu__lab__report\"><tr><th>Test</th><th>01-Feb-2023</th><th>Reference&#xA0;Range</th><th>Unit</th></tr><tr><td>Ketones [Presence] in Urine by Test strip</td></tr></table></div>"
        },
        "status": "final",
        "subject": {
          "reference": "urn:uuid:b33282d4-63fe-44c5-b460-db44eef3aea6",
          "display": "Θεμιστοκλής Λιναρδάκη"
        },
        "effectiveDateTime": "2023-02-01T06:16:00Z",
        "specimen": {
          "reference": "urn:uuid:23a9ab70-17df-4b56-8513-2386809db492"
        }
      }
    },
    {
      "fullUrl": "urn:uuid:38291bc3-264d-4c4d-9e18-dfab2780722c",
      "resource": {
        "resourceType": "Observation",
        "id": "38291bc3-264d-4c4d-9e18-dfab2780722c",
        "meta": {
          "profile": [
            "http://hl7.eu/fhir/laboratory/StructureDefinition/Observation-resultslab-eu-lab"
          ]
        },
        "performer": [
          {
            "display": "The Central European Lab"
          }
        ],
        "category": [
          {
            "coding": [
              {
                "system": "http://terminology.hl7.org/CodeSystem/observation-category",
                "code": "laboratory"
              }
            ]
          }
        ],
        "code": {
          "coding": [
            {
              "code": "5811-5",
              "system": "http://loinc.org",
              "display": "Specific gravity of Urine by Test strip"
            }
          ],
          "text": "Specific gravity of Urine by Test strip"
        },
        "valueQuantity": {
          "system": "http://unitsofmeasure.org",
          "value": 1,
          "unit": "{nominal}",
          "code": "{nominal}"
        },
        "referenceRange": [
          {
            "low": {
              "value": 1.005,
              "code": "g/mL",
              "system": "http://unitsofmeasure.org"
            }
          },
          {
            "high": {
              "value": 1.03,
              "code": "g/mL",
              "system": "http://unitsofmeasure.org"
            }
          }
        ],
        "interpretation": [
          {
            "coding": [
              {
                "code": "L",
                "system": "http://terminology.hl7.org/CodeSystem/v3-ObservationInterpretation",
                "display": "Low"
              }
            ]
          }
        ],
        "text": {
          "status": "generated",
          "div": "<div xmlns=\"http://www.w3.org/1999/xhtml\"><table class=\"hl7__eu__lab__report\"><tr><th>Test</th><th>01-Feb-2023</th><th>Reference&#xA0;Range</th><th>Unit</th></tr><tr><td>Specific gravity of Urine by Test strip</td><td>1.0</td><td>1.005 - 1.03</td><td>L</td><td>{nominal}</td></tr></table></div>"
        },
        "status": "final",
        "subject": {
          "reference": "urn:uuid:b33282d4-63fe-44c5-b460-db44eef3aea6",
          "display": "Θεμιστοκλής Λιναρδάκη"
        },
        "effectiveDateTime": "2023-02-01T06:16:00Z",
        "specimen": {
          "reference": "urn:uuid:23a9ab70-17df-4b56-8513-2386809db492"
        }
      }
    },
    {
      "fullUrl": "urn:uuid:e8ca6490-92c4-4580-a0fb-2fd336ddbf34",
      "resource": {
        "resourceType": "Observation",
        "id": "e8ca6490-92c4-4580-a0fb-2fd336ddbf34",
        "meta": {
          "profile": [
            "http://hl7.eu/fhir/laboratory/StructureDefinition/Observation-resultslab-eu-lab"
          ]
        },
        "performer": [
          {
            "display": "The Central European Lab"
          }
        ],
        "category": [
          {
            "coding": [
              {
                "system": "http://terminology.hl7.org/CodeSystem/observation-category",
                "code": "laboratory"
              }
            ]
          }
        ],
        "code": {
          "coding": [
            {
              "code": "5803-2",
              "system": "http://loinc.org",
              "display": "pH of Urine by Test strip"
            }
          ],
          "text": "pH of Urine by Test strip"
        },
        "valueQuantity": {
          "system": "http://unitsofmeasure.org",
          "value": 5.5,
          "unit": "pH",
          "code": "pH"
        },
        "referenceRange": [
          {
            "low": {
              "value": 4.6,
              "code": "pH",
              "system": "http://unitsofmeasure.org"
            }
          },
          {
            "high": {
              "value": 7,
              "code": "pH",
              "system": "http://unitsofmeasure.org"
            }
          }
        ],
        "text": {
          "status": "generated",
          "div": "<div xmlns=\"http://www.w3.org/1999/xhtml\"><table class=\"hl7__eu__lab__report\"><tr><th>Test</th><th>01-Feb-2023</th><th>Reference&#xA0;Range</th><th>Unit</th></tr><tr><td>pH of Urine by Test strip</td><td>5.5</td><td>4.6 - 7</td><td></td><td>pH</td></tr></table></div>"
        },
        "status": "final",
        "subject": {
          "reference": "urn:uuid:b33282d4-63fe-44c5-b460-db44eef3aea6",
          "display": "Θεμιστοκλής Λιναρδάκη"
        },
        "effectiveDateTime": "2023-02-01T06:16:00Z",
        "specimen": {
          "reference": "urn:uuid:23a9ab70-17df-4b56-8513-2386809db492"
        }
      }
    },
    {
      "fullUrl": "urn:uuid:84f82e41-f0d5-4b6c-8278-3dff4aab8081",
      "resource": {
        "resourceType": "Observation",
        "id": "84f82e41-f0d5-4b6c-8278-3dff4aab8081",
        "meta": {
          "profile": [
            "http://hl7.eu/fhir/laboratory/StructureDefinition/Observation-resultslab-eu-lab"
          ]
        },
        "performer": [
          {
            "display": "The Central European Lab"
          }
        ],
        "category": [
          {
            "coding": [
              {
                "system": "http://terminology.hl7.org/CodeSystem/observation-category",
                "code": "laboratory"
              }
            ]
          }
        ],
        "code": {
          "coding": [
            {
              "code": "5804-0",
              "system": "http://loinc.org",
              "display": "Protein [Mass/volume] in Urine by Test strip"
            }
          ],
          "text": "Protein [Mass/volume] in Urine by Test strip"
        },
        "valueQuantity": {
          "system": "http://unitsofmeasure.org",
          "value": 274.9,
          "unit": "mg/dL",
          "code": "mg/dL"
        },
        "referenceRange": [
          {
            "low": {
              "value": 0,
              "code": "mg/dL",
              "system": "http://unitsofmeasure.org"
            }
          },
          {
            "high": {
              "value": 150,
              "code": "mg/dL",
              "system": "http://unitsofmeasure.org"
            }
          }
        ],
        "interpretation": [
          {
            "coding": [
              {
                "code": "H",
                "system": "http://terminology.hl7.org/CodeSystem/v3-ObservationInterpretation",
                "display": "High"
              }
            ]
          }
        ],
        "text": {
          "status": "generated",
          "div": "<div xmlns=\"http://www.w3.org/1999/xhtml\"><table class=\"hl7__eu__lab__report\"><tr><th>Test</th><th>01-Feb-2023</th><th>Reference&#xA0;Range</th><th>Unit</th></tr><tr><td>Protein [Mass/volume] in Urine by Test strip</td><td>274.9</td><td>0 - 150</td><td>H</td><td>mg/dL</td></tr></table></div>"
        },
        "status": "final",
        "subject": {
          "reference": "urn:uuid:b33282d4-63fe-44c5-b460-db44eef3aea6",
          "display": "Θεμιστοκλής Λιναρδάκη"
        },
        "effectiveDateTime": "2023-02-01T06:16:00Z",
        "specimen": {
          "reference": "urn:uuid:23a9ab70-17df-4b56-8513-2386809db492"
        }
      }
    },
    {
      "fullUrl": "urn:uuid:ed8fdaf0-9035-4b23-b7b6-f36a14c429d5",
      "resource": {
        "resourceType": "Observation",
        "id": "ed8fdaf0-9035-4b23-b7b6-f36a14c429d5",
        "meta": {
          "profile": [
            "http://hl7.eu/fhir/laboratory/StructureDefinition/Observation-resultslab-eu-lab"
          ]
        },
        "performer": [
          {
            "display": "The Central European Lab"
          }
        ],
        "category": [
          {
            "coding": [
              {
                "system": "http://terminology.hl7.org/CodeSystem/observation-category",
                "code": "laboratory"
              }
            ]
          }
        ],
        "code": {
          "coding": [
            {
              "code": "20454-5",
              "system": "http://loinc.org",
              "display": "Protein [Presence] in Urine by Test strip"
            }
          ],
          "text": "Protein [Presence] in Urine by Test strip"
        },
        "text": {
          "status": "generated",
          "div": "<div xmlns=\"http://www.w3.org/1999/xhtml\"><table class=\"hl7__eu__lab__report\"><tr><th>Test</th><th>01-Feb-2023</th><th>Reference&#xA0;Range</th><th>Unit</th></tr><tr><td>Protein [Presence] in Urine by Test strip</td></tr></table></div>"
        },
        "status": "final",
        "subject": {
          "reference": "urn:uuid:b33282d4-63fe-44c5-b460-db44eef3aea6",
          "display": "Θεμιστοκλής Λιναρδάκη"
        },
        "effectiveDateTime": "2023-02-01T06:16:00Z",
        "specimen": {
          "reference": "urn:uuid:23a9ab70-17df-4b56-8513-2386809db492"
        }
      }
    },
    {
      "fullUrl": "urn:uuid:03b1bc32-e26c-49b2-8b65-db08688a4ed2",
      "resource": {
        "resourceType": "Observation",
        "id": "03b1bc32-e26c-49b2-8b65-db08688a4ed2",
        "meta": {
          "profile": [
            "http://hl7.eu/fhir/laboratory/StructureDefinition/Observation-resultslab-eu-lab"
          ]
        },
        "performer": [
          {
            "display": "The Central European Lab"
          }
        ],
        "category": [
          {
            "coding": [
              {
                "system": "http://terminology.hl7.org/CodeSystem/observation-category",
                "code": "laboratory"
              }
            ]
          }
        ],
        "code": {
          "coding": [
            {
              "code": "5802-4",
              "system": "http://loinc.org",
              "display": "Nitrite [Presence] in Urine by Test strip"
            }
          ],
          "text": "Nitrite [Presence] in Urine by Test strip"
        },
        "text": {
          "status": "generated",
          "div": "<div xmlns=\"http://www.w3.org/1999/xhtml\"><table class=\"hl7__eu__lab__report\"><tr><th>Test</th><th>01-Feb-2023</th><th>Reference&#xA0;Range</th><th>Unit</th></tr><tr><td>Nitrite [Presence] in Urine by Test strip</td></tr></table></div>"
        },
        "status": "final",
        "subject": {
          "reference": "urn:uuid:b33282d4-63fe-44c5-b460-db44eef3aea6",
          "display": "Θεμιστοκλής Λιναρδάκη"
        },
        "effectiveDateTime": "2023-02-01T06:16:00Z",
        "specimen": {
          "reference": "urn:uuid:23a9ab70-17df-4b56-8513-2386809db492"
        }
      }
    },
    {
      "fullUrl": "urn:uuid:6cb362ef-23f0-45b5-969a-a2c03eb7f4cb",
      "resource": {
        "resourceType": "Observation",
        "id": "6cb362ef-23f0-45b5-969a-a2c03eb7f4cb",
        "meta": {
          "profile": [
            "http://hl7.eu/fhir/laboratory/StructureDefinition/Observation-resultslab-eu-lab"
          ]
        },
        "performer": [
          {
            "display": "The Central European Lab"
          }
        ],
        "category": [
          {
            "coding": [
              {
                "system": "http://terminology.hl7.org/CodeSystem/observation-category",
                "code": "laboratory"
              }
            ]
          }
        ],
        "code": {
          "coding": [
            {
              "code": "5794-3",
              "system": "http://loinc.org",
              "display": "Hemoglobin [Presence] in Urine by Test strip"
            }
          ],
          "text": "Hemoglobin [Presence] in Urine by Test strip"
        },
        "text": {
          "status": "generated",
          "div": "<div xmlns=\"http://www.w3.org/1999/xhtml\"><table class=\"hl7__eu__lab__report\"><tr><th>Test</th><th>01-Feb-2023</th><th>Reference&#xA0;Range</th><th>Unit</th></tr><tr><td>Hemoglobin [Presence] in Urine by Test strip</td></tr></table></div>"
        },
        "status": "final",
        "subject": {
          "reference": "urn:uuid:b33282d4-63fe-44c5-b460-db44eef3aea6",
          "display": "Θεμιστοκλής Λιναρδάκη"
        },
        "effectiveDateTime": "2023-02-01T06:16:00Z",
        "specimen": {
          "reference": "urn:uuid:23a9ab70-17df-4b56-8513-2386809db492"
        }
      }
    },
    {
      "fullUrl": "urn:uuid:ee11856f-b833-4b7a-bae6-e68b2e940dd4",
      "resource": {
        "resourceType": "Observation",
        "id": "ee11856f-b833-4b7a-bae6-e68b2e940dd4",
        "meta": {
          "profile": [
            "http://hl7.eu/fhir/laboratory/StructureDefinition/Observation-resultslab-eu-lab"
          ]
        },
        "performer": [
          {
            "display": "The Central European Lab"
          }
        ],
        "category": [
          {
            "coding": [
              {
                "system": "http://terminology.hl7.org/CodeSystem/observation-category",
                "code": "laboratory"
              }
            ]
          }
        ],
        "code": {
          "coding": [
            {
              "code": "5799-2",
              "system": "http://loinc.org",
              "display": "Leukocyte esterase [Presence] in Urine by Test strip"
            }
          ],
          "text": "Leukocyte esterase [Presence] in Urine by Test strip"
        },
        "text": {
          "status": "generated",
          "div": "<div xmlns=\"http://www.w3.org/1999/xhtml\"><table class=\"hl7__eu__lab__report\"><tr><th>Test</th><th>01-Feb-2023</th><th>Reference&#xA0;Range</th><th>Unit</th></tr><tr><td>Leukocyte esterase [Presence] in Urine by Test strip</td></tr></table></div>"
        },
        "status": "final",
        "subject": {
          "reference": "urn:uuid:b33282d4-63fe-44c5-b460-db44eef3aea6",
          "display": "Θεμιστοκλής Λιναρδάκη"
        },
        "effectiveDateTime": "2023-02-01T06:16:00Z",
        "specimen": {
          "reference": "urn:uuid:23a9ab70-17df-4b56-8513-2386809db492"
        }
      }
    },
    {
      "fullUrl": "urn:uuid:ed5ef4c5-7e48-4adc-9090-c7f211fa26d1",
      "resource": {
        "resourceType": "Observation",
        "id": "ed5ef4c5-7e48-4adc-9090-c7f211fa26d1",
        "meta": {
          "profile": [
            "http://hl7.eu/fhir/laboratory/StructureDefinition/Observation-resultslab-eu-lab"
          ]
        },
        "performer": [
          {
            "display": "The Central European Lab"
          }
        ],
        "category": [
          {
            "coding": [
              {
                "system": "http://terminology.hl7.org/CodeSystem/observation-category",
                "code": "laboratory"
              }
            ]
          }
        ],
        "code": {
          "coding": [
            {
              "code": "4548-4",
              "system": "http://loinc.org",
              "display": "Hemoglobin A1c/Hemoglobin.total in Blood"
            }
          ],
          "text": "Hemoglobin A1c/Hemoglobin.total in Blood"
        },
        "valueQuantity": {
          "system": "http://unitsofmeasure.org",
          "value": 3,
          "unit": "%",
          "code": "%"
        },
        "referenceRange": [
          {
            "low": {
              "value": 4.3,
              "code": "%",
              "system": "http://unitsofmeasure.org"
            }
          },
          {
            "high": {
              "value": 6.4,
              "code": "%",
              "system": "http://unitsofmeasure.org"
            }
          }
        ],
        "interpretation": [
          {
            "coding": [
              {
                "code": "L",
                "system": "http://terminology.hl7.org/CodeSystem/v3-ObservationInterpretation",
                "display": "Low"
              }
            ]
          }
        ],
        "text": {
          "status": "generated",
          "div": "<div xmlns=\"http://www.w3.org/1999/xhtml\"><table class=\"hl7__eu__lab__report\"><tr><th>Test</th><th>01-Feb-2023</th><th>Reference&#xA0;Range</th><th>Unit</th></tr><tr><td>Hemoglobin A1c/Hemoglobin.total in Blood</td><td>3.0</td><td>4.3 - 6.4</td><td>L</td><td>%</td></tr></table></div>"
        },
        "status": "final",
        "subject": {
          "reference": "urn:uuid:b33282d4-63fe-44c5-b460-db44eef3aea6",
          "display": "Θεμιστοκλής Λιναρδάκη"
        },
        "effectiveDateTime": "2023-02-01T06:16:00Z",
        "specimen": {
          "reference": "urn:uuid:adb7d503-f14b-46c0-9c71-c783ec2811c0"
        }
      }
    },
    {
      "fullUrl": "urn:uuid:852e15b8-4f1f-4134-95e5-1ac72f14b741",
      "resource": {
        "resourceType": "Observation",
        "id": "852e15b8-4f1f-4134-95e5-1ac72f14b741",
        "meta": {
          "profile": [
            "http://hl7.eu/fhir/laboratory/StructureDefinition/Observation-resultslab-eu-lab"
          ]
        },
        "performer": [
          {
            "display": "The Central European Lab"
          }
        ],
        "category": [
          {
            "coding": [
              {
                "system": "http://terminology.hl7.org/CodeSystem/observation-category",
                "code": "laboratory"
              }
            ]
          }
        ],
        "code": {
          "coding": [
            {
              "code": "2339-0",
              "system": "http://loinc.org",
              "display": "Glucose [Mass/volume] in Blood"
            }
          ],
          "text": "Glucose [Mass/volume] in Blood"
        },
        "valueQuantity": {
          "system": "http://unitsofmeasure.org",
          "value": 81.6,
          "unit": "mg/dL",
          "code": "mg/dL"
        },
        "referenceRange": [
          {
            "low": {
              "value": 70,
              "code": "mg/dL",
              "system": "http://unitsofmeasure.org"
            }
          },
          {
            "high": {
              "value": 140,
              "code": "mg/dL",
              "system": "http://unitsofmeasure.org"
            }
          }
        ],
        "text": {
          "status": "generated",
          "div": "<div xmlns=\"http://www.w3.org/1999/xhtml\"><table class=\"hl7__eu__lab__report\"><tr><th>Test</th><th>01-Feb-2023</th><th>Reference&#xA0;Range</th><th>Unit</th></tr><tr><td>Glucose [Mass/volume] in Blood</td><td>81.6</td><td>70 - 140</td><td></td><td>mg/dL</td></tr></table></div>"
        },
        "status": "final",
        "subject": {
          "reference": "urn:uuid:b33282d4-63fe-44c5-b460-db44eef3aea6",
          "display": "Θεμιστοκλής Λιναρδάκη"
        },
        "effectiveDateTime": "2023-02-01T06:16:00Z",
        "specimen": {
          "reference": "urn:uuid:adb7d503-f14b-46c0-9c71-c783ec2811c0"
        }
      }
    },
    {
      "fullUrl": "urn:uuid:823c8b15-4a07-4f50-9c42-b0cde0ef5c4d",
      "resource": {
        "resourceType": "Observation",
        "id": "823c8b15-4a07-4f50-9c42-b0cde0ef5c4d",
        "meta": {
          "profile": [
            "http://hl7.eu/fhir/laboratory/StructureDefinition/Observation-resultslab-eu-lab"
          ]
        },
        "performer": [
          {
            "display": "The Central European Lab"
          }
        ],
        "category": [
          {
            "coding": [
              {
                "system": "http://terminology.hl7.org/CodeSystem/observation-category",
                "code": "laboratory"
              }
            ]
          }
        ],
        "code": {
          "coding": [
            {
              "code": "6299-2",
              "system": "http://loinc.org",
              "display": "Urea nitrogen [Mass/volume] in Blood"
            }
          ],
          "text": "Urea nitrogen [Mass/volume] in Blood"
        },
        "valueQuantity": {
          "system": "http://unitsofmeasure.org",
          "value": 16.8,
          "unit": "mg/dL",
          "code": "mg/dL"
        },
        "referenceRange": [
          {
            "low": {
              "value": 7,
              "code": "mg/dL",
              "system": "http://unitsofmeasure.org"
            }
          },
          {
            "high": {
              "value": 20,
              "code": "mg/dL",
              "system": "http://unitsofmeasure.org"
            }
          }
        ],
        "text": {
          "status": "generated",
          "div": "<div xmlns=\"http://www.w3.org/1999/xhtml\"><table class=\"hl7__eu__lab__report\"><tr><th>Test</th><th>01-Feb-2023</th><th>Reference&#xA0;Range</th><th>Unit</th></tr><tr><td>Urea nitrogen [Mass/volume] in Blood</td><td>16.8</td><td>7 - 20</td><td></td><td>mg/dL</td></tr></table></div>"
        },
        "status": "final",
        "subject": {
          "reference": "urn:uuid:b33282d4-63fe-44c5-b460-db44eef3aea6",
          "display": "Θεμιστοκλής Λιναρδάκη"
        },
        "effectiveDateTime": "2023-02-01T06:16:00Z",
        "specimen": {
          "reference": "urn:uuid:adb7d503-f14b-46c0-9c71-c783ec2811c0"
        }
      }
    },
    {
      "fullUrl": "urn:uuid:1c944bce-232f-4730-a185-e90c8ac1a0c5",
      "resource": {
        "resourceType": "Observation",
        "id": "1c944bce-232f-4730-a185-e90c8ac1a0c5",
        "meta": {
          "profile": [
            "http://hl7.eu/fhir/laboratory/StructureDefinition/Observation-resultslab-eu-lab"
          ]
        },
        "performer": [
          {
            "display": "The Central European Lab"
          }
        ],
        "category": [
          {
            "coding": [
              {
                "system": "http://terminology.hl7.org/CodeSystem/observation-category",
                "code": "laboratory"
              }
            ]
          }
        ],
        "code": {
          "coding": [
            {
              "code": "38483-4",
              "system": "http://loinc.org",
              "display": "Creatinine [Mass/volume] in Blood"
            }
          ],
          "text": "Creatinine [Mass/volume] in Blood"
        },
        "valueQuantity": {
          "system": "http://unitsofmeasure.org",
          "value": 6.5,
          "unit": "mg/dL",
          "code": "mg/dL"
        },
        "referenceRange": [
          {
            "low": {
              "value": 0.6,
              "code": "mg/dL",
              "system": "http://unitsofmeasure.org"
            }
          },
          {
            "high": {
              "value": 1.3,
              "code": "mg/dL",
              "system": "http://unitsofmeasure.org"
            }
          }
        ],
        "interpretation": [
          {
            "coding": [
              {
                "code": "H",
                "system": "http://terminology.hl7.org/CodeSystem/v3-ObservationInterpretation",
                "display": "High"
              }
            ]
          }
        ],
        "text": {
          "status": "generated",
          "div": "<div xmlns=\"http://www.w3.org/1999/xhtml\"><table class=\"hl7__eu__lab__report\"><tr><th>Test</th><th>01-Feb-2023</th><th>Reference&#xA0;Range</th><th>Unit</th></tr><tr><td>Creatinine [Mass/volume] in Blood</td><td>6.5</td><td>0.6 - 1.3</td><td>H</td><td>mg/dL</td></tr></table></div>"
        },
        "status": "final",
        "subject": {
          "reference": "urn:uuid:b33282d4-63fe-44c5-b460-db44eef3aea6",
          "display": "Θεμιστοκλής Λιναρδάκη"
        },
        "effectiveDateTime": "2023-02-01T06:16:00Z",
        "specimen": {
          "reference": "urn:uuid:adb7d503-f14b-46c0-9c71-c783ec2811c0"
        }
      }
    },
    {
      "fullUrl": "urn:uuid:525784c6-a31e-42d9-9154-0a047d762cf8",
      "resource": {
        "resourceType": "Observation",
        "id": "525784c6-a31e-42d9-9154-0a047d762cf8",
        "meta": {
          "profile": [
            "http://hl7.eu/fhir/laboratory/StructureDefinition/Observation-resultslab-eu-lab"
          ]
        },
        "performer": [
          {
            "display": "The Central European Lab"
          }
        ],
        "category": [
          {
            "coding": [
              {
                "system": "http://terminology.hl7.org/CodeSystem/observation-category",
                "code": "laboratory"
              }
            ]
          }
        ],
        "code": {
          "coding": [
            {
              "code": "49765-1",
              "system": "http://loinc.org",
              "display": "Calcium [Mass/volume] in Blood"
            }
          ],
          "text": "Calcium [Mass/volume] in Blood"
        },
        "valueQuantity": {
          "system": "http://unitsofmeasure.org",
          "value": 8.6,
          "unit": "mg/dL",
          "code": "mg/dL"
        },
        "referenceRange": [
          {
            "low": {
              "value": 8.5,
              "code": "mg/dL",
              "system": "http://unitsofmeasure.org"
            }
          },
          {
            "high": {
              "value": 10.5,
              "code": "mg/dL",
              "system": "http://unitsofmeasure.org"
            }
          }
        ],
        "text": {
          "status": "generated",
          "div": "<div xmlns=\"http://www.w3.org/1999/xhtml\"><table class=\"hl7__eu__lab__report\"><tr><th>Test</th><th>01-Feb-2023</th><th>Reference&#xA0;Range</th><th>Unit</th></tr><tr><td>Calcium [Mass/volume] in Blood</td><td>8.6</td><td>8.5 - 10.5</td><td></td><td>mg/dL</td></tr></table></div>"
        },
        "status": "final",
        "subject": {
          "reference": "urn:uuid:b33282d4-63fe-44c5-b460-db44eef3aea6",
          "display": "Θεμιστοκλής Λιναρδάκη"
        },
        "effectiveDateTime": "2023-02-01T06:16:00Z",
        "specimen": {
          "reference": "urn:uuid:adb7d503-f14b-46c0-9c71-c783ec2811c0"
        }
      }
    },
    {
      "fullUrl": "urn:uuid:82ceda05-004b-4263-841d-9ef4c7f4bd59",
      "resource": {
        "resourceType": "Observation",
        "id": "82ceda05-004b-4263-841d-9ef4c7f4bd59",
        "meta": {
          "profile": [
            "http://hl7.eu/fhir/laboratory/StructureDefinition/Observation-resultslab-eu-lab"
          ]
        },
        "performer": [
          {
            "display": "The Central European Lab"
          }
        ],
        "category": [
          {
            "coding": [
              {
                "system": "http://terminology.hl7.org/CodeSystem/observation-category",
                "code": "laboratory"
              }
            ]
          }
        ],
        "code": {
          "coding": [
            {
              "code": "2947-0",
              "system": "http://loinc.org",
              "display": "Sodium [Moles/volume] in Blood"
            }
          ],
          "text": "Sodium [Moles/volume] in Blood"
        },
        "valueQuantity": {
          "system": "http://unitsofmeasure.org",
          "value": 140.8,
          "unit": "mmol/L",
          "code": "mmol/L"
        },
        "referenceRange": [
          {
            "low": {
              "value": 135,
              "code": "mmol/L",
              "system": "http://unitsofmeasure.org"
            }
          },
          {
            "high": {
              "value": 145,
              "code": "mmol/L",
              "system": "http://unitsofmeasure.org"
            }
          }
        ],
        "text": {
          "status": "generated",
          "div": "<div xmlns=\"http://www.w3.org/1999/xhtml\"><table class=\"hl7__eu__lab__report\"><tr><th>Test</th><th>01-Feb-2023</th><th>Reference&#xA0;Range</th><th>Unit</th></tr><tr><td>Sodium [Moles/volume] in Blood</td><td>140.8</td><td>135 - 145</td><td></td><td>mmol/L</td></tr></table></div>"
        },
        "status": "final",
        "subject": {
          "reference": "urn:uuid:b33282d4-63fe-44c5-b460-db44eef3aea6",
          "display": "Θεμιστοκλής Λιναρδάκη"
        },
        "effectiveDateTime": "2023-02-01T06:16:00Z",
        "specimen": {
          "reference": "urn:uuid:adb7d503-f14b-46c0-9c71-c783ec2811c0"
        }
      }
    },
    {
      "fullUrl": "urn:uuid:07a323ac-2040-4b2d-8077-c98989c4cf7a",
      "resource": {
        "resourceType": "Observation",
        "id": "07a323ac-2040-4b2d-8077-c98989c4cf7a",
        "meta": {
          "profile": [
            "http://hl7.eu/fhir/laboratory/StructureDefinition/Observation-resultslab-eu-lab"
          ]
        },
        "performer": [
          {
            "display": "The Central European Lab"
          }
        ],
        "category": [
          {
            "coding": [
              {
                "system": "http://terminology.hl7.org/CodeSystem/observation-category",
                "code": "laboratory"
              }
            ]
          }
        ],
        "code": {
          "coding": [
            {
              "code": "6298-4",
              "system": "http://loinc.org",
              "display": "Potassium [Moles/volume] in Blood"
            }
          ],
          "text": "Potassium [Moles/volume] in Blood"
        },
        "valueQuantity": {
          "system": "http://unitsofmeasure.org",
          "value": 4.6,
          "unit": "mmol/L",
          "code": "mmol/L"
        },
        "referenceRange": [
          {
            "low": {
              "value": 3.5,
              "code": "mmol/L",
              "system": "http://unitsofmeasure.org"
            }
          },
          {
            "high": {
              "value": 5.3,
              "code": "mmol/L",
              "system": "http://unitsofmeasure.org"
            }
          }
        ],
        "text": {
          "status": "generated",
          "div": "<div xmlns=\"http://www.w3.org/1999/xhtml\"><table class=\"hl7__eu__lab__report\"><tr><th>Test</th><th>01-Feb-2023</th><th>Reference&#xA0;Range</th><th>Unit</th></tr><tr><td>Potassium [Moles/volume] in Blood</td><td>4.6</td><td>3.5 - 5.3</td><td></td><td>mmol/L</td></tr></table></div>"
        },
        "status": "final",
        "subject": {
          "reference": "urn:uuid:b33282d4-63fe-44c5-b460-db44eef3aea6",
          "display": "Θεμιστοκλής Λιναρδάκη"
        },
        "effectiveDateTime": "2023-02-01T06:16:00Z",
        "specimen": {
          "reference": "urn:uuid:adb7d503-f14b-46c0-9c71-c783ec2811c0"
        }
      }
    },
    {
      "fullUrl": "urn:uuid:3b0646a3-6464-43f9-97a1-58031e8de879",
      "resource": {
        "resourceType": "Observation",
        "id": "3b0646a3-6464-43f9-97a1-58031e8de879",
        "meta": {
          "profile": [
            "http://hl7.eu/fhir/laboratory/StructureDefinition/Observation-resultslab-eu-lab"
          ]
        },
        "performer": [
          {
            "display": "The Central European Lab"
          }
        ],
        "category": [
          {
            "coding": [
              {
                "system": "http://terminology.hl7.org/CodeSystem/observation-category",
                "code": "laboratory"
              }
            ]
          }
        ],
        "code": {
          "coding": [
            {
              "code": "2069-3",
              "system": "http://loinc.org",
              "display": "Chloride [Moles/volume] in Blood"
            }
          ],
          "text": "Chloride [Moles/volume] in Blood"
        },
        "valueQuantity": {
          "system": "http://unitsofmeasure.org",
          "value": 105.9,
          "unit": "mmol/L",
          "code": "mmol/L"
        },
        "referenceRange": [
          {
            "low": {
              "value": 98,
              "code": "mmol/L",
              "system": "http://unitsofmeasure.org"
            }
          },
          {
            "high": {
              "value": 110,
              "code": "mmol/L",
              "system": "http://unitsofmeasure.org"
            }
          }
        ],
        "text": {
          "status": "generated",
          "div": "<div xmlns=\"http://www.w3.org/1999/xhtml\"><table class=\"hl7__eu__lab__report\"><tr><th>Test</th><th>01-Feb-2023</th><th>Reference&#xA0;Range</th><th>Unit</th></tr><tr><td>Chloride [Moles/volume] in Blood</td><td>105.9</td><td>98 - 110</td><td></td><td>mmol/L</td></tr></table></div>"
        },
        "status": "final",
        "subject": {
          "reference": "urn:uuid:b33282d4-63fe-44c5-b460-db44eef3aea6",
          "display": "Θεμιστοκλής Λιναρδάκη"
        },
        "effectiveDateTime": "2023-02-01T06:16:00Z",
        "specimen": {
          "reference": "urn:uuid:adb7d503-f14b-46c0-9c71-c783ec2811c0"
        }
      }
    },
    {
      "fullUrl": "urn:uuid:842a94ec-3873-4500-a382-7d6f7c93ad7f",
      "resource": {
        "resourceType": "Observation",
        "id": "842a94ec-3873-4500-a382-7d6f7c93ad7f",
        "meta": {
          "profile": [
            "http://hl7.eu/fhir/laboratory/StructureDefinition/Observation-resultslab-eu-lab"
          ]
        },
        "performer": [
          {
            "display": "The Central European Lab"
          }
        ],
        "category": [
          {
            "coding": [
              {
                "system": "http://terminology.hl7.org/CodeSystem/observation-category",
                "code": "laboratory"
              }
            ]
          }
        ],
        "code": {
          "coding": [
            {
              "code": "20565-8",
              "system": "http://loinc.org",
              "display": "Carbon dioxide, total [Moles/volume] in Blood"
            }
          ],
          "text": "Carbon dioxide, total [Moles/volume] in Blood"
        },
        "valueQuantity": {
          "system": "http://unitsofmeasure.org",
          "value": 24.8,
          "unit": "mmol/L",
          "code": "mmol/L"
        },
        "referenceRange": [
          {
            "low": {
              "value": 22,
              "code": "mmol/L",
              "system": "http://unitsofmeasure.org"
            }
          },
          {
            "high": {
              "value": 29,
              "code": "mmol/L",
              "system": "http://unitsofmeasure.org"
            }
          }
        ],
        "text": {
          "status": "generated",
          "div": "<div xmlns=\"http://www.w3.org/1999/xhtml\"><table class=\"hl7__eu__lab__report\"><tr><th>Test</th><th>01-Feb-2023</th><th>Reference&#xA0;Range</th><th>Unit</th></tr><tr><td>Carbon dioxide, total [Moles/volume] in Blood</td><td>24.8</td><td>22 - 29</td><td></td><td>mmol/L</td></tr></table></div>"
        },
        "status": "final",
        "subject": {
          "reference": "urn:uuid:b33282d4-63fe-44c5-b460-db44eef3aea6",
          "display": "Θεμιστοκλής Λιναρδάκη"
        },
        "effectiveDateTime": "2023-02-01T06:16:00Z",
        "specimen": {
          "reference": "urn:uuid:adb7d503-f14b-46c0-9c71-c783ec2811c0"
        }
      }
    },
    {
      "fullUrl": "urn:uuid:5e9b50cd-6d21-423f-933c-d10c4c10207e",
      "resource": {
        "resourceType": "Device",
        "id": "5e9b50cd-6d21-423f-933c-d10c4c10207e",
        "deviceName": [
          {
            "name": "SYNDERAI Synthetic Generator",
            "type": "manufacturer-name"
          }
        ],
        "version": [
          {
            "value": "5.0"
          }
        ],
        "text": {
          "status": "generated",
          "div": "<div xmlns=\"http://www.w3.org/1999/xhtml\">SYNDERAI Synthetic Generator v5.0</div>"
        },
        "status": "active\"",
        "distinctIdentifier": "synderai-generator-50",
        "manufacturer": "SYNDERAI Project"
      }
    },
    {
      "fullUrl": "urn:uuid:c9b1513c-7fe8-41f5-9d79-397359a9e953",
      "resource": {
        "resourceType": "Provenance",
        "id": "c9b1513c-7fe8-41f5-9d79-397359a9e953",
        "target": [
          {
            "reference": "Patient/b33282d4-63fe-44c5-b460-db44eef3aea6"
          },
          {
            "reference": "Bundle/f1b17bd5-0bc8-4f40-8ed8-b389a5a34247"
          },
          {
            "reference": "Composition/95f55894-a7ac-4bdf-b184-96e746533cd4"
          },
          {
            "reference": "PractitionerRole/55c3f934-639d-48a5-8d5b-a2ab01757a08"
          },
          {
            "reference": "Practitioner/f495da27-d672-475c-ae6e-873d38969efc"
          },
          {
            "reference": "PractitionerRole/58acbe5c-9f10-4e42-bce7-2cd11e765d04"
          },
          {
            "reference": "Organization/29fff100-0be7-4e28-809d-5e1151b3118d"
          }
        ],
        "activity": {
          "text": "Synthetic Example Data Generation"
        },
        "policy": [
          "https://synderai.net/synderai-synthetic-data-policy"
        ],
        "agent": [
          {
            "type": {
              "text": "author"
            },
            "who": {
              "reference": "Device/5e9b50cd-6d21-423f-933c-d10c4c10207e"
            }
          }
        ],
        "reason": [
          {
            "text": "Interoperability Testing and Training (non-clinical use)"
          }
        ],
        "text": {
          "status": "generated",
          "div": "<div xmlns=\"http://www.w3.org/1999/xhtml\">Provenance for SYNDERAI Synthetic Example Data Resource</div>"
        },
        "recorded": "2023-02-01T07:16:00Z"
      }
    },
    {
      "fullUrl": "urn:uuid:55c3f934-639d-48a5-8d5b-a2ab01757a08",
      "resource": {
        "resourceType": "PractitionerRole",
        "id": "55c3f934-639d-48a5-8d5b-a2ab01757a08",
        "meta": {
          "profile": [
            "http://hl7.eu/fhir/base/StructureDefinition/practitionerRole-eu"
          ]
        },
        "text": {
          "status": "generated",
          "div": "<div xmlns=\"http://www.w3.org/1999/xhtml\">Laboratory Role Id: 55c3f934-639d-48a5-8d5b-a2ab01757a08</div>"
        },
        "practitioner": {
          "reference": "urn:uuid:f495da27-d672-475c-ae6e-873d38969efc"
        }
      }
    },
    {
      "fullUrl": "urn:uuid:f495da27-d672-475c-ae6e-873d38969efc",
      "resource": {
        "resourceType": "Practitioner",
        "id": "f495da27-d672-475c-ae6e-873d38969efc",
        "meta": {
          "profile": [
            "http://hl7.eu/fhir/base/StructureDefinition/practitioner-eu"
          ]
        },
        "identifier": [
          {
            "assigner": {
              "display": "HL7 Europe"
            },
            "system": "urn:oid:2.16.840.1.113883.2.51.999",
            "value": "99b712f4-2dfd-410f-b0b5-9e54f6219a84"
          }
        ],
        "name": [
          {
            "prefix": [
              "dr"
            ],
            "given": [
              "Ex"
            ],
            "family": "Ample"
          }
        ],
        "address": [
          {
            "line": [
              "Laboratoire Central Européenne",
              "Boulevard du Jardin Botanique 32"
            ],
            "postalCode": "1000",
            "city": "Brussels",
            "country": "Belgium"
          }
        ],
        "text": {
          "status": "generated",
          "div": "<div xmlns=\"http://www.w3.org/1999/xhtml\">Laboratory: Laboratoire Central Européenne, 1000 Brussels, Belgium</div>"
        }
      }
    }
  ],
  "type": "document",
  "timestamp": "2023-02-01T07:16:00Z"
}
