{
  "resourceType": "Bundle",
  "id": "63bb673c-5149-4fed-8f50-4a7a4a4976f7",
  "meta": {
    "profile": [
      "http://hl7.eu/fhir/laboratory/StructureDefinition/Bundle-eu-lab"
    ]
  },
  "identifier": {
    "assigner": {
      "display": "HL7 Europe"
    },
    "system": "urn:oid:2.16.840.1.113883.2.51.999",
    "value": "aba94ab5-c836-4272-8eb9-b2b251627da6"
  },
  "entry": [
    {
      "fullUrl": "urn:uuid:c8678f48-5ee7-4a8a-91ad-be108141f5f8",
      "resource": {
        "resourceType": "Composition",
        "id": "c8678f48-5ee7-4a8a-91ad-be108141f5f8",
        "meta": {
          "profile": [
            "http://hl7.eu/fhir/laboratory/StructureDefinition/Composition-eu-lab"
          ]
        },
        "identifier": {
          "assigner": {
            "display": "HL7 Europe"
          },
          "system": "urn:oid:2.16.840.1.113883.2.51.999",
          "value": "830bd92e-1338-4030-aa04-94e8a9a07c35"
        },
        "author": [
          {
            "reference": "urn:uuid:fe731aa5-98d7-42fb-8e28-8b2858e516ca"
          }
        ],
        "category": [
          {
            "coding": [
              {
                "code": "26436-6",
                "system": "http://loinc.org",
                "display": "Laboratory studies (set)"
              }
            ]
          }
        ],
        "type": {
          "coding": [
            {
              "code": "11502-2",
              "system": "http://loinc.org",
              "display": "Laboratory report"
            }
          ],
          "text": "Laboratory Report"
        },
        "section": [
          {
            "code": {
              "coding": [
                {
                  "code": "26436-6",
                  "system": "http://loinc.org",
                  "display": "Laboratory studies (set)"
                }
              ],
              "text": "Laboratory studies"
            },
            "section": [
              {
                "code": {
                  "coding": [
                    {
                      "code": "$18719-5",
                      "system": "http://loinc.org",
                      "display": "Chemistry studies (set)"
                    }
                  ],
                  "text": "Chemistry"
                },
                "entry": [
                  {
                    "reference": "urn:uuid:30f57a35-8a17-4d80-ac55-21fc96ef5b12"
                  },
                  {
                    "reference": "urn:uuid:0bccb390-1972-426a-b83f-ba0139319241"
                  },
                  {
                    "reference": "urn:uuid:69e4c5fb-2b13-4c79-bab3-37e0a8674d30"
                  },
                  {
                    "reference": "urn:uuid:12e44352-4aac-467c-89c6-072e749bae1d"
                  }
                ],
                "text": {
                  "status": "generated",
                  "div": "<div xmlns=\"http://www.w3.org/1999/xhtml\"><h3>Chemistry</h3><table class=\"hl7__eu__lab__report\"><thead><tr><th>Test</th><th>16-DEC-2018</th><th>Reference&#xA0;Range</th><th>Unit</th></tr></thead><tbody><tr><td>Cholesterol [Mass/volume] in Serum or Plasma</td><td>185.5</td><td>0 - 200</td><td>mg/dL</td></tr><tr><td>Triglyceride [Mass/volume] in Serum or Plasma</td><td>141.5</td><td>0 - 150</td><td>mg/dL</td></tr><tr><td>Cholesterol in LDL [Mass/volume] in Serum or Plasma by Direct assay</td><td>94.7</td><td>0 - 130</td><td>mg/dL</td></tr><tr><td>Cholesterol in HDL [Mass/volume] in Serum or Plasma</td><td><strong>62.5 H</strong></td><td>40 - 60</td><td>mg/dL</td></tr></tbody></table></div>"
                },
                "title": "Chemistry"
              }
            ],
            "title": "Laboratory Report"
          },
          {
            "text": {
              "status": "generated",
              "div": "<div xmlns=\"http://www.w3.org/1999/xhtml\"><h3>Annotation</h3><table class=\"hl7__eu__lab__report\"><tr><th>Conclusion and Recommendations based on this report and previous findings known to us</th></tr><tr><td>Lipid profile is within or close to normal limits: total cholesterol, triglycerides, and LDL are in the desirable range. HDL is slightly elevated, which is generally considered protective. No significant laboratory abnormalities detected; results are favorable from a cardiovascular risk perspective. Recommend continued healthy lifestyle.</td></tr></table></div>"
            },
            "code": {
              "coding": [
                {
                  "system": "http://loinc.org",
                  "code": "48767-8",
                  "display": "Annotation comment"
                }
              ]
            },
            "title": "Annotation comment"
          }
        ],
        "status": "final",
        "subject": {
          "reference": "urn:uuid:f74d6472-2c65-4e21-9d53-5363c9664b7c",
          "display": "Russell Khan"
        },
        "date": "2018-12-16T14:31:07Z",
        "title": "Laboratory Report",
        "confidentiality": "N"
      }
    },
    {
      "fullUrl": "urn:uuid:66661af4-d321-4207-afd8-33ebb9089440",
      "resource": {
        "resourceType": "DiagnosticReport",
        "id": "66661af4-d321-4207-afd8-33ebb9089440",
        "meta": {
          "profile": [
            "http://hl7.eu/fhir/laboratory/StructureDefinition/DiagnosticReport-eu-lab"
          ]
        },
        "identifier": [
          {
            "assigner": {
              "display": "HL7 Europe"
            },
            "system": "urn:oid:2.16.840.1.113883.2.51.999",
            "value": "0c8dea8d-ccc5-4751-aba5-ebb23194a756"
          }
        ],
        "extension": [
          {
            "url": "http://hl7.org/fhir/5.0/StructureDefinition/extension-DiagnosticReport.composition",
            "valueReference": {
              "reference": "urn:uuid:830bd92e-1338-4030-aa04-94e8a9a07c35"
            }
          }
        ],
        "category": [
          {
            "coding": [
              {
                "code": "26436-6",
                "system": "http://loinc.org",
                "display": "Laboratory studies (set)"
              }
            ]
          }
        ],
        "specimen": [
          {
            "reference": "urn:uuid:5283f74e-7f4e-4295-b967-cbcb44e70683"
          }
        ],
        "result": [
          {
            "reference": "urn:uuid:30f57a35-8a17-4d80-ac55-21fc96ef5b12"
          },
          {
            "reference": "urn:uuid:0bccb390-1972-426a-b83f-ba0139319241"
          },
          {
            "reference": "urn:uuid:69e4c5fb-2b13-4c79-bab3-37e0a8674d30"
          },
          {
            "reference": "urn:uuid:12e44352-4aac-467c-89c6-072e749bae1d"
          }
        ],
        "status": "registered",
        "code": {
          "coding": [
            {
              "code": "11502-2",
              "system": "http://loinc.org",
              "display": "Laboratory report"
            }
          ]
        },
        "subject": {
          "reference": "urn:uuid:f74d6472-2c65-4e21-9d53-5363c9664b7c",
          "display": "Russell Khan"
        }
      }
    },
    {
      "fullUrl": "urn:uuid:f74d6472-2c65-4e21-9d53-5363c9664b7c",
      "resource": {
        "resourceType": "Patient",
        "id": "f74d6472-2c65-4e21-9d53-5363c9664b7c",
        "meta": {
          "security": [
            {
              "system": "http://terminology.hl7.org/CodeSystem/v3-ActReason",
              "code": "HTEST"
            },
            {
              "system": "http://terminology.hl7.org/CodeSystem/v3-ActReason",
              "code": "TRAIN"
            }
          ],
          "tag": [
            {
              "system": "https://synderai.net/fhir/CodeSystem/tags",
              "code": "synthetic",
              "display": "SYNDERAI Synthetic data"
            }
          ],
          "profile": [
            "http://hl7.eu/fhir/base/StructureDefinition/patient-eu-core"
          ]
        },
        "identifier": [
          {
            "type": {
              "coding": [
                {
                  "code": "PT",
                  "system": "http://terminology.hl7.org/CodeSystem/v2-0203"
                }
              ]
            },
            "system": "http://ec.europa.eu/identifier/eci",
            "value": "7982-255119-2"
          },
          {
            "type": {
              "coding": [
                {
                  "code": "MR",
                  "system": "http://terminology.hl7.org/CodeSystem/v2-0203"
                }
              ]
            },
            "system": "http://local.setting.eu/identifier",
            "value": "7070b0e2-4aa2-c981-d552-92289a13285c"
          }
        ],
        "name": [
          {
            "family": "Khan"
          },
          {
            "given": [
              "Russell"
            ]
          },
          {
            "text": "Russell Khan"
          }
        ],
        "address": [
          {
            "line": [
              "1 Holly well"
            ],
            "use": "home",
            "type": "physical",
            "postalCode": "B9",
            "city": "Allantown",
            "country": "United Kingdom"
          }
        ],
        "telecom": [
          {
            "system": "phone",
            "value": "0115 4960345"
          }
        ],
        "extension": [
          {
            "url": "http://hl7.org/fhir/StructureDefinition/patient-nationality",
            "valueCodeableConcept": {
              "coding": [
                {
                  "code": "GB",
                  "system": "http://hl7.org/fhir/ValueSet/country"
                }
              ]
            }
          }
        ],
        "text": {
          "status": "generated",
          "div": "<div xmlns=\"http://www.w3.org/1999/xhtml\"><table class=\"hl7__ips\"><tr><td>Russell Khan</td><td>male</td><td>29-Aug-1980</td></tr></table></div>"
        },
        "gender": "male",
        "birthDate": "1980-08-29"
      }
    },
    {
      "fullUrl": "urn:uuid:1cc1a025-6595-493a-a514-a107361b7376",
      "resource": {
        "resourceType": "ServiceRequest",
        "id": "1cc1a025-6595-493a-a514-a107361b7376",
        "meta": {
          "profile": [
            "http://hl7.eu/fhir/laboratory/StructureDefinition/ServiceRequest-eu-lab"
          ]
        },
        "identifier": [
          {
            "system": "http://example.org",
            "value": "db39e50b-242d-4649-b5cb-ea5e4fefa807"
          }
        ],
        "specimen": [
          {
            "reference": "urn:uuid:5283f74e-7f4e-4295-b967-cbcb44e70683"
          }
        ],
        "reasonCode": [
          {
            "coding": [
              {
                "code": "59621000",
                "system": "http://snomed.info/sct",
                "display": "Essential hypertension"
              }
            ]
          }
        ],
        "status": "active",
        "intent": "order",
        "code": {
          "coding": [
            {
              "code": "108252007",
              "system": "http://snomed.info/sct",
              "display": "Laboratory procedure"
            }
          ]
        },
        "subject": {
          "reference": "urn:uuid:f74d6472-2c65-4e21-9d53-5363c9664b7c",
          "display": "Russell Khan"
        },
        "requester": {
          "reference": "urn:uuid:c8fd8d1c-a255-48e6-8687-ae4d7b4e4eb1"
        }
      }
    },
    {
      "fullUrl": "urn:uuid:c8fd8d1c-a255-48e6-8687-ae4d7b4e4eb1",
      "resource": {
        "resourceType": "PractitionerRole",
        "id": "c8fd8d1c-a255-48e6-8687-ae4d7b4e4eb1",
        "meta": {
          "profile": [
            "http://hl7.eu/fhir/base/StructureDefinition/practitionerRole-eu"
          ]
        },
        "text": {
          "status": "generated",
          "div": "<div xmlns=\"http://www.w3.org/1999/xhtml\">Provider Role Id: c8fd8d1c-a255-48e6-8687-ae4d7b4e4eb1</div>"
        },
        "organization": {
          "reference": "urn:uuid:49570a8d-0450-4de3-97ce-47ac19648cc1"
        }
      }
    },
    {
      "fullUrl": "urn:uuid:49570a8d-0450-4de3-97ce-47ac19648cc1",
      "resource": {
        "resourceType": "Organization",
        "id": "49570a8d-0450-4de3-97ce-47ac19648cc1",
        "meta": {
          "profile": [
            "http://hl7.eu/fhir/base/StructureDefinition/organization-eu"
          ]
        },
        "identifier": [
          {
            "assigner": {
              "display": "HL7 Europe"
            },
            "system": "urn:oid:2.16.840.1.113883.2.51.999",
            "value": "2896d9c1-a87c-42ca-bb85-3083bbc44dfd"
          }
        ],
        "address": [
          {
            "city": "Birmingham",
            "postalCode": "B4 6",
            "country": "United Kingdom"
          }
        ],
        "text": {
          "status": "generated",
          "div": "<div xmlns=\"http://www.w3.org/1999/xhtml\">Provider Organization: Birmingham Children&#039;s Hospital</div>"
        },
        "name": "Birmingham Children&#039;s Hospital"
      }
    },
    {
      "fullUrl": "urn:uuid:5283f74e-7f4e-4295-b967-cbcb44e70683",
      "resource": {
        "resourceType": "Specimen",
        "id": "5283f74e-7f4e-4295-b967-cbcb44e70683",
        "meta": {
          "profile": [
            "http://hl7.eu/fhir/laboratory/StructureDefinition/Specimen-eu-lab"
          ]
        },
        "collection": {
          "collectedDateTime": "2018-12-16"
        },
        "text": {
          "status": "generated",
          "div": "<div xmlns=\"http://www.w3.org/1999/xhtml\"><table class=\"hl7__eu__lab__report\"><tr><th>Specimen</th><th>Collection Date</th></tr><tr><td>Acellular blood (serum or plasma) specimen</td><td><span class=\"nb\">16-Dec-2018</span></td></tr></table></div>"
        },
        "type": {
          "coding": [
            {
              "code": "122592007",
              "system": "http://snomed.info/sct",
              "display": "Acellular blood (serum or plasma) specimen"
            }
          ]
        }
      }
    },
    {
      "fullUrl": "urn:uuid:30f57a35-8a17-4d80-ac55-21fc96ef5b12",
      "resource": {
        "resourceType": "Observation",
        "id": "30f57a35-8a17-4d80-ac55-21fc96ef5b12",
        "meta": {
          "profile": [
            "http://hl7.eu/fhir/laboratory/StructureDefinition/Observation-resultslab-eu-lab"
          ]
        },
        "performer": [
          {
            "display": "The Central European Lab"
          }
        ],
        "category": [
          {
            "coding": [
              {
                "system": "http://terminology.hl7.org/CodeSystem/observation-category",
                "code": "laboratory"
              }
            ]
          }
        ],
        "code": {
          "coding": [
            {
              "code": "2093-3",
              "system": "http://loinc.org",
              "display": "Cholesterol [Mass/volume] in Serum or Plasma"
            }
          ],
          "text": "Cholesterol [Mass/volume] in Serum or Plasma"
        },
        "valueQuantity": {
          "system": "http://unitsofmeasure.org",
          "value": 185.5,
          "unit": "mg/dL",
          "code": "mg/dL"
        },
        "referenceRange": [
          {
            "low": {
              "value": 0,
              "code": "mg/dL",
              "system": "http://unitsofmeasure.org"
            }
          },
          {
            "high": {
              "value": 200,
              "code": "mg/dL",
              "system": "http://unitsofmeasure.org"
            }
          }
        ],
        "text": {
          "status": "generated",
          "div": "<div xmlns=\"http://www.w3.org/1999/xhtml\"><table class=\"hl7__eu__lab__report\"><tr><th>Test</th><th>16-Dec-2018</th><th>Reference&#xA0;Range</th><th>Unit</th></tr><tr><td>Cholesterol [Mass/volume] in Serum or Plasma</td><td>185.5</td><td>0 - 200</td><td></td><td>mg/dL</td></tr></table></div>"
        },
        "status": "final",
        "subject": {
          "reference": "urn:uuid:f74d6472-2c65-4e21-9d53-5363c9664b7c",
          "display": "Russell Khan"
        },
        "effectiveDateTime": "2018-12-16T13:31:07Z",
        "specimen": {
          "reference": "urn:uuid:5283f74e-7f4e-4295-b967-cbcb44e70683"
        }
      }
    },
    {
      "fullUrl": "urn:uuid:0bccb390-1972-426a-b83f-ba0139319241",
      "resource": {
        "resourceType": "Observation",
        "id": "0bccb390-1972-426a-b83f-ba0139319241",
        "meta": {
          "profile": [
            "http://hl7.eu/fhir/laboratory/StructureDefinition/Observation-resultslab-eu-lab"
          ]
        },
        "performer": [
          {
            "display": "The Central European Lab"
          }
        ],
        "category": [
          {
            "coding": [
              {
                "system": "http://terminology.hl7.org/CodeSystem/observation-category",
                "code": "laboratory"
              }
            ]
          }
        ],
        "code": {
          "coding": [
            {
              "code": "2571-8",
              "system": "http://loinc.org",
              "display": "Triglyceride [Mass/volume] in Serum or Plasma"
            }
          ],
          "text": "Triglyceride [Mass/volume] in Serum or Plasma"
        },
        "valueQuantity": {
          "system": "http://unitsofmeasure.org",
          "value": 141.5,
          "unit": "mg/dL",
          "code": "mg/dL"
        },
        "referenceRange": [
          {
            "low": {
              "value": 0,
              "code": "mg/dL",
              "system": "http://unitsofmeasure.org"
            }
          },
          {
            "high": {
              "value": 150,
              "code": "mg/dL",
              "system": "http://unitsofmeasure.org"
            }
          }
        ],
        "text": {
          "status": "generated",
          "div": "<div xmlns=\"http://www.w3.org/1999/xhtml\"><table class=\"hl7__eu__lab__report\"><tr><th>Test</th><th>16-Dec-2018</th><th>Reference&#xA0;Range</th><th>Unit</th></tr><tr><td>Triglyceride [Mass/volume] in Serum or Plasma</td><td>141.5</td><td>0 - 150</td><td></td><td>mg/dL</td></tr></table></div>"
        },
        "status": "final",
        "subject": {
          "reference": "urn:uuid:f74d6472-2c65-4e21-9d53-5363c9664b7c",
          "display": "Russell Khan"
        },
        "effectiveDateTime": "2018-12-16T13:31:07Z",
        "specimen": {
          "reference": "urn:uuid:5283f74e-7f4e-4295-b967-cbcb44e70683"
        }
      }
    },
    {
      "fullUrl": "urn:uuid:69e4c5fb-2b13-4c79-bab3-37e0a8674d30",
      "resource": {
        "resourceType": "Observation",
        "id": "69e4c5fb-2b13-4c79-bab3-37e0a8674d30",
        "meta": {
          "profile": [
            "http://hl7.eu/fhir/laboratory/StructureDefinition/Observation-resultslab-eu-lab"
          ]
        },
        "performer": [
          {
            "display": "The Central European Lab"
          }
        ],
        "category": [
          {
            "coding": [
              {
                "system": "http://terminology.hl7.org/CodeSystem/observation-category",
                "code": "laboratory"
              }
            ]
          }
        ],
        "code": {
          "coding": [
            {
              "code": "18262-6",
              "system": "http://loinc.org",
              "display": "Cholesterol in LDL [Mass/volume] in Serum or Plasma by Direct assay"
            }
          ],
          "text": "Cholesterol in LDL [Mass/volume] in Serum or Plasma by Direct assay"
        },
        "valueQuantity": {
          "system": "http://unitsofmeasure.org",
          "value": 94.7,
          "unit": "mg/dL",
          "code": "mg/dL"
        },
        "referenceRange": [
          {
            "low": {
              "value": 0,
              "code": "mg/dL",
              "system": "http://unitsofmeasure.org"
            }
          },
          {
            "high": {
              "value": 130,
              "code": "mg/dL",
              "system": "http://unitsofmeasure.org"
            }
          }
        ],
        "text": {
          "status": "generated",
          "div": "<div xmlns=\"http://www.w3.org/1999/xhtml\"><table class=\"hl7__eu__lab__report\"><tr><th>Test</th><th>16-Dec-2018</th><th>Reference&#xA0;Range</th><th>Unit</th></tr><tr><td>Cholesterol in LDL [Mass/volume] in Serum or Plasma by Direct assay</td><td>94.7</td><td>0 - 130</td><td></td><td>mg/dL</td></tr></table></div>"
        },
        "status": "final",
        "subject": {
          "reference": "urn:uuid:f74d6472-2c65-4e21-9d53-5363c9664b7c",
          "display": "Russell Khan"
        },
        "effectiveDateTime": "2018-12-16T13:31:07Z",
        "specimen": {
          "reference": "urn:uuid:5283f74e-7f4e-4295-b967-cbcb44e70683"
        }
      }
    },
    {
      "fullUrl": "urn:uuid:12e44352-4aac-467c-89c6-072e749bae1d",
      "resource": {
        "resourceType": "Observation",
        "id": "12e44352-4aac-467c-89c6-072e749bae1d",
        "meta": {
          "profile": [
            "http://hl7.eu/fhir/laboratory/StructureDefinition/Observation-resultslab-eu-lab"
          ]
        },
        "performer": [
          {
            "display": "The Central European Lab"
          }
        ],
        "category": [
          {
            "coding": [
              {
                "system": "http://terminology.hl7.org/CodeSystem/observation-category",
                "code": "laboratory"
              }
            ]
          }
        ],
        "code": {
          "coding": [
            {
              "code": "2085-9",
              "system": "http://loinc.org",
              "display": "Cholesterol in HDL [Mass/volume] in Serum or Plasma"
            }
          ],
          "text": "Cholesterol in HDL [Mass/volume] in Serum or Plasma"
        },
        "valueQuantity": {
          "system": "http://unitsofmeasure.org",
          "value": 62.5,
          "unit": "mg/dL",
          "code": "mg/dL"
        },
        "referenceRange": [
          {
            "low": {
              "value": 40,
              "code": "mg/dL",
              "system": "http://unitsofmeasure.org"
            }
          },
          {
            "high": {
              "value": 60,
              "code": "mg/dL",
              "system": "http://unitsofmeasure.org"
            }
          }
        ],
        "interpretation": [
          {
            "coding": [
              {
                "code": "H",
                "system": "http://terminology.hl7.org/CodeSystem/v3-ObservationInterpretation",
                "display": "High"
              }
            ]
          }
        ],
        "text": {
          "status": "generated",
          "div": "<div xmlns=\"http://www.w3.org/1999/xhtml\"><table class=\"hl7__eu__lab__report\"><tr><th>Test</th><th>16-Dec-2018</th><th>Reference&#xA0;Range</th><th>Unit</th></tr><tr><td>Cholesterol in HDL [Mass/volume] in Serum or Plasma</td><td>62.5</td><td>40 - 60</td><td>H</td><td>mg/dL</td></tr></table></div>"
        },
        "status": "final",
        "subject": {
          "reference": "urn:uuid:f74d6472-2c65-4e21-9d53-5363c9664b7c",
          "display": "Russell Khan"
        },
        "effectiveDateTime": "2018-12-16T13:31:07Z",
        "specimen": {
          "reference": "urn:uuid:5283f74e-7f4e-4295-b967-cbcb44e70683"
        }
      }
    },
    {
      "fullUrl": "urn:uuid:1441211d-860f-4827-830d-bd2a982506dc",
      "resource": {
        "resourceType": "Device",
        "id": "1441211d-860f-4827-830d-bd2a982506dc",
        "deviceName": [
          {
            "name": "SYNDERAI Synthetic Generator",
            "type": "manufacturer-name"
          }
        ],
        "version": [
          {
            "value": "5.0"
          }
        ],
        "text": {
          "status": "generated",
          "div": "<div xmlns=\"http://www.w3.org/1999/xhtml\">SYNDERAI Synthetic Generator v5.0</div>"
        },
        "status": "active\"",
        "distinctIdentifier": "synderai-generator-50",
        "manufacturer": "SYNDERAI Project"
      }
    },
    {
      "fullUrl": "urn:uuid:c4b8dbd9-598c-47a7-ac8e-c504dca2345e",
      "resource": {
        "resourceType": "Provenance",
        "id": "c4b8dbd9-598c-47a7-ac8e-c504dca2345e",
        "target": [
          {
            "reference": "Patient/f74d6472-2c65-4e21-9d53-5363c9664b7c"
          },
          {
            "reference": "Bundle/63bb673c-5149-4fed-8f50-4a7a4a4976f7"
          },
          {
            "reference": "Composition/c8678f48-5ee7-4a8a-91ad-be108141f5f8"
          },
          {
            "reference": "PractitionerRole/fe731aa5-98d7-42fb-8e28-8b2858e516ca"
          },
          {
            "reference": "Practitioner/9cddb12d-143d-4567-b030-ecdfe916b300"
          },
          {
            "reference": "PractitionerRole/c8fd8d1c-a255-48e6-8687-ae4d7b4e4eb1"
          },
          {
            "reference": "Organization/49570a8d-0450-4de3-97ce-47ac19648cc1"
          }
        ],
        "activity": {
          "text": "Synthetic Example Data Generation"
        },
        "policy": [
          "https://synderai.net/synderai-synthetic-data-policy"
        ],
        "agent": [
          {
            "type": {
              "text": "author"
            },
            "who": {
              "reference": "Device/1441211d-860f-4827-830d-bd2a982506dc"
            }
          }
        ],
        "reason": [
          {
            "text": "Interoperability Testing and Training (non-clinical use)"
          }
        ],
        "text": {
          "status": "generated",
          "div": "<div xmlns=\"http://www.w3.org/1999/xhtml\">Provenance for SYNDERAI Synthetic Example Data Resource</div>"
        },
        "recorded": "2018-12-16T14:31:07Z"
      }
    },
    {
      "fullUrl": "urn:uuid:fe731aa5-98d7-42fb-8e28-8b2858e516ca",
      "resource": {
        "resourceType": "PractitionerRole",
        "id": "fe731aa5-98d7-42fb-8e28-8b2858e516ca",
        "meta": {
          "profile": [
            "http://hl7.eu/fhir/base/StructureDefinition/practitionerRole-eu"
          ]
        },
        "text": {
          "status": "generated",
          "div": "<div xmlns=\"http://www.w3.org/1999/xhtml\">Laboratory Role Id: fe731aa5-98d7-42fb-8e28-8b2858e516ca</div>"
        },
        "practitioner": {
          "reference": "urn:uuid:9cddb12d-143d-4567-b030-ecdfe916b300"
        }
      }
    },
    {
      "fullUrl": "urn:uuid:9cddb12d-143d-4567-b030-ecdfe916b300",
      "resource": {
        "resourceType": "Practitioner",
        "id": "9cddb12d-143d-4567-b030-ecdfe916b300",
        "meta": {
          "profile": [
            "http://hl7.eu/fhir/base/StructureDefinition/practitioner-eu"
          ]
        },
        "identifier": [
          {
            "assigner": {
              "display": "HL7 Europe"
            },
            "system": "urn:oid:2.16.840.1.113883.2.51.999",
            "value": "66ae3493-d423-48e2-8430-d05312b74a1c"
          }
        ],
        "name": [
          {
            "prefix": [
              "dr"
            ],
            "given": [
              "Ex"
            ],
            "family": "Ample"
          }
        ],
        "address": [
          {
            "line": [
              "Laboratoire Central Européenne",
              "Boulevard du Jardin Botanique 32"
            ],
            "postalCode": "1000",
            "city": "Brussels",
            "country": "Belgium"
          }
        ],
        "text": {
          "status": "generated",
          "div": "<div xmlns=\"http://www.w3.org/1999/xhtml\">Laboratory: Laboratoire Central Européenne, 1000 Brussels, Belgium</div>"
        }
      }
    }
  ],
  "type": "document",
  "timestamp": "2018-12-16T14:31:07Z"
}
