{
  "resourceType": "Bundle",
  "id": "22b3bc68-6b52-47aa-bf8a-757478866e6c",
  "meta": {
    "profile": [
      "http://hl7.eu/fhir/laboratory/StructureDefinition/Bundle-eu-lab"
    ]
  },
  "identifier": {
    "assigner": {
      "display": "HL7 Europe"
    },
    "system": "urn:oid:2.16.840.1.113883.2.51.999",
    "value": "ae654700-9986-4822-b89a-500db3b59e5c"
  },
  "entry": [
    {
      "fullUrl": "urn:uuid:61eb857c-75f4-448e-b64b-aa755fcca94f",
      "resource": {
        "resourceType": "Composition",
        "id": "61eb857c-75f4-448e-b64b-aa755fcca94f",
        "meta": {
          "profile": [
            "http://hl7.eu/fhir/laboratory/StructureDefinition/Composition-eu-lab"
          ]
        },
        "identifier": {
          "assigner": {
            "display": "HL7 Europe"
          },
          "system": "urn:oid:2.16.840.1.113883.2.51.999",
          "value": "2eb1f29f-1190-4d36-b307-a66c24021966"
        },
        "author": [
          {
            "reference": "urn:uuid:a30300e6-142a-41d4-a872-2424615fe457"
          }
        ],
        "category": [
          {
            "coding": [
              {
                "code": "26436-6",
                "system": "http://loinc.org",
                "display": "Laboratory studies (set)"
              }
            ]
          }
        ],
        "type": {
          "coding": [
            {
              "code": "11502-2",
              "system": "http://loinc.org",
              "display": "Laboratory report"
            }
          ],
          "text": "Laboratory Report"
        },
        "section": [
          {
            "code": {
              "coding": [
                {
                  "code": "26436-6",
                  "system": "http://loinc.org",
                  "display": "Laboratory studies (set)"
                }
              ],
              "text": "Laboratory studies"
            },
            "section": [
              {
                "code": {
                  "coding": [
                    {
                      "code": "$18719-5",
                      "system": "http://loinc.org",
                      "display": "Chemistry studies (set)"
                    }
                  ],
                  "text": "Chemistry"
                },
                "entry": [
                  {
                    "reference": "urn:uuid:50551c88-e50d-4b84-a8a0-be6aa4b612ac"
                  },
                  {
                    "reference": "urn:uuid:a788fc49-44b2-4505-ae5c-ef18f008893f"
                  },
                  {
                    "reference": "urn:uuid:7ffb2f46-1160-4556-a662-0e670355ab7e"
                  },
                  {
                    "reference": "urn:uuid:f8fc4886-742f-47db-b2a8-e7db1716adab"
                  },
                  {
                    "reference": "urn:uuid:7854ebbb-4c82-4b13-a5be-3ce25a1584e3"
                  },
                  {
                    "reference": "urn:uuid:49c4be5a-30a1-405c-88d1-0195131b3139"
                  },
                  {
                    "reference": "urn:uuid:cffc9b1f-feac-4878-b7a3-a5b2b1968e2f"
                  },
                  {
                    "reference": "urn:uuid:a4471532-0446-4dbc-bdce-7837d6797149"
                  },
                  {
                    "reference": "urn:uuid:1c69e32a-6637-401c-912c-2ee433e2536b"
                  },
                  {
                    "reference": "urn:uuid:7d86f66e-9d39-4c78-bf28-c0154dbb6783"
                  },
                  {
                    "reference": "urn:uuid:badd11fd-016a-4e6c-afa2-eb6feeae7092"
                  },
                  {
                    "reference": "urn:uuid:50387b41-bc66-48d9-b582-215bfa53d48e"
                  },
                  {
                    "reference": "urn:uuid:44c63c65-087a-4d91-8e69-12d9b64db3a2"
                  },
                  {
                    "reference": "urn:uuid:9a8967e2-0fcf-4bd2-8f62-03c54e6f162f"
                  },
                  {
                    "reference": "urn:uuid:01beeaa0-acdd-489d-af93-a2c79d2f3d58"
                  },
                  {
                    "reference": "urn:uuid:4adcd7dc-3abf-44f4-9af0-9cbbd967f079"
                  },
                  {
                    "reference": "urn:uuid:1ef403ca-b366-4ec4-bc47-605d3b861b6c"
                  },
                  {
                    "reference": "urn:uuid:3b5846ad-b5f3-464c-93a9-be5308e48689"
                  }
                ],
                "text": {
                  "status": "generated",
                  "div": "<div xmlns=\"http://www.w3.org/1999/xhtml\"><h3>Chemistry</h3><table class=\"hl7__eu__lab__report\"><thead><tr><th>Test</th><th>18-JUN-2025</th><th>Reference&#xA0;Range</th><th>Unit</th></tr></thead><tbody><tr><td>Glucose [Mass/volume] in Serum or Plasma</td><td><strong>68.6 L</strong></td><td>70 - 140</td><td>mg/dL</td></tr><tr><td>Urea nitrogen [Mass/volume] in Serum or Plasma</td><td>19.4</td><td>7 - 20</td><td>mg/dL</td></tr><tr><td>Creatinine [Mass/volume] in Serum or Plasma</td><td><strong>2.0 H</strong></td><td>0.9 - 1.3</td><td>mg/dL</td></tr><tr><td>Calcium [Mass/volume] in Serum or Plasma</td><td>10.2</td><td>8.5 - 10.5</td><td>mg/dL</td></tr><tr><td>Sodium [Moles/volume] in Serum or Plasma</td><td>137.6</td><td>135 - 145</td><td>mmol/L</td></tr><tr><td>Potassium [Moles/volume] in Serum or Plasma</td><td>4.1</td><td>3.5 - 5</td><td>mmol/L</td></tr><tr><td>Chloride [Moles/volume] in Serum or Plasma</td><td><strong>109.1 H</strong></td><td>98 - 108</td><td>mmol/L</td></tr><tr><td>Carbon dioxide, total [Moles/volume] in Serum or Plasma</td><td><strong>21.8 L</strong></td><td>22 - 29</td><td>mmol/L</td></tr><tr><td>Ketones [Presence] in Urine by Test strip</td><td>Urine ketone test = ++</td><td></td><td></td></tr><tr><td>Hemoglobin A1c/Hemoglobin.total in Blood</td><td><strong>3.0 L</strong></td><td>4.3 - 6.4</td><td>%</td></tr><tr><td>Glucose [Mass/volume] in Blood</td><td><strong>68.6 L</strong></td><td>70 - 140</td><td>mg/dL</td></tr><tr><td>Urea nitrogen [Mass/volume] in Blood</td><td>19.4</td><td>7 - 20</td><td>mg/dL</td></tr><tr><td>Creatinine [Mass/volume] in Blood</td><td><strong>5.3 H</strong></td><td>0.6 - 1.3</td><td>mg/dL</td></tr><tr><td>Calcium [Mass/volume] in Blood</td><td>10.2</td><td>8.5 - 10.5</td><td>mg/dL</td></tr><tr><td>Sodium [Moles/volume] in Blood</td><td>137.6</td><td>135 - 145</td><td>mmol/L</td></tr><tr><td>Potassium [Moles/volume] in Blood</td><td>4.1</td><td>3.5 - 5.3</td><td>mmol/L</td></tr><tr><td>Chloride [Moles/volume] in Blood</td><td>109.1</td><td>98 - 110</td><td>mmol/L</td></tr><tr><td>Carbon dioxide, total [Moles/volume] in Blood</td><td><strong>21.8 L</strong></td><td>22 - 29</td><td>mmol/L</td></tr></tbody></table></div>"
                },
                "title": "Chemistry"
              },
              {
                "code": {
                  "coding": [
                    {
                      "code": "$18729-4",
                      "system": "http://loinc.org",
                      "display": "Urinalysis studies (set)"
                    }
                  ],
                  "text": "Urinalysis"
                },
                "entry": [
                  {
                    "reference": "urn:uuid:6bb604cc-bddd-4b96-a15f-64ace2559ed1"
                  },
                  {
                    "reference": "urn:uuid:ad68c706-ff63-4b0c-894c-9d276b94e9b1"
                  },
                  {
                    "reference": "urn:uuid:b3d07bbd-f189-42ba-b057-5e6e9ebf6e95"
                  },
                  {
                    "reference": "urn:uuid:1e47ebce-0dfe-461b-87bc-6f9312b4df87"
                  },
                  {
                    "reference": "urn:uuid:0e12dd8c-f153-4ca6-a8b0-88771cfc2779"
                  },
                  {
                    "reference": "urn:uuid:9130d3a5-aaa5-4de0-8c14-60ac2f54aba2"
                  },
                  {
                    "reference": "urn:uuid:c3676c22-33e6-4cee-acfb-a0df8a1d02df"
                  },
                  {
                    "reference": "urn:uuid:4d5ef4c9-978c-4e6b-9307-5dbcaefade5f"
                  },
                  {
                    "reference": "urn:uuid:ca01219b-cd8c-42b1-81ef-d3adc183d7f3"
                  },
                  {
                    "reference": "urn:uuid:d88d7c15-86ba-459d-b82d-8575fb0092c2"
                  },
                  {
                    "reference": "urn:uuid:f971dc52-668e-4ef0-8139-01e1461e483d"
                  },
                  {
                    "reference": "urn:uuid:12455bcd-d9dd-4fe3-a065-eb33a3db5402"
                  }
                ],
                "text": {
                  "status": "generated",
                  "div": "<div xmlns=\"http://www.w3.org/1999/xhtml\"><h3>Urinalysis</h3><table class=\"hl7__eu__lab__report\"><thead><tr><th>Test</th><th>18-JUN-2025</th><th>Reference&#xA0;Range</th><th>Unit</th></tr></thead><tbody><tr><td>Glucose [Mass/volume] in Urine by Test strip</td><td><strong>2.3 H</strong></td><td>0 - 0.8</td><td>mg/dL</td></tr><tr><td>Glucose [Presence] in Urine by Test strip</td><td>++</td><td></td><td></td></tr><tr><td>Bilirubin.total [Mass/volume] in Urine by Test strip</td><td>0.3</td><td>0.2 - 1</td><td>mg/dL</td></tr><tr><td>Bilirubin.total [Presence] in Urine by Test strip</td><td>Finding of bilirubin in urine</td><td></td><td></td></tr><tr><td>Ketones [Mass/volume] in Urine by Test strip</td><td><strong>16.5 H</strong></td><td>0 - 5</td><td>mg/dL</td></tr><tr><td>Specific gravity of Urine by Test strip</td><td><strong>1.0 L</strong></td><td>1.005 - 1.03</td><td>{nominal}</td></tr><tr><td>pH of Urine by Test strip</td><td>6.6</td><td>4.6 - 7</td><td>pH</td></tr><tr><td>Protein [Mass/volume] in Urine by Test strip</td><td><strong>243.1 H</strong></td><td>0 - 150</td><td>mg/dL</td></tr><tr><td>Protein [Presence] in Urine by Test strip</td><td>Urine protein test = ++</td><td></td><td></td></tr><tr><td>Nitrite [Presence] in Urine by Test strip</td><td>Urine nitrite negative</td><td></td><td></td></tr><tr><td>Hemoglobin [Presence] in Urine by Test strip</td><td>Urine blood test = negative</td><td></td><td></td></tr><tr><td>Leukocyte esterase [Presence] in Urine by Test strip</td><td>Urine leukocyte test negative</td><td></td><td></td></tr></tbody></table></div>"
                },
                "title": "Urinalysis"
              },
              {
                "code": {
                  "coding": [
                    {
                      "code": "$LP7846-1",
                      "system": "http://loinc.org",
                      "display": "Specimen information"
                    }
                  ],
                  "text": "Specimen information"
                },
                "entry": [
                  {
                    "reference": "urn:uuid:2afe2da8-9612-4ebc-bf6e-f466a575b8ba"
                  },
                  {
                    "reference": "urn:uuid:389cf5e5-c3b0-4721-b40b-40dd75e2d49e"
                  },
                  {
                    "reference": "urn:uuid:f4d2ba7a-0c81-4180-ac46-1c6e6d87e7d8"
                  },
                  {
                    "reference": "urn:uuid:9cb2569c-8ccf-48b6-b3da-a12c11138e25"
                  }
                ],
                "text": {
                  "status": "generated",
                  "div": "<div xmlns=\"http://www.w3.org/1999/xhtml\"><h3>Specimen information</h3><table class=\"hl7__eu__lab__report\"><thead><tr><th>Test</th><th>18-JUN-2025</th><th>Specimen</th><th></th></tr></thead><tbody><tr><td>Appearance of Urine</td><td>Cloudy urine</td><td>Urine</td><td></td></tr><tr><td>Odor of Urine</td><td>Urine smell ammoniacal</td><td>Urine</td><td></td></tr><tr><td>Clarity of Urine</td><td>Translucent</td><td>Urine</td><td></td></tr><tr><td>Color of Urine</td><td>Brown color</td><td>Urine</td><td></td></tr></tbody></table></div>"
                },
                "title": "Specimen information"
              }
            ],
            "title": "Laboratory Report"
          },
          {
            "text": {
              "status": "generated",
              "div": "<div xmlns=\"http://www.w3.org/1999/xhtml\"><h3>Annotation</h3><table class=\"hl7__eu__lab__report\"><tr><th>Conclusion and Recommendations based on this report and previous findings known to us</th></tr><tr><td>The patient shows significant renal dysfunction (elevated creatinine), proteinuria, and abnormal urine findings (cloudy, brown, low specific gravity, ketonuria, glucosuria), with low blood glucose and HbA1c, and mild metabolic acidosis (low CO₂). These findings suggest acute or chronic kidney injury with possible nephrotic features and metabolic derangements. Urgent clinical evaluation and nephrology referral are recommended.</td></tr></table></div>"
            },
            "code": {
              "coding": [
                {
                  "system": "http://loinc.org",
                  "code": "48767-8",
                  "display": "Annotation comment"
                }
              ]
            },
            "title": "Annotation comment"
          }
        ],
        "status": "final",
        "subject": {
          "reference": "urn:uuid:43b7b5ff-313d-4548-b478-41d80458ac9d",
          "display": "Θεμιστοκλής Λιναρδάκη"
        },
        "date": "2025-06-18T08:16:00Z",
        "title": "Laboratory Report",
        "confidentiality": "N"
      }
    },
    {
      "fullUrl": "urn:uuid:664f32c2-0e8e-437b-930e-82b5d80ed102",
      "resource": {
        "resourceType": "DiagnosticReport",
        "id": "664f32c2-0e8e-437b-930e-82b5d80ed102",
        "meta": {
          "profile": [
            "http://hl7.eu/fhir/laboratory/StructureDefinition/DiagnosticReport-eu-lab"
          ]
        },
        "identifier": [
          {
            "assigner": {
              "display": "HL7 Europe"
            },
            "system": "urn:oid:2.16.840.1.113883.2.51.999",
            "value": "f90c5653-f74f-4f39-b044-f80eef7bd5de"
          }
        ],
        "extension": [
          {
            "url": "http://hl7.org/fhir/5.0/StructureDefinition/extension-DiagnosticReport.composition",
            "valueReference": {
              "reference": "urn:uuid:2eb1f29f-1190-4d36-b307-a66c24021966"
            }
          }
        ],
        "category": [
          {
            "coding": [
              {
                "code": "26436-6",
                "system": "http://loinc.org",
                "display": "Laboratory studies (set)"
              }
            ]
          }
        ],
        "specimen": [
          {
            "reference": "urn:uuid:ec4878e3-a29a-4c1f-bbee-83ef084f5d30"
          },
          {
            "reference": "urn:uuid:22bb3629-1271-4fc7-8590-a70591ae17cf"
          },
          {
            "reference": "urn:uuid:a8608f4a-05fb-41d9-97e0-ca95359fbe83"
          }
        ],
        "result": [
          {
            "reference": "urn:uuid:50551c88-e50d-4b84-a8a0-be6aa4b612ac"
          },
          {
            "reference": "urn:uuid:a788fc49-44b2-4505-ae5c-ef18f008893f"
          },
          {
            "reference": "urn:uuid:7ffb2f46-1160-4556-a662-0e670355ab7e"
          },
          {
            "reference": "urn:uuid:f8fc4886-742f-47db-b2a8-e7db1716adab"
          },
          {
            "reference": "urn:uuid:7854ebbb-4c82-4b13-a5be-3ce25a1584e3"
          },
          {
            "reference": "urn:uuid:49c4be5a-30a1-405c-88d1-0195131b3139"
          },
          {
            "reference": "urn:uuid:cffc9b1f-feac-4878-b7a3-a5b2b1968e2f"
          },
          {
            "reference": "urn:uuid:a4471532-0446-4dbc-bdce-7837d6797149"
          },
          {
            "reference": "urn:uuid:2afe2da8-9612-4ebc-bf6e-f466a575b8ba"
          },
          {
            "reference": "urn:uuid:389cf5e5-c3b0-4721-b40b-40dd75e2d49e"
          },
          {
            "reference": "urn:uuid:f4d2ba7a-0c81-4180-ac46-1c6e6d87e7d8"
          },
          {
            "reference": "urn:uuid:9cb2569c-8ccf-48b6-b3da-a12c11138e25"
          },
          {
            "reference": "urn:uuid:6bb604cc-bddd-4b96-a15f-64ace2559ed1"
          },
          {
            "reference": "urn:uuid:ad68c706-ff63-4b0c-894c-9d276b94e9b1"
          },
          {
            "reference": "urn:uuid:b3d07bbd-f189-42ba-b057-5e6e9ebf6e95"
          },
          {
            "reference": "urn:uuid:1e47ebce-0dfe-461b-87bc-6f9312b4df87"
          },
          {
            "reference": "urn:uuid:0e12dd8c-f153-4ca6-a8b0-88771cfc2779"
          },
          {
            "reference": "urn:uuid:1c69e32a-6637-401c-912c-2ee433e2536b"
          },
          {
            "reference": "urn:uuid:9130d3a5-aaa5-4de0-8c14-60ac2f54aba2"
          },
          {
            "reference": "urn:uuid:c3676c22-33e6-4cee-acfb-a0df8a1d02df"
          },
          {
            "reference": "urn:uuid:4d5ef4c9-978c-4e6b-9307-5dbcaefade5f"
          },
          {
            "reference": "urn:uuid:ca01219b-cd8c-42b1-81ef-d3adc183d7f3"
          },
          {
            "reference": "urn:uuid:d88d7c15-86ba-459d-b82d-8575fb0092c2"
          },
          {
            "reference": "urn:uuid:f971dc52-668e-4ef0-8139-01e1461e483d"
          },
          {
            "reference": "urn:uuid:12455bcd-d9dd-4fe3-a065-eb33a3db5402"
          },
          {
            "reference": "urn:uuid:7d86f66e-9d39-4c78-bf28-c0154dbb6783"
          },
          {
            "reference": "urn:uuid:badd11fd-016a-4e6c-afa2-eb6feeae7092"
          },
          {
            "reference": "urn:uuid:50387b41-bc66-48d9-b582-215bfa53d48e"
          },
          {
            "reference": "urn:uuid:44c63c65-087a-4d91-8e69-12d9b64db3a2"
          },
          {
            "reference": "urn:uuid:9a8967e2-0fcf-4bd2-8f62-03c54e6f162f"
          },
          {
            "reference": "urn:uuid:01beeaa0-acdd-489d-af93-a2c79d2f3d58"
          },
          {
            "reference": "urn:uuid:4adcd7dc-3abf-44f4-9af0-9cbbd967f079"
          },
          {
            "reference": "urn:uuid:1ef403ca-b366-4ec4-bc47-605d3b861b6c"
          },
          {
            "reference": "urn:uuid:3b5846ad-b5f3-464c-93a9-be5308e48689"
          }
        ],
        "status": "registered",
        "code": {
          "coding": [
            {
              "code": "11502-2",
              "system": "http://loinc.org",
              "display": "Laboratory report"
            }
          ]
        },
        "subject": {
          "reference": "urn:uuid:43b7b5ff-313d-4548-b478-41d80458ac9d",
          "display": "Θεμιστοκλής Λιναρδάκη"
        }
      }
    },
    {
      "fullUrl": "urn:uuid:43b7b5ff-313d-4548-b478-41d80458ac9d",
      "resource": {
        "resourceType": "Patient",
        "id": "43b7b5ff-313d-4548-b478-41d80458ac9d",
        "meta": {
          "security": [
            {
              "system": "http://terminology.hl7.org/CodeSystem/v3-ActReason",
              "code": "HTEST"
            },
            {
              "system": "http://terminology.hl7.org/CodeSystem/v3-ActReason",
              "code": "TRAIN"
            }
          ],
          "tag": [
            {
              "system": "https://synderai.net/fhir/CodeSystem/tags",
              "code": "synthetic",
              "display": "SYNDERAI Synthetic data"
            }
          ],
          "profile": [
            "http://hl7.eu/fhir/base/StructureDefinition/patient-eu-core"
          ]
        },
        "identifier": [
          {
            "type": {
              "coding": [
                {
                  "code": "PT",
                  "system": "http://terminology.hl7.org/CodeSystem/v2-0203"
                }
              ]
            },
            "system": "http://ec.europa.eu/identifier/eci",
            "value": "5962-476889-7"
          },
          {
            "type": {
              "coding": [
                {
                  "code": "MR",
                  "system": "http://terminology.hl7.org/CodeSystem/v2-0203"
                }
              ]
            },
            "system": "http://local.setting.eu/identifier",
            "value": "925e2603-2ef9-6bdf-1330-2ebf526636c4"
          }
        ],
        "name": [
          {
            "family": "Λιναρδάκη"
          },
          {
            "given": [
              "Θεμιστοκλής"
            ]
          },
          {
            "text": "Θεμιστοκλής Λιναρδάκη"
          }
        ],
        "address": [
          {
            "line": [
              "Αμαρύνθου 54-58"
            ],
            "use": "home",
            "type": "physical",
            "postalCode": "262 21",
            "city": "Πάτρα",
            "country": "Greece"
          }
        ],
        "telecom": [
          {
            "system": "phone",
            "value": "+302226364480"
          }
        ],
        "extension": [
          {
            "url": "http://hl7.org/fhir/StructureDefinition/patient-nationality",
            "valueCodeableConcept": {
              "coding": [
                {
                  "code": "GR",
                  "system": "http://hl7.org/fhir/ValueSet/country"
                }
              ]
            }
          }
        ],
        "text": {
          "status": "generated",
          "div": "<div xmlns=\"http://www.w3.org/1999/xhtml\"><table class=\"hl7__ips\"><tr><td>Θεμιστοκλής Λιναρδάκη</td><td>male</td><td>21-Jan-1974</td></tr></table></div>"
        },
        "gender": "male",
        "birthDate": "1974-01-21"
      }
    },
    {
      "fullUrl": "urn:uuid:f15f6e70-9f9a-4cce-81ab-290ba797fc9a",
      "resource": {
        "resourceType": "ServiceRequest",
        "id": "f15f6e70-9f9a-4cce-81ab-290ba797fc9a",
        "meta": {
          "profile": [
            "http://hl7.eu/fhir/laboratory/StructureDefinition/ServiceRequest-eu-lab"
          ]
        },
        "identifier": [
          {
            "system": "http://example.org",
            "value": "8d57bbdb-7085-4166-a6a6-94fc10a07756"
          }
        ],
        "specimen": [
          {
            "reference": "urn:uuid:ec4878e3-a29a-4c1f-bbee-83ef084f5d30"
          },
          {
            "reference": "urn:uuid:22bb3629-1271-4fc7-8590-a70591ae17cf"
          },
          {
            "reference": "urn:uuid:a8608f4a-05fb-41d9-97e0-ca95359fbe83"
          }
        ],
        "reasonCode": [
          {
            "coding": [
              {
                "code": "237602007",
                "system": "http://snomed.info/sct",
                "display": "Metabolic syndrome X"
              }
            ]
          },
          {
            "coding": [
              {
                "code": "433144002",
                "system": "http://snomed.info/sct",
                "display": "Chronic kidney disease stage 3"
              }
            ]
          },
          {
            "coding": [
              {
                "code": "157141000119108",
                "system": "http://snomed.info/sct",
                "display": "Proteinuria due to type 2 diabetes mellitus"
              }
            ]
          },
          {
            "coding": [
              {
                "code": "431856006",
                "system": "http://snomed.info/sct",
                "display": "Chronic kidney disease stage 2"
              }
            ]
          },
          {
            "coding": [
              {
                "code": "90781000119102",
                "system": "http://snomed.info/sct",
                "display": "Microalbuminuria due to type 2 diabetes mellitus"
              }
            ]
          },
          {
            "coding": [
              {
                "code": "127013003",
                "system": "http://snomed.info/sct",
                "display": "Disorder of kidney due to diabetes mellitus"
              }
            ]
          },
          {
            "coding": [
              {
                "code": "431855005",
                "system": "http://snomed.info/sct",
                "display": "Chronic kidney disease stage 1"
              }
            ]
          },
          {
            "coding": [
              {
                "code": "59621000",
                "system": "http://snomed.info/sct",
                "display": "Essential hypertension"
              }
            ]
          },
          {
            "coding": [
              {
                "code": "15777000",
                "system": "http://snomed.info/sct",
                "display": "Prediabetes"
              }
            ]
          },
          {
            "coding": [
              {
                "code": "271737000",
                "system": "http://snomed.info/sct",
                "display": "Anemia"
              }
            ]
          }
        ],
        "status": "active",
        "intent": "order",
        "code": {
          "coding": [
            {
              "code": "108252007",
              "system": "http://snomed.info/sct",
              "display": "Laboratory procedure"
            }
          ]
        },
        "subject": {
          "reference": "urn:uuid:43b7b5ff-313d-4548-b478-41d80458ac9d",
          "display": "Θεμιστοκλής Λιναρδάκη"
        },
        "requester": {
          "reference": "urn:uuid:09e5bce2-d191-423a-b0f6-82391818acd9"
        }
      }
    },
    {
      "fullUrl": "urn:uuid:09e5bce2-d191-423a-b0f6-82391818acd9",
      "resource": {
        "resourceType": "PractitionerRole",
        "id": "09e5bce2-d191-423a-b0f6-82391818acd9",
        "meta": {
          "profile": [
            "http://hl7.eu/fhir/base/StructureDefinition/practitionerRole-eu"
          ]
        },
        "text": {
          "status": "generated",
          "div": "<div xmlns=\"http://www.w3.org/1999/xhtml\">Provider Role Id: 09e5bce2-d191-423a-b0f6-82391818acd9</div>"
        },
        "organization": {
          "reference": "urn:uuid:ecb48123-ad57-489e-8970-b3bdfea618d3"
        }
      }
    },
    {
      "fullUrl": "urn:uuid:ecb48123-ad57-489e-8970-b3bdfea618d3",
      "resource": {
        "resourceType": "Organization",
        "id": "ecb48123-ad57-489e-8970-b3bdfea618d3",
        "meta": {
          "profile": [
            "http://hl7.eu/fhir/base/StructureDefinition/organization-eu"
          ]
        },
        "identifier": [
          {
            "assigner": {
              "display": "HL7 Europe"
            },
            "system": "urn:oid:2.16.840.1.113883.2.51.999",
            "value": "034b972f-c0e8-4223-9726-d35637a22b8e"
          }
        ],
        "address": [
          {
            "line": [
              "211 Odós Filellinon"
            ],
            "city": "Patras",
            "postalCode": "262 21",
            "country": "Greece"
          }
        ],
        "text": {
          "status": "generated",
          "div": "<div xmlns=\"http://www.w3.org/1999/xhtml\">Provider Organization: Dr. Dimitris Economou</div>"
        },
        "name": "Dr. Dimitris Economou"
      }
    },
    {
      "fullUrl": "urn:uuid:ec4878e3-a29a-4c1f-bbee-83ef084f5d30",
      "resource": {
        "resourceType": "Specimen",
        "id": "ec4878e3-a29a-4c1f-bbee-83ef084f5d30",
        "meta": {
          "profile": [
            "http://hl7.eu/fhir/laboratory/StructureDefinition/Specimen-eu-lab"
          ]
        },
        "collection": {
          "collectedDateTime": "2025-06-18"
        },
        "text": {
          "status": "generated",
          "div": "<div xmlns=\"http://www.w3.org/1999/xhtml\"><table class=\"hl7__eu__lab__report\"><tr><th>Specimen</th><th>Collection Date</th></tr><tr><td>Acellular blood (serum or plasma) specimen</td><td><span class=\"nb\">18-Jun-2025</span></td></tr></table></div>"
        },
        "type": {
          "coding": [
            {
              "code": "122592007",
              "system": "http://snomed.info/sct",
              "display": "Acellular blood (serum or plasma) specimen"
            }
          ]
        }
      }
    },
    {
      "fullUrl": "urn:uuid:22bb3629-1271-4fc7-8590-a70591ae17cf",
      "resource": {
        "resourceType": "Specimen",
        "id": "22bb3629-1271-4fc7-8590-a70591ae17cf",
        "meta": {
          "profile": [
            "http://hl7.eu/fhir/laboratory/StructureDefinition/Specimen-eu-lab"
          ]
        },
        "collection": {
          "collectedDateTime": "2025-06-18"
        },
        "text": {
          "status": "generated",
          "div": "<div xmlns=\"http://www.w3.org/1999/xhtml\"><table class=\"hl7__eu__lab__report\"><tr><th>Specimen</th><th>Collection Date</th></tr><tr><td>Urine specimen</td><td><span class=\"nb\">18-Jun-2025</span></td></tr></table></div>"
        },
        "type": {
          "coding": [
            {
              "code": "122575003",
              "system": "http://snomed.info/sct",
              "display": "Urine specimen"
            }
          ]
        }
      }
    },
    {
      "fullUrl": "urn:uuid:a8608f4a-05fb-41d9-97e0-ca95359fbe83",
      "resource": {
        "resourceType": "Specimen",
        "id": "a8608f4a-05fb-41d9-97e0-ca95359fbe83",
        "meta": {
          "profile": [
            "http://hl7.eu/fhir/laboratory/StructureDefinition/Specimen-eu-lab"
          ]
        },
        "collection": {
          "collectedDateTime": "2025-06-18"
        },
        "text": {
          "status": "generated",
          "div": "<div xmlns=\"http://www.w3.org/1999/xhtml\"><table class=\"hl7__eu__lab__report\"><tr><th>Specimen</th><th>Collection Date</th></tr><tr><td>Whole blood specimen (specimen)</td><td><span class=\"nb\">18-Jun-2025</span></td></tr></table></div>"
        },
        "type": {
          "coding": [
            {
              "code": "258580003",
              "system": "http://snomed.info/sct",
              "display": "Whole blood specimen (specimen)"
            }
          ]
        }
      }
    },
    {
      "fullUrl": "urn:uuid:50551c88-e50d-4b84-a8a0-be6aa4b612ac",
      "resource": {
        "resourceType": "Observation",
        "id": "50551c88-e50d-4b84-a8a0-be6aa4b612ac",
        "meta": {
          "profile": [
            "http://hl7.eu/fhir/laboratory/StructureDefinition/Observation-resultslab-eu-lab"
          ]
        },
        "performer": [
          {
            "display": "The Central European Lab"
          }
        ],
        "category": [
          {
            "coding": [
              {
                "system": "http://terminology.hl7.org/CodeSystem/observation-category",
                "code": "laboratory"
              }
            ]
          }
        ],
        "code": {
          "coding": [
            {
              "code": "2345-7",
              "system": "http://loinc.org",
              "display": "Glucose [Mass/volume] in Serum or Plasma"
            }
          ],
          "text": "Glucose [Mass/volume] in Serum or Plasma"
        },
        "valueQuantity": {
          "system": "http://unitsofmeasure.org",
          "value": 68.6,
          "unit": "mg/dL",
          "code": "mg/dL"
        },
        "referenceRange": [
          {
            "low": {
              "value": 70,
              "code": "mg/dL",
              "system": "http://unitsofmeasure.org"
            }
          },
          {
            "high": {
              "value": 140,
              "code": "mg/dL",
              "system": "http://unitsofmeasure.org"
            }
          }
        ],
        "interpretation": [
          {
            "coding": [
              {
                "code": "L",
                "system": "http://terminology.hl7.org/CodeSystem/v3-ObservationInterpretation",
                "display": "Low"
              }
            ]
          }
        ],
        "text": {
          "status": "generated",
          "div": "<div xmlns=\"http://www.w3.org/1999/xhtml\"><table class=\"hl7__eu__lab__report\"><tr><th>Test</th><th>18-Jun-2025</th><th>Reference&#xA0;Range</th><th>Unit</th></tr><tr><td>Glucose [Mass/volume] in Serum or Plasma</td><td>68.6</td><td>70 - 140</td><td>L</td><td>mg/dL</td></tr></table></div>"
        },
        "status": "final",
        "subject": {
          "reference": "urn:uuid:43b7b5ff-313d-4548-b478-41d80458ac9d",
          "display": "Θεμιστοκλής Λιναρδάκη"
        },
        "effectiveDateTime": "2025-06-18T06:16:00Z",
        "specimen": {
          "reference": "urn:uuid:ec4878e3-a29a-4c1f-bbee-83ef084f5d30"
        }
      }
    },
    {
      "fullUrl": "urn:uuid:a788fc49-44b2-4505-ae5c-ef18f008893f",
      "resource": {
        "resourceType": "Observation",
        "id": "a788fc49-44b2-4505-ae5c-ef18f008893f",
        "meta": {
          "profile": [
            "http://hl7.eu/fhir/laboratory/StructureDefinition/Observation-resultslab-eu-lab"
          ]
        },
        "performer": [
          {
            "display": "The Central European Lab"
          }
        ],
        "category": [
          {
            "coding": [
              {
                "system": "http://terminology.hl7.org/CodeSystem/observation-category",
                "code": "laboratory"
              }
            ]
          }
        ],
        "code": {
          "coding": [
            {
              "code": "3094-0",
              "system": "http://loinc.org",
              "display": "Urea nitrogen [Mass/volume] in Serum or Plasma"
            }
          ],
          "text": "Urea nitrogen [Mass/volume] in Serum or Plasma"
        },
        "valueQuantity": {
          "system": "http://unitsofmeasure.org",
          "value": 19.4,
          "unit": "mg/dL",
          "code": "mg/dL"
        },
        "referenceRange": [
          {
            "low": {
              "value": 7,
              "code": "mg/dL",
              "system": "http://unitsofmeasure.org"
            }
          },
          {
            "high": {
              "value": 20,
              "code": "mg/dL",
              "system": "http://unitsofmeasure.org"
            }
          }
        ],
        "text": {
          "status": "generated",
          "div": "<div xmlns=\"http://www.w3.org/1999/xhtml\"><table class=\"hl7__eu__lab__report\"><tr><th>Test</th><th>18-Jun-2025</th><th>Reference&#xA0;Range</th><th>Unit</th></tr><tr><td>Urea nitrogen [Mass/volume] in Serum or Plasma</td><td>19.4</td><td>7 - 20</td><td></td><td>mg/dL</td></tr></table></div>"
        },
        "status": "final",
        "subject": {
          "reference": "urn:uuid:43b7b5ff-313d-4548-b478-41d80458ac9d",
          "display": "Θεμιστοκλής Λιναρδάκη"
        },
        "effectiveDateTime": "2025-06-18T06:16:00Z",
        "specimen": {
          "reference": "urn:uuid:ec4878e3-a29a-4c1f-bbee-83ef084f5d30"
        }
      }
    },
    {
      "fullUrl": "urn:uuid:7ffb2f46-1160-4556-a662-0e670355ab7e",
      "resource": {
        "resourceType": "Observation",
        "id": "7ffb2f46-1160-4556-a662-0e670355ab7e",
        "meta": {
          "profile": [
            "http://hl7.eu/fhir/laboratory/StructureDefinition/Observation-resultslab-eu-lab"
          ]
        },
        "performer": [
          {
            "display": "The Central European Lab"
          }
        ],
        "category": [
          {
            "coding": [
              {
                "system": "http://terminology.hl7.org/CodeSystem/observation-category",
                "code": "laboratory"
              }
            ]
          }
        ],
        "code": {
          "coding": [
            {
              "code": "2160-0",
              "system": "http://loinc.org",
              "display": "Creatinine [Mass/volume] in Serum or Plasma"
            }
          ],
          "text": "Creatinine [Mass/volume] in Serum or Plasma"
        },
        "valueQuantity": {
          "system": "http://unitsofmeasure.org",
          "value": 2,
          "unit": "mg/dL",
          "code": "mg/dL"
        },
        "referenceRange": [
          {
            "low": {
              "value": 0.9,
              "code": "mg/dL",
              "system": "http://unitsofmeasure.org"
            }
          },
          {
            "high": {
              "value": 1.3,
              "code": "mg/dL",
              "system": "http://unitsofmeasure.org"
            }
          }
        ],
        "interpretation": [
          {
            "coding": [
              {
                "code": "H",
                "system": "http://terminology.hl7.org/CodeSystem/v3-ObservationInterpretation",
                "display": "High"
              }
            ]
          }
        ],
        "text": {
          "status": "generated",
          "div": "<div xmlns=\"http://www.w3.org/1999/xhtml\"><table class=\"hl7__eu__lab__report\"><tr><th>Test</th><th>18-Jun-2025</th><th>Reference&#xA0;Range</th><th>Unit</th></tr><tr><td>Creatinine [Mass/volume] in Serum or Plasma</td><td>2.0</td><td>0.9 - 1.3</td><td>H</td><td>mg/dL</td></tr></table></div>"
        },
        "status": "final",
        "subject": {
          "reference": "urn:uuid:43b7b5ff-313d-4548-b478-41d80458ac9d",
          "display": "Θεμιστοκλής Λιναρδάκη"
        },
        "effectiveDateTime": "2025-06-18T06:16:00Z",
        "specimen": {
          "reference": "urn:uuid:ec4878e3-a29a-4c1f-bbee-83ef084f5d30"
        }
      }
    },
    {
      "fullUrl": "urn:uuid:f8fc4886-742f-47db-b2a8-e7db1716adab",
      "resource": {
        "resourceType": "Observation",
        "id": "f8fc4886-742f-47db-b2a8-e7db1716adab",
        "meta": {
          "profile": [
            "http://hl7.eu/fhir/laboratory/StructureDefinition/Observation-resultslab-eu-lab"
          ]
        },
        "performer": [
          {
            "display": "The Central European Lab"
          }
        ],
        "category": [
          {
            "coding": [
              {
                "system": "http://terminology.hl7.org/CodeSystem/observation-category",
                "code": "laboratory"
              }
            ]
          }
        ],
        "code": {
          "coding": [
            {
              "code": "17861-6",
              "system": "http://loinc.org",
              "display": "Calcium [Mass/volume] in Serum or Plasma"
            }
          ],
          "text": "Calcium [Mass/volume] in Serum or Plasma"
        },
        "valueQuantity": {
          "system": "http://unitsofmeasure.org",
          "value": 10.2,
          "unit": "mg/dL",
          "code": "mg/dL"
        },
        "referenceRange": [
          {
            "low": {
              "value": 8.5,
              "code": "mg/dL",
              "system": "http://unitsofmeasure.org"
            }
          },
          {
            "high": {
              "value": 10.5,
              "code": "mg/dL",
              "system": "http://unitsofmeasure.org"
            }
          }
        ],
        "text": {
          "status": "generated",
          "div": "<div xmlns=\"http://www.w3.org/1999/xhtml\"><table class=\"hl7__eu__lab__report\"><tr><th>Test</th><th>18-Jun-2025</th><th>Reference&#xA0;Range</th><th>Unit</th></tr><tr><td>Calcium [Mass/volume] in Serum or Plasma</td><td>10.2</td><td>8.5 - 10.5</td><td></td><td>mg/dL</td></tr></table></div>"
        },
        "status": "final",
        "subject": {
          "reference": "urn:uuid:43b7b5ff-313d-4548-b478-41d80458ac9d",
          "display": "Θεμιστοκλής Λιναρδάκη"
        },
        "effectiveDateTime": "2025-06-18T06:16:00Z",
        "specimen": {
          "reference": "urn:uuid:ec4878e3-a29a-4c1f-bbee-83ef084f5d30"
        }
      }
    },
    {
      "fullUrl": "urn:uuid:7854ebbb-4c82-4b13-a5be-3ce25a1584e3",
      "resource": {
        "resourceType": "Observation",
        "id": "7854ebbb-4c82-4b13-a5be-3ce25a1584e3",
        "meta": {
          "profile": [
            "http://hl7.eu/fhir/laboratory/StructureDefinition/Observation-resultslab-eu-lab"
          ]
        },
        "performer": [
          {
            "display": "The Central European Lab"
          }
        ],
        "category": [
          {
            "coding": [
              {
                "system": "http://terminology.hl7.org/CodeSystem/observation-category",
                "code": "laboratory"
              }
            ]
          }
        ],
        "code": {
          "coding": [
            {
              "code": "2951-2",
              "system": "http://loinc.org",
              "display": "Sodium [Moles/volume] in Serum or Plasma"
            }
          ],
          "text": "Sodium [Moles/volume] in Serum or Plasma"
        },
        "valueQuantity": {
          "system": "http://unitsofmeasure.org",
          "value": 137.6,
          "unit": "mmol/L",
          "code": "mmol/L"
        },
        "referenceRange": [
          {
            "low": {
              "value": 135,
              "code": "mmol/L",
              "system": "http://unitsofmeasure.org"
            }
          },
          {
            "high": {
              "value": 145,
              "code": "mmol/L",
              "system": "http://unitsofmeasure.org"
            }
          }
        ],
        "text": {
          "status": "generated",
          "div": "<div xmlns=\"http://www.w3.org/1999/xhtml\"><table class=\"hl7__eu__lab__report\"><tr><th>Test</th><th>18-Jun-2025</th><th>Reference&#xA0;Range</th><th>Unit</th></tr><tr><td>Sodium [Moles/volume] in Serum or Plasma</td><td>137.6</td><td>135 - 145</td><td></td><td>mmol/L</td></tr></table></div>"
        },
        "status": "final",
        "subject": {
          "reference": "urn:uuid:43b7b5ff-313d-4548-b478-41d80458ac9d",
          "display": "Θεμιστοκλής Λιναρδάκη"
        },
        "effectiveDateTime": "2025-06-18T06:16:00Z",
        "specimen": {
          "reference": "urn:uuid:ec4878e3-a29a-4c1f-bbee-83ef084f5d30"
        }
      }
    },
    {
      "fullUrl": "urn:uuid:49c4be5a-30a1-405c-88d1-0195131b3139",
      "resource": {
        "resourceType": "Observation",
        "id": "49c4be5a-30a1-405c-88d1-0195131b3139",
        "meta": {
          "profile": [
            "http://hl7.eu/fhir/laboratory/StructureDefinition/Observation-resultslab-eu-lab"
          ]
        },
        "performer": [
          {
            "display": "The Central European Lab"
          }
        ],
        "category": [
          {
            "coding": [
              {
                "system": "http://terminology.hl7.org/CodeSystem/observation-category",
                "code": "laboratory"
              }
            ]
          }
        ],
        "code": {
          "coding": [
            {
              "code": "2823-3",
              "system": "http://loinc.org",
              "display": "Potassium [Moles/volume] in Serum or Plasma"
            }
          ],
          "text": "Potassium [Moles/volume] in Serum or Plasma"
        },
        "valueQuantity": {
          "system": "http://unitsofmeasure.org",
          "value": 4.1,
          "unit": "mmol/L",
          "code": "mmol/L"
        },
        "referenceRange": [
          {
            "low": {
              "value": 3.5,
              "code": "mmol/L",
              "system": "http://unitsofmeasure.org"
            }
          },
          {
            "high": {
              "value": 5,
              "code": "mmol/L",
              "system": "http://unitsofmeasure.org"
            }
          }
        ],
        "text": {
          "status": "generated",
          "div": "<div xmlns=\"http://www.w3.org/1999/xhtml\"><table class=\"hl7__eu__lab__report\"><tr><th>Test</th><th>18-Jun-2025</th><th>Reference&#xA0;Range</th><th>Unit</th></tr><tr><td>Potassium [Moles/volume] in Serum or Plasma</td><td>4.1</td><td>3.5 - 5</td><td></td><td>mmol/L</td></tr></table></div>"
        },
        "status": "final",
        "subject": {
          "reference": "urn:uuid:43b7b5ff-313d-4548-b478-41d80458ac9d",
          "display": "Θεμιστοκλής Λιναρδάκη"
        },
        "effectiveDateTime": "2025-06-18T06:16:00Z",
        "specimen": {
          "reference": "urn:uuid:ec4878e3-a29a-4c1f-bbee-83ef084f5d30"
        }
      }
    },
    {
      "fullUrl": "urn:uuid:cffc9b1f-feac-4878-b7a3-a5b2b1968e2f",
      "resource": {
        "resourceType": "Observation",
        "id": "cffc9b1f-feac-4878-b7a3-a5b2b1968e2f",
        "meta": {
          "profile": [
            "http://hl7.eu/fhir/laboratory/StructureDefinition/Observation-resultslab-eu-lab"
          ]
        },
        "performer": [
          {
            "display": "The Central European Lab"
          }
        ],
        "category": [
          {
            "coding": [
              {
                "system": "http://terminology.hl7.org/CodeSystem/observation-category",
                "code": "laboratory"
              }
            ]
          }
        ],
        "code": {
          "coding": [
            {
              "code": "2075-0",
              "system": "http://loinc.org",
              "display": "Chloride [Moles/volume] in Serum or Plasma"
            }
          ],
          "text": "Chloride [Moles/volume] in Serum or Plasma"
        },
        "valueQuantity": {
          "system": "http://unitsofmeasure.org",
          "value": 109.1,
          "unit": "mmol/L",
          "code": "mmol/L"
        },
        "referenceRange": [
          {
            "low": {
              "value": 98,
              "code": "mmol/L",
              "system": "http://unitsofmeasure.org"
            }
          },
          {
            "high": {
              "value": 108,
              "code": "mmol/L",
              "system": "http://unitsofmeasure.org"
            }
          }
        ],
        "interpretation": [
          {
            "coding": [
              {
                "code": "H",
                "system": "http://terminology.hl7.org/CodeSystem/v3-ObservationInterpretation",
                "display": "High"
              }
            ]
          }
        ],
        "text": {
          "status": "generated",
          "div": "<div xmlns=\"http://www.w3.org/1999/xhtml\"><table class=\"hl7__eu__lab__report\"><tr><th>Test</th><th>18-Jun-2025</th><th>Reference&#xA0;Range</th><th>Unit</th></tr><tr><td>Chloride [Moles/volume] in Serum or Plasma</td><td>109.1</td><td>98 - 108</td><td>H</td><td>mmol/L</td></tr></table></div>"
        },
        "status": "final",
        "subject": {
          "reference": "urn:uuid:43b7b5ff-313d-4548-b478-41d80458ac9d",
          "display": "Θεμιστοκλής Λιναρδάκη"
        },
        "effectiveDateTime": "2025-06-18T06:16:00Z",
        "specimen": {
          "reference": "urn:uuid:ec4878e3-a29a-4c1f-bbee-83ef084f5d30"
        }
      }
    },
    {
      "fullUrl": "urn:uuid:a4471532-0446-4dbc-bdce-7837d6797149",
      "resource": {
        "resourceType": "Observation",
        "id": "a4471532-0446-4dbc-bdce-7837d6797149",
        "meta": {
          "profile": [
            "http://hl7.eu/fhir/laboratory/StructureDefinition/Observation-resultslab-eu-lab"
          ]
        },
        "performer": [
          {
            "display": "The Central European Lab"
          }
        ],
        "category": [
          {
            "coding": [
              {
                "system": "http://terminology.hl7.org/CodeSystem/observation-category",
                "code": "laboratory"
              }
            ]
          }
        ],
        "code": {
          "coding": [
            {
              "code": "2028-9",
              "system": "http://loinc.org",
              "display": "Carbon dioxide, total [Moles/volume] in Serum or Plasma"
            }
          ],
          "text": "Carbon dioxide, total [Moles/volume] in Serum or Plasma"
        },
        "valueQuantity": {
          "system": "http://unitsofmeasure.org",
          "value": 21.8,
          "unit": "mmol/L",
          "code": "mmol/L"
        },
        "referenceRange": [
          {
            "low": {
              "value": 22,
              "code": "mmol/L",
              "system": "http://unitsofmeasure.org"
            }
          },
          {
            "high": {
              "value": 29,
              "code": "mmol/L",
              "system": "http://unitsofmeasure.org"
            }
          }
        ],
        "interpretation": [
          {
            "coding": [
              {
                "code": "L",
                "system": "http://terminology.hl7.org/CodeSystem/v3-ObservationInterpretation",
                "display": "Low"
              }
            ]
          }
        ],
        "text": {
          "status": "generated",
          "div": "<div xmlns=\"http://www.w3.org/1999/xhtml\"><table class=\"hl7__eu__lab__report\"><tr><th>Test</th><th>18-Jun-2025</th><th>Reference&#xA0;Range</th><th>Unit</th></tr><tr><td>Carbon dioxide, total [Moles/volume] in Serum or Plasma</td><td>21.8</td><td>22 - 29</td><td>L</td><td>mmol/L</td></tr></table></div>"
        },
        "status": "final",
        "subject": {
          "reference": "urn:uuid:43b7b5ff-313d-4548-b478-41d80458ac9d",
          "display": "Θεμιστοκλής Λιναρδάκη"
        },
        "effectiveDateTime": "2025-06-18T06:16:00Z",
        "specimen": {
          "reference": "urn:uuid:ec4878e3-a29a-4c1f-bbee-83ef084f5d30"
        }
      }
    },
    {
      "fullUrl": "urn:uuid:2afe2da8-9612-4ebc-bf6e-f466a575b8ba",
      "resource": {
        "resourceType": "Observation",
        "id": "2afe2da8-9612-4ebc-bf6e-f466a575b8ba",
        "meta": {
          "profile": [
            "http://hl7.eu/fhir/laboratory/StructureDefinition/Observation-resultslab-eu-lab"
          ]
        },
        "performer": [
          {
            "display": "The Central European Lab"
          }
        ],
        "category": [
          {
            "coding": [
              {
                "system": "http://terminology.hl7.org/CodeSystem/observation-category",
                "code": "laboratory"
              }
            ]
          }
        ],
        "code": {
          "coding": [
            {
              "code": "5767-9",
              "system": "http://loinc.org",
              "display": "Appearance of Urine"
            }
          ],
          "text": "Appearance of Urine"
        },
        "text": {
          "status": "generated",
          "div": "<div xmlns=\"http://www.w3.org/1999/xhtml\"><table class=\"hl7__eu__lab__report\"><tr><th>Test</th><th>18-Jun-2025</th><th>Reference&#xA0;Range</th><th>Unit</th></tr><tr><td>Appearance of Urine</td></tr></table></div>"
        },
        "status": "final",
        "subject": {
          "reference": "urn:uuid:43b7b5ff-313d-4548-b478-41d80458ac9d",
          "display": "Θεμιστοκλής Λιναρδάκη"
        },
        "effectiveDateTime": "2025-06-18T06:16:00Z",
        "specimen": {
          "reference": "urn:uuid:22bb3629-1271-4fc7-8590-a70591ae17cf"
        }
      }
    },
    {
      "fullUrl": "urn:uuid:389cf5e5-c3b0-4721-b40b-40dd75e2d49e",
      "resource": {
        "resourceType": "Observation",
        "id": "389cf5e5-c3b0-4721-b40b-40dd75e2d49e",
        "meta": {
          "profile": [
            "http://hl7.eu/fhir/laboratory/StructureDefinition/Observation-resultslab-eu-lab"
          ]
        },
        "performer": [
          {
            "display": "The Central European Lab"
          }
        ],
        "category": [
          {
            "coding": [
              {
                "system": "http://terminology.hl7.org/CodeSystem/observation-category",
                "code": "laboratory"
              }
            ]
          }
        ],
        "code": {
          "coding": [
            {
              "code": "34533-0",
              "system": "http://loinc.org",
              "display": "Odor of Urine"
            }
          ],
          "text": "Odor of Urine"
        },
        "text": {
          "status": "generated",
          "div": "<div xmlns=\"http://www.w3.org/1999/xhtml\"><table class=\"hl7__eu__lab__report\"><tr><th>Test</th><th>18-Jun-2025</th><th>Reference&#xA0;Range</th><th>Unit</th></tr><tr><td>Odor of Urine</td></tr></table></div>"
        },
        "status": "final",
        "subject": {
          "reference": "urn:uuid:43b7b5ff-313d-4548-b478-41d80458ac9d",
          "display": "Θεμιστοκλής Λιναρδάκη"
        },
        "effectiveDateTime": "2025-06-18T06:16:00Z",
        "specimen": {
          "reference": "urn:uuid:22bb3629-1271-4fc7-8590-a70591ae17cf"
        }
      }
    },
    {
      "fullUrl": "urn:uuid:f4d2ba7a-0c81-4180-ac46-1c6e6d87e7d8",
      "resource": {
        "resourceType": "Observation",
        "id": "f4d2ba7a-0c81-4180-ac46-1c6e6d87e7d8",
        "meta": {
          "profile": [
            "http://hl7.eu/fhir/laboratory/StructureDefinition/Observation-resultslab-eu-lab"
          ]
        },
        "performer": [
          {
            "display": "The Central European Lab"
          }
        ],
        "category": [
          {
            "coding": [
              {
                "system": "http://terminology.hl7.org/CodeSystem/observation-category",
                "code": "laboratory"
              }
            ]
          }
        ],
        "code": {
          "coding": [
            {
              "code": "32167-9",
              "system": "http://loinc.org",
              "display": "Clarity of Urine"
            }
          ],
          "text": "Clarity of Urine"
        },
        "text": {
          "status": "generated",
          "div": "<div xmlns=\"http://www.w3.org/1999/xhtml\"><table class=\"hl7__eu__lab__report\"><tr><th>Test</th><th>18-Jun-2025</th><th>Reference&#xA0;Range</th><th>Unit</th></tr><tr><td>Clarity of Urine</td></tr></table></div>"
        },
        "status": "final",
        "subject": {
          "reference": "urn:uuid:43b7b5ff-313d-4548-b478-41d80458ac9d",
          "display": "Θεμιστοκλής Λιναρδάκη"
        },
        "effectiveDateTime": "2025-06-18T06:16:00Z",
        "specimen": {
          "reference": "urn:uuid:22bb3629-1271-4fc7-8590-a70591ae17cf"
        }
      }
    },
    {
      "fullUrl": "urn:uuid:9cb2569c-8ccf-48b6-b3da-a12c11138e25",
      "resource": {
        "resourceType": "Observation",
        "id": "9cb2569c-8ccf-48b6-b3da-a12c11138e25",
        "meta": {
          "profile": [
            "http://hl7.eu/fhir/laboratory/StructureDefinition/Observation-resultslab-eu-lab"
          ]
        },
        "performer": [
          {
            "display": "The Central European Lab"
          }
        ],
        "category": [
          {
            "coding": [
              {
                "system": "http://terminology.hl7.org/CodeSystem/observation-category",
                "code": "laboratory"
              }
            ]
          }
        ],
        "code": {
          "coding": [
            {
              "code": "5778-6",
              "system": "http://loinc.org",
              "display": "Color of Urine"
            }
          ],
          "text": "Color of Urine"
        },
        "text": {
          "status": "generated",
          "div": "<div xmlns=\"http://www.w3.org/1999/xhtml\"><table class=\"hl7__eu__lab__report\"><tr><th>Test</th><th>18-Jun-2025</th><th>Reference&#xA0;Range</th><th>Unit</th></tr><tr><td>Color of Urine</td></tr></table></div>"
        },
        "status": "final",
        "subject": {
          "reference": "urn:uuid:43b7b5ff-313d-4548-b478-41d80458ac9d",
          "display": "Θεμιστοκλής Λιναρδάκη"
        },
        "effectiveDateTime": "2025-06-18T06:16:00Z",
        "specimen": {
          "reference": "urn:uuid:22bb3629-1271-4fc7-8590-a70591ae17cf"
        }
      }
    },
    {
      "fullUrl": "urn:uuid:6bb604cc-bddd-4b96-a15f-64ace2559ed1",
      "resource": {
        "resourceType": "Observation",
        "id": "6bb604cc-bddd-4b96-a15f-64ace2559ed1",
        "meta": {
          "profile": [
            "http://hl7.eu/fhir/laboratory/StructureDefinition/Observation-resultslab-eu-lab"
          ]
        },
        "performer": [
          {
            "display": "The Central European Lab"
          }
        ],
        "category": [
          {
            "coding": [
              {
                "system": "http://terminology.hl7.org/CodeSystem/observation-category",
                "code": "laboratory"
              }
            ]
          }
        ],
        "code": {
          "coding": [
            {
              "code": "5792-7",
              "system": "http://loinc.org",
              "display": "Glucose [Mass/volume] in Urine by Test strip"
            }
          ],
          "text": "Glucose [Mass/volume] in Urine by Test strip"
        },
        "valueQuantity": {
          "system": "http://unitsofmeasure.org",
          "value": 2.3,
          "unit": "mg/dL",
          "code": "mg/dL"
        },
        "referenceRange": [
          {
            "low": {
              "value": 0,
              "code": "mg/dL",
              "system": "http://unitsofmeasure.org"
            }
          },
          {
            "high": {
              "value": 0.8,
              "code": "mg/dL",
              "system": "http://unitsofmeasure.org"
            }
          }
        ],
        "interpretation": [
          {
            "coding": [
              {
                "code": "H",
                "system": "http://terminology.hl7.org/CodeSystem/v3-ObservationInterpretation",
                "display": "High"
              }
            ]
          }
        ],
        "text": {
          "status": "generated",
          "div": "<div xmlns=\"http://www.w3.org/1999/xhtml\"><table class=\"hl7__eu__lab__report\"><tr><th>Test</th><th>18-Jun-2025</th><th>Reference&#xA0;Range</th><th>Unit</th></tr><tr><td>Glucose [Mass/volume] in Urine by Test strip</td><td>2.3</td><td>0 - 0.8</td><td>H</td><td>mg/dL</td></tr></table></div>"
        },
        "status": "final",
        "subject": {
          "reference": "urn:uuid:43b7b5ff-313d-4548-b478-41d80458ac9d",
          "display": "Θεμιστοκλής Λιναρδάκη"
        },
        "effectiveDateTime": "2025-06-18T06:16:00Z",
        "specimen": {
          "reference": "urn:uuid:22bb3629-1271-4fc7-8590-a70591ae17cf"
        }
      }
    },
    {
      "fullUrl": "urn:uuid:ad68c706-ff63-4b0c-894c-9d276b94e9b1",
      "resource": {
        "resourceType": "Observation",
        "id": "ad68c706-ff63-4b0c-894c-9d276b94e9b1",
        "meta": {
          "profile": [
            "http://hl7.eu/fhir/laboratory/StructureDefinition/Observation-resultslab-eu-lab"
          ]
        },
        "performer": [
          {
            "display": "The Central European Lab"
          }
        ],
        "category": [
          {
            "coding": [
              {
                "system": "http://terminology.hl7.org/CodeSystem/observation-category",
                "code": "laboratory"
              }
            ]
          }
        ],
        "code": {
          "coding": [
            {
              "code": "25428-4",
              "system": "http://loinc.org",
              "display": "Glucose [Presence] in Urine by Test strip"
            }
          ],
          "text": "Glucose [Presence] in Urine by Test strip"
        },
        "text": {
          "status": "generated",
          "div": "<div xmlns=\"http://www.w3.org/1999/xhtml\"><table class=\"hl7__eu__lab__report\"><tr><th>Test</th><th>18-Jun-2025</th><th>Reference&#xA0;Range</th><th>Unit</th></tr><tr><td>Glucose [Presence] in Urine by Test strip</td></tr></table></div>"
        },
        "status": "final",
        "subject": {
          "reference": "urn:uuid:43b7b5ff-313d-4548-b478-41d80458ac9d",
          "display": "Θεμιστοκλής Λιναρδάκη"
        },
        "effectiveDateTime": "2025-06-18T06:16:00Z",
        "specimen": {
          "reference": "urn:uuid:22bb3629-1271-4fc7-8590-a70591ae17cf"
        }
      }
    },
    {
      "fullUrl": "urn:uuid:b3d07bbd-f189-42ba-b057-5e6e9ebf6e95",
      "resource": {
        "resourceType": "Observation",
        "id": "b3d07bbd-f189-42ba-b057-5e6e9ebf6e95",
        "meta": {
          "profile": [
            "http://hl7.eu/fhir/laboratory/StructureDefinition/Observation-resultslab-eu-lab"
          ]
        },
        "performer": [
          {
            "display": "The Central European Lab"
          }
        ],
        "category": [
          {
            "coding": [
              {
                "system": "http://terminology.hl7.org/CodeSystem/observation-category",
                "code": "laboratory"
              }
            ]
          }
        ],
        "code": {
          "coding": [
            {
              "code": "20505-4",
              "system": "http://loinc.org",
              "display": "Bilirubin.total [Mass/volume] in Urine by Test strip"
            }
          ],
          "text": "Bilirubin.total [Mass/volume] in Urine by Test strip"
        },
        "valueQuantity": {
          "system": "http://unitsofmeasure.org",
          "value": 0.3,
          "unit": "mg/dL",
          "code": "mg/dL"
        },
        "referenceRange": [
          {
            "low": {
              "value": 0.2,
              "code": "mg/dL",
              "system": "http://unitsofmeasure.org"
            }
          },
          {
            "high": {
              "value": 1,
              "code": "mg/dL",
              "system": "http://unitsofmeasure.org"
            }
          }
        ],
        "text": {
          "status": "generated",
          "div": "<div xmlns=\"http://www.w3.org/1999/xhtml\"><table class=\"hl7__eu__lab__report\"><tr><th>Test</th><th>18-Jun-2025</th><th>Reference&#xA0;Range</th><th>Unit</th></tr><tr><td>Bilirubin.total [Mass/volume] in Urine by Test strip</td><td>0.3</td><td>0.2 - 1</td><td></td><td>mg/dL</td></tr></table></div>"
        },
        "status": "final",
        "subject": {
          "reference": "urn:uuid:43b7b5ff-313d-4548-b478-41d80458ac9d",
          "display": "Θεμιστοκλής Λιναρδάκη"
        },
        "effectiveDateTime": "2025-06-18T06:16:00Z",
        "specimen": {
          "reference": "urn:uuid:22bb3629-1271-4fc7-8590-a70591ae17cf"
        }
      }
    },
    {
      "fullUrl": "urn:uuid:1e47ebce-0dfe-461b-87bc-6f9312b4df87",
      "resource": {
        "resourceType": "Observation",
        "id": "1e47ebce-0dfe-461b-87bc-6f9312b4df87",
        "meta": {
          "profile": [
            "http://hl7.eu/fhir/laboratory/StructureDefinition/Observation-resultslab-eu-lab"
          ]
        },
        "performer": [
          {
            "display": "The Central European Lab"
          }
        ],
        "category": [
          {
            "coding": [
              {
                "system": "http://terminology.hl7.org/CodeSystem/observation-category",
                "code": "laboratory"
              }
            ]
          }
        ],
        "code": {
          "coding": [
            {
              "code": "5770-3",
              "system": "http://loinc.org",
              "display": "Bilirubin.total [Presence] in Urine by Test strip"
            }
          ],
          "text": "Bilirubin.total [Presence] in Urine by Test strip"
        },
        "text": {
          "status": "generated",
          "div": "<div xmlns=\"http://www.w3.org/1999/xhtml\"><table class=\"hl7__eu__lab__report\"><tr><th>Test</th><th>18-Jun-2025</th><th>Reference&#xA0;Range</th><th>Unit</th></tr><tr><td>Bilirubin.total [Presence] in Urine by Test strip</td></tr></table></div>"
        },
        "status": "final",
        "subject": {
          "reference": "urn:uuid:43b7b5ff-313d-4548-b478-41d80458ac9d",
          "display": "Θεμιστοκλής Λιναρδάκη"
        },
        "effectiveDateTime": "2025-06-18T06:16:00Z",
        "specimen": {
          "reference": "urn:uuid:22bb3629-1271-4fc7-8590-a70591ae17cf"
        }
      }
    },
    {
      "fullUrl": "urn:uuid:0e12dd8c-f153-4ca6-a8b0-88771cfc2779",
      "resource": {
        "resourceType": "Observation",
        "id": "0e12dd8c-f153-4ca6-a8b0-88771cfc2779",
        "meta": {
          "profile": [
            "http://hl7.eu/fhir/laboratory/StructureDefinition/Observation-resultslab-eu-lab"
          ]
        },
        "performer": [
          {
            "display": "The Central European Lab"
          }
        ],
        "category": [
          {
            "coding": [
              {
                "system": "http://terminology.hl7.org/CodeSystem/observation-category",
                "code": "laboratory"
              }
            ]
          }
        ],
        "code": {
          "coding": [
            {
              "code": "5797-6",
              "system": "http://loinc.org",
              "display": "Ketones [Mass/volume] in Urine by Test strip"
            }
          ],
          "text": "Ketones [Mass/volume] in Urine by Test strip"
        },
        "valueQuantity": {
          "system": "http://unitsofmeasure.org",
          "value": 16.5,
          "unit": "mg/dL",
          "code": "mg/dL"
        },
        "referenceRange": [
          {
            "low": {
              "value": 0,
              "code": "mg/dL",
              "system": "http://unitsofmeasure.org"
            }
          },
          {
            "high": {
              "value": 5,
              "code": "mg/dL",
              "system": "http://unitsofmeasure.org"
            }
          }
        ],
        "interpretation": [
          {
            "coding": [
              {
                "code": "H",
                "system": "http://terminology.hl7.org/CodeSystem/v3-ObservationInterpretation",
                "display": "High"
              }
            ]
          }
        ],
        "text": {
          "status": "generated",
          "div": "<div xmlns=\"http://www.w3.org/1999/xhtml\"><table class=\"hl7__eu__lab__report\"><tr><th>Test</th><th>18-Jun-2025</th><th>Reference&#xA0;Range</th><th>Unit</th></tr><tr><td>Ketones [Mass/volume] in Urine by Test strip</td><td>16.5</td><td>0 - 5</td><td>H</td><td>mg/dL</td></tr></table></div>"
        },
        "status": "final",
        "subject": {
          "reference": "urn:uuid:43b7b5ff-313d-4548-b478-41d80458ac9d",
          "display": "Θεμιστοκλής Λιναρδάκη"
        },
        "effectiveDateTime": "2025-06-18T06:16:00Z",
        "specimen": {
          "reference": "urn:uuid:22bb3629-1271-4fc7-8590-a70591ae17cf"
        }
      }
    },
    {
      "fullUrl": "urn:uuid:1c69e32a-6637-401c-912c-2ee433e2536b",
      "resource": {
        "resourceType": "Observation",
        "id": "1c69e32a-6637-401c-912c-2ee433e2536b",
        "meta": {
          "profile": [
            "http://hl7.eu/fhir/laboratory/StructureDefinition/Observation-resultslab-eu-lab"
          ]
        },
        "performer": [
          {
            "display": "The Central European Lab"
          }
        ],
        "category": [
          {
            "coding": [
              {
                "system": "http://terminology.hl7.org/CodeSystem/observation-category",
                "code": "laboratory"
              }
            ]
          }
        ],
        "code": {
          "coding": [
            {
              "code": "2514-8",
              "system": "http://loinc.org",
              "display": "Ketones [Presence] in Urine by Test strip"
            }
          ],
          "text": "Ketones [Presence] in Urine by Test strip"
        },
        "text": {
          "status": "generated",
          "div": "<div xmlns=\"http://www.w3.org/1999/xhtml\"><table class=\"hl7__eu__lab__report\"><tr><th>Test</th><th>18-Jun-2025</th><th>Reference&#xA0;Range</th><th>Unit</th></tr><tr><td>Ketones [Presence] in Urine by Test strip</td></tr></table></div>"
        },
        "status": "final",
        "subject": {
          "reference": "urn:uuid:43b7b5ff-313d-4548-b478-41d80458ac9d",
          "display": "Θεμιστοκλής Λιναρδάκη"
        },
        "effectiveDateTime": "2025-06-18T06:16:00Z",
        "specimen": {
          "reference": "urn:uuid:22bb3629-1271-4fc7-8590-a70591ae17cf"
        }
      }
    },
    {
      "fullUrl": "urn:uuid:9130d3a5-aaa5-4de0-8c14-60ac2f54aba2",
      "resource": {
        "resourceType": "Observation",
        "id": "9130d3a5-aaa5-4de0-8c14-60ac2f54aba2",
        "meta": {
          "profile": [
            "http://hl7.eu/fhir/laboratory/StructureDefinition/Observation-resultslab-eu-lab"
          ]
        },
        "performer": [
          {
            "display": "The Central European Lab"
          }
        ],
        "category": [
          {
            "coding": [
              {
                "system": "http://terminology.hl7.org/CodeSystem/observation-category",
                "code": "laboratory"
              }
            ]
          }
        ],
        "code": {
          "coding": [
            {
              "code": "5811-5",
              "system": "http://loinc.org",
              "display": "Specific gravity of Urine by Test strip"
            }
          ],
          "text": "Specific gravity of Urine by Test strip"
        },
        "valueQuantity": {
          "system": "http://unitsofmeasure.org",
          "value": 1,
          "unit": "{nominal}",
          "code": "{nominal}"
        },
        "referenceRange": [
          {
            "low": {
              "value": 1.005,
              "code": "g/mL",
              "system": "http://unitsofmeasure.org"
            }
          },
          {
            "high": {
              "value": 1.03,
              "code": "g/mL",
              "system": "http://unitsofmeasure.org"
            }
          }
        ],
        "interpretation": [
          {
            "coding": [
              {
                "code": "L",
                "system": "http://terminology.hl7.org/CodeSystem/v3-ObservationInterpretation",
                "display": "Low"
              }
            ]
          }
        ],
        "text": {
          "status": "generated",
          "div": "<div xmlns=\"http://www.w3.org/1999/xhtml\"><table class=\"hl7__eu__lab__report\"><tr><th>Test</th><th>18-Jun-2025</th><th>Reference&#xA0;Range</th><th>Unit</th></tr><tr><td>Specific gravity of Urine by Test strip</td><td>1.0</td><td>1.005 - 1.03</td><td>L</td><td>{nominal}</td></tr></table></div>"
        },
        "status": "final",
        "subject": {
          "reference": "urn:uuid:43b7b5ff-313d-4548-b478-41d80458ac9d",
          "display": "Θεμιστοκλής Λιναρδάκη"
        },
        "effectiveDateTime": "2025-06-18T06:16:00Z",
        "specimen": {
          "reference": "urn:uuid:22bb3629-1271-4fc7-8590-a70591ae17cf"
        }
      }
    },
    {
      "fullUrl": "urn:uuid:c3676c22-33e6-4cee-acfb-a0df8a1d02df",
      "resource": {
        "resourceType": "Observation",
        "id": "c3676c22-33e6-4cee-acfb-a0df8a1d02df",
        "meta": {
          "profile": [
            "http://hl7.eu/fhir/laboratory/StructureDefinition/Observation-resultslab-eu-lab"
          ]
        },
        "performer": [
          {
            "display": "The Central European Lab"
          }
        ],
        "category": [
          {
            "coding": [
              {
                "system": "http://terminology.hl7.org/CodeSystem/observation-category",
                "code": "laboratory"
              }
            ]
          }
        ],
        "code": {
          "coding": [
            {
              "code": "5803-2",
              "system": "http://loinc.org",
              "display": "pH of Urine by Test strip"
            }
          ],
          "text": "pH of Urine by Test strip"
        },
        "valueQuantity": {
          "system": "http://unitsofmeasure.org",
          "value": 6.6,
          "unit": "pH",
          "code": "pH"
        },
        "referenceRange": [
          {
            "low": {
              "value": 4.6,
              "code": "pH",
              "system": "http://unitsofmeasure.org"
            }
          },
          {
            "high": {
              "value": 7,
              "code": "pH",
              "system": "http://unitsofmeasure.org"
            }
          }
        ],
        "text": {
          "status": "generated",
          "div": "<div xmlns=\"http://www.w3.org/1999/xhtml\"><table class=\"hl7__eu__lab__report\"><tr><th>Test</th><th>18-Jun-2025</th><th>Reference&#xA0;Range</th><th>Unit</th></tr><tr><td>pH of Urine by Test strip</td><td>6.6</td><td>4.6 - 7</td><td></td><td>pH</td></tr></table></div>"
        },
        "status": "final",
        "subject": {
          "reference": "urn:uuid:43b7b5ff-313d-4548-b478-41d80458ac9d",
          "display": "Θεμιστοκλής Λιναρδάκη"
        },
        "effectiveDateTime": "2025-06-18T06:16:00Z",
        "specimen": {
          "reference": "urn:uuid:22bb3629-1271-4fc7-8590-a70591ae17cf"
        }
      }
    },
    {
      "fullUrl": "urn:uuid:4d5ef4c9-978c-4e6b-9307-5dbcaefade5f",
      "resource": {
        "resourceType": "Observation",
        "id": "4d5ef4c9-978c-4e6b-9307-5dbcaefade5f",
        "meta": {
          "profile": [
            "http://hl7.eu/fhir/laboratory/StructureDefinition/Observation-resultslab-eu-lab"
          ]
        },
        "performer": [
          {
            "display": "The Central European Lab"
          }
        ],
        "category": [
          {
            "coding": [
              {
                "system": "http://terminology.hl7.org/CodeSystem/observation-category",
                "code": "laboratory"
              }
            ]
          }
        ],
        "code": {
          "coding": [
            {
              "code": "5804-0",
              "system": "http://loinc.org",
              "display": "Protein [Mass/volume] in Urine by Test strip"
            }
          ],
          "text": "Protein [Mass/volume] in Urine by Test strip"
        },
        "valueQuantity": {
          "system": "http://unitsofmeasure.org",
          "value": 243.1,
          "unit": "mg/dL",
          "code": "mg/dL"
        },
        "referenceRange": [
          {
            "low": {
              "value": 0,
              "code": "mg/dL",
              "system": "http://unitsofmeasure.org"
            }
          },
          {
            "high": {
              "value": 150,
              "code": "mg/dL",
              "system": "http://unitsofmeasure.org"
            }
          }
        ],
        "interpretation": [
          {
            "coding": [
              {
                "code": "H",
                "system": "http://terminology.hl7.org/CodeSystem/v3-ObservationInterpretation",
                "display": "High"
              }
            ]
          }
        ],
        "text": {
          "status": "generated",
          "div": "<div xmlns=\"http://www.w3.org/1999/xhtml\"><table class=\"hl7__eu__lab__report\"><tr><th>Test</th><th>18-Jun-2025</th><th>Reference&#xA0;Range</th><th>Unit</th></tr><tr><td>Protein [Mass/volume] in Urine by Test strip</td><td>243.1</td><td>0 - 150</td><td>H</td><td>mg/dL</td></tr></table></div>"
        },
        "status": "final",
        "subject": {
          "reference": "urn:uuid:43b7b5ff-313d-4548-b478-41d80458ac9d",
          "display": "Θεμιστοκλής Λιναρδάκη"
        },
        "effectiveDateTime": "2025-06-18T06:16:00Z",
        "specimen": {
          "reference": "urn:uuid:22bb3629-1271-4fc7-8590-a70591ae17cf"
        }
      }
    },
    {
      "fullUrl": "urn:uuid:ca01219b-cd8c-42b1-81ef-d3adc183d7f3",
      "resource": {
        "resourceType": "Observation",
        "id": "ca01219b-cd8c-42b1-81ef-d3adc183d7f3",
        "meta": {
          "profile": [
            "http://hl7.eu/fhir/laboratory/StructureDefinition/Observation-resultslab-eu-lab"
          ]
        },
        "performer": [
          {
            "display": "The Central European Lab"
          }
        ],
        "category": [
          {
            "coding": [
              {
                "system": "http://terminology.hl7.org/CodeSystem/observation-category",
                "code": "laboratory"
              }
            ]
          }
        ],
        "code": {
          "coding": [
            {
              "code": "20454-5",
              "system": "http://loinc.org",
              "display": "Protein [Presence] in Urine by Test strip"
            }
          ],
          "text": "Protein [Presence] in Urine by Test strip"
        },
        "text": {
          "status": "generated",
          "div": "<div xmlns=\"http://www.w3.org/1999/xhtml\"><table class=\"hl7__eu__lab__report\"><tr><th>Test</th><th>18-Jun-2025</th><th>Reference&#xA0;Range</th><th>Unit</th></tr><tr><td>Protein [Presence] in Urine by Test strip</td></tr></table></div>"
        },
        "status": "final",
        "subject": {
          "reference": "urn:uuid:43b7b5ff-313d-4548-b478-41d80458ac9d",
          "display": "Θεμιστοκλής Λιναρδάκη"
        },
        "effectiveDateTime": "2025-06-18T06:16:00Z",
        "specimen": {
          "reference": "urn:uuid:22bb3629-1271-4fc7-8590-a70591ae17cf"
        }
      }
    },
    {
      "fullUrl": "urn:uuid:d88d7c15-86ba-459d-b82d-8575fb0092c2",
      "resource": {
        "resourceType": "Observation",
        "id": "d88d7c15-86ba-459d-b82d-8575fb0092c2",
        "meta": {
          "profile": [
            "http://hl7.eu/fhir/laboratory/StructureDefinition/Observation-resultslab-eu-lab"
          ]
        },
        "performer": [
          {
            "display": "The Central European Lab"
          }
        ],
        "category": [
          {
            "coding": [
              {
                "system": "http://terminology.hl7.org/CodeSystem/observation-category",
                "code": "laboratory"
              }
            ]
          }
        ],
        "code": {
          "coding": [
            {
              "code": "5802-4",
              "system": "http://loinc.org",
              "display": "Nitrite [Presence] in Urine by Test strip"
            }
          ],
          "text": "Nitrite [Presence] in Urine by Test strip"
        },
        "text": {
          "status": "generated",
          "div": "<div xmlns=\"http://www.w3.org/1999/xhtml\"><table class=\"hl7__eu__lab__report\"><tr><th>Test</th><th>18-Jun-2025</th><th>Reference&#xA0;Range</th><th>Unit</th></tr><tr><td>Nitrite [Presence] in Urine by Test strip</td></tr></table></div>"
        },
        "status": "final",
        "subject": {
          "reference": "urn:uuid:43b7b5ff-313d-4548-b478-41d80458ac9d",
          "display": "Θεμιστοκλής Λιναρδάκη"
        },
        "effectiveDateTime": "2025-06-18T06:16:00Z",
        "specimen": {
          "reference": "urn:uuid:22bb3629-1271-4fc7-8590-a70591ae17cf"
        }
      }
    },
    {
      "fullUrl": "urn:uuid:f971dc52-668e-4ef0-8139-01e1461e483d",
      "resource": {
        "resourceType": "Observation",
        "id": "f971dc52-668e-4ef0-8139-01e1461e483d",
        "meta": {
          "profile": [
            "http://hl7.eu/fhir/laboratory/StructureDefinition/Observation-resultslab-eu-lab"
          ]
        },
        "performer": [
          {
            "display": "The Central European Lab"
          }
        ],
        "category": [
          {
            "coding": [
              {
                "system": "http://terminology.hl7.org/CodeSystem/observation-category",
                "code": "laboratory"
              }
            ]
          }
        ],
        "code": {
          "coding": [
            {
              "code": "5794-3",
              "system": "http://loinc.org",
              "display": "Hemoglobin [Presence] in Urine by Test strip"
            }
          ],
          "text": "Hemoglobin [Presence] in Urine by Test strip"
        },
        "text": {
          "status": "generated",
          "div": "<div xmlns=\"http://www.w3.org/1999/xhtml\"><table class=\"hl7__eu__lab__report\"><tr><th>Test</th><th>18-Jun-2025</th><th>Reference&#xA0;Range</th><th>Unit</th></tr><tr><td>Hemoglobin [Presence] in Urine by Test strip</td></tr></table></div>"
        },
        "status": "final",
        "subject": {
          "reference": "urn:uuid:43b7b5ff-313d-4548-b478-41d80458ac9d",
          "display": "Θεμιστοκλής Λιναρδάκη"
        },
        "effectiveDateTime": "2025-06-18T06:16:00Z",
        "specimen": {
          "reference": "urn:uuid:22bb3629-1271-4fc7-8590-a70591ae17cf"
        }
      }
    },
    {
      "fullUrl": "urn:uuid:12455bcd-d9dd-4fe3-a065-eb33a3db5402",
      "resource": {
        "resourceType": "Observation",
        "id": "12455bcd-d9dd-4fe3-a065-eb33a3db5402",
        "meta": {
          "profile": [
            "http://hl7.eu/fhir/laboratory/StructureDefinition/Observation-resultslab-eu-lab"
          ]
        },
        "performer": [
          {
            "display": "The Central European Lab"
          }
        ],
        "category": [
          {
            "coding": [
              {
                "system": "http://terminology.hl7.org/CodeSystem/observation-category",
                "code": "laboratory"
              }
            ]
          }
        ],
        "code": {
          "coding": [
            {
              "code": "5799-2",
              "system": "http://loinc.org",
              "display": "Leukocyte esterase [Presence] in Urine by Test strip"
            }
          ],
          "text": "Leukocyte esterase [Presence] in Urine by Test strip"
        },
        "text": {
          "status": "generated",
          "div": "<div xmlns=\"http://www.w3.org/1999/xhtml\"><table class=\"hl7__eu__lab__report\"><tr><th>Test</th><th>18-Jun-2025</th><th>Reference&#xA0;Range</th><th>Unit</th></tr><tr><td>Leukocyte esterase [Presence] in Urine by Test strip</td></tr></table></div>"
        },
        "status": "final",
        "subject": {
          "reference": "urn:uuid:43b7b5ff-313d-4548-b478-41d80458ac9d",
          "display": "Θεμιστοκλής Λιναρδάκη"
        },
        "effectiveDateTime": "2025-06-18T06:16:00Z",
        "specimen": {
          "reference": "urn:uuid:22bb3629-1271-4fc7-8590-a70591ae17cf"
        }
      }
    },
    {
      "fullUrl": "urn:uuid:7d86f66e-9d39-4c78-bf28-c0154dbb6783",
      "resource": {
        "resourceType": "Observation",
        "id": "7d86f66e-9d39-4c78-bf28-c0154dbb6783",
        "meta": {
          "profile": [
            "http://hl7.eu/fhir/laboratory/StructureDefinition/Observation-resultslab-eu-lab"
          ]
        },
        "performer": [
          {
            "display": "The Central European Lab"
          }
        ],
        "category": [
          {
            "coding": [
              {
                "system": "http://terminology.hl7.org/CodeSystem/observation-category",
                "code": "laboratory"
              }
            ]
          }
        ],
        "code": {
          "coding": [
            {
              "code": "4548-4",
              "system": "http://loinc.org",
              "display": "Hemoglobin A1c/Hemoglobin.total in Blood"
            }
          ],
          "text": "Hemoglobin A1c/Hemoglobin.total in Blood"
        },
        "valueQuantity": {
          "system": "http://unitsofmeasure.org",
          "value": 3,
          "unit": "%",
          "code": "%"
        },
        "referenceRange": [
          {
            "low": {
              "value": 4.3,
              "code": "%",
              "system": "http://unitsofmeasure.org"
            }
          },
          {
            "high": {
              "value": 6.4,
              "code": "%",
              "system": "http://unitsofmeasure.org"
            }
          }
        ],
        "interpretation": [
          {
            "coding": [
              {
                "code": "L",
                "system": "http://terminology.hl7.org/CodeSystem/v3-ObservationInterpretation",
                "display": "Low"
              }
            ]
          }
        ],
        "text": {
          "status": "generated",
          "div": "<div xmlns=\"http://www.w3.org/1999/xhtml\"><table class=\"hl7__eu__lab__report\"><tr><th>Test</th><th>18-Jun-2025</th><th>Reference&#xA0;Range</th><th>Unit</th></tr><tr><td>Hemoglobin A1c/Hemoglobin.total in Blood</td><td>3.0</td><td>4.3 - 6.4</td><td>L</td><td>%</td></tr></table></div>"
        },
        "status": "final",
        "subject": {
          "reference": "urn:uuid:43b7b5ff-313d-4548-b478-41d80458ac9d",
          "display": "Θεμιστοκλής Λιναρδάκη"
        },
        "effectiveDateTime": "2025-06-18T06:16:00Z",
        "specimen": {
          "reference": "urn:uuid:a8608f4a-05fb-41d9-97e0-ca95359fbe83"
        }
      }
    },
    {
      "fullUrl": "urn:uuid:badd11fd-016a-4e6c-afa2-eb6feeae7092",
      "resource": {
        "resourceType": "Observation",
        "id": "badd11fd-016a-4e6c-afa2-eb6feeae7092",
        "meta": {
          "profile": [
            "http://hl7.eu/fhir/laboratory/StructureDefinition/Observation-resultslab-eu-lab"
          ]
        },
        "performer": [
          {
            "display": "The Central European Lab"
          }
        ],
        "category": [
          {
            "coding": [
              {
                "system": "http://terminology.hl7.org/CodeSystem/observation-category",
                "code": "laboratory"
              }
            ]
          }
        ],
        "code": {
          "coding": [
            {
              "code": "2339-0",
              "system": "http://loinc.org",
              "display": "Glucose [Mass/volume] in Blood"
            }
          ],
          "text": "Glucose [Mass/volume] in Blood"
        },
        "valueQuantity": {
          "system": "http://unitsofmeasure.org",
          "value": 68.6,
          "unit": "mg/dL",
          "code": "mg/dL"
        },
        "referenceRange": [
          {
            "low": {
              "value": 70,
              "code": "mg/dL",
              "system": "http://unitsofmeasure.org"
            }
          },
          {
            "high": {
              "value": 140,
              "code": "mg/dL",
              "system": "http://unitsofmeasure.org"
            }
          }
        ],
        "interpretation": [
          {
            "coding": [
              {
                "code": "L",
                "system": "http://terminology.hl7.org/CodeSystem/v3-ObservationInterpretation",
                "display": "Low"
              }
            ]
          }
        ],
        "text": {
          "status": "generated",
          "div": "<div xmlns=\"http://www.w3.org/1999/xhtml\"><table class=\"hl7__eu__lab__report\"><tr><th>Test</th><th>18-Jun-2025</th><th>Reference&#xA0;Range</th><th>Unit</th></tr><tr><td>Glucose [Mass/volume] in Blood</td><td>68.6</td><td>70 - 140</td><td>L</td><td>mg/dL</td></tr></table></div>"
        },
        "status": "final",
        "subject": {
          "reference": "urn:uuid:43b7b5ff-313d-4548-b478-41d80458ac9d",
          "display": "Θεμιστοκλής Λιναρδάκη"
        },
        "effectiveDateTime": "2025-06-18T06:16:00Z",
        "specimen": {
          "reference": "urn:uuid:a8608f4a-05fb-41d9-97e0-ca95359fbe83"
        }
      }
    },
    {
      "fullUrl": "urn:uuid:50387b41-bc66-48d9-b582-215bfa53d48e",
      "resource": {
        "resourceType": "Observation",
        "id": "50387b41-bc66-48d9-b582-215bfa53d48e",
        "meta": {
          "profile": [
            "http://hl7.eu/fhir/laboratory/StructureDefinition/Observation-resultslab-eu-lab"
          ]
        },
        "performer": [
          {
            "display": "The Central European Lab"
          }
        ],
        "category": [
          {
            "coding": [
              {
                "system": "http://terminology.hl7.org/CodeSystem/observation-category",
                "code": "laboratory"
              }
            ]
          }
        ],
        "code": {
          "coding": [
            {
              "code": "6299-2",
              "system": "http://loinc.org",
              "display": "Urea nitrogen [Mass/volume] in Blood"
            }
          ],
          "text": "Urea nitrogen [Mass/volume] in Blood"
        },
        "valueQuantity": {
          "system": "http://unitsofmeasure.org",
          "value": 19.4,
          "unit": "mg/dL",
          "code": "mg/dL"
        },
        "referenceRange": [
          {
            "low": {
              "value": 7,
              "code": "mg/dL",
              "system": "http://unitsofmeasure.org"
            }
          },
          {
            "high": {
              "value": 20,
              "code": "mg/dL",
              "system": "http://unitsofmeasure.org"
            }
          }
        ],
        "text": {
          "status": "generated",
          "div": "<div xmlns=\"http://www.w3.org/1999/xhtml\"><table class=\"hl7__eu__lab__report\"><tr><th>Test</th><th>18-Jun-2025</th><th>Reference&#xA0;Range</th><th>Unit</th></tr><tr><td>Urea nitrogen [Mass/volume] in Blood</td><td>19.4</td><td>7 - 20</td><td></td><td>mg/dL</td></tr></table></div>"
        },
        "status": "final",
        "subject": {
          "reference": "urn:uuid:43b7b5ff-313d-4548-b478-41d80458ac9d",
          "display": "Θεμιστοκλής Λιναρδάκη"
        },
        "effectiveDateTime": "2025-06-18T06:16:00Z",
        "specimen": {
          "reference": "urn:uuid:a8608f4a-05fb-41d9-97e0-ca95359fbe83"
        }
      }
    },
    {
      "fullUrl": "urn:uuid:44c63c65-087a-4d91-8e69-12d9b64db3a2",
      "resource": {
        "resourceType": "Observation",
        "id": "44c63c65-087a-4d91-8e69-12d9b64db3a2",
        "meta": {
          "profile": [
            "http://hl7.eu/fhir/laboratory/StructureDefinition/Observation-resultslab-eu-lab"
          ]
        },
        "performer": [
          {
            "display": "The Central European Lab"
          }
        ],
        "category": [
          {
            "coding": [
              {
                "system": "http://terminology.hl7.org/CodeSystem/observation-category",
                "code": "laboratory"
              }
            ]
          }
        ],
        "code": {
          "coding": [
            {
              "code": "38483-4",
              "system": "http://loinc.org",
              "display": "Creatinine [Mass/volume] in Blood"
            }
          ],
          "text": "Creatinine [Mass/volume] in Blood"
        },
        "valueQuantity": {
          "system": "http://unitsofmeasure.org",
          "value": 5.3,
          "unit": "mg/dL",
          "code": "mg/dL"
        },
        "referenceRange": [
          {
            "low": {
              "value": 0.6,
              "code": "mg/dL",
              "system": "http://unitsofmeasure.org"
            }
          },
          {
            "high": {
              "value": 1.3,
              "code": "mg/dL",
              "system": "http://unitsofmeasure.org"
            }
          }
        ],
        "interpretation": [
          {
            "coding": [
              {
                "code": "H",
                "system": "http://terminology.hl7.org/CodeSystem/v3-ObservationInterpretation",
                "display": "High"
              }
            ]
          }
        ],
        "text": {
          "status": "generated",
          "div": "<div xmlns=\"http://www.w3.org/1999/xhtml\"><table class=\"hl7__eu__lab__report\"><tr><th>Test</th><th>18-Jun-2025</th><th>Reference&#xA0;Range</th><th>Unit</th></tr><tr><td>Creatinine [Mass/volume] in Blood</td><td>5.3</td><td>0.6 - 1.3</td><td>H</td><td>mg/dL</td></tr></table></div>"
        },
        "status": "final",
        "subject": {
          "reference": "urn:uuid:43b7b5ff-313d-4548-b478-41d80458ac9d",
          "display": "Θεμιστοκλής Λιναρδάκη"
        },
        "effectiveDateTime": "2025-06-18T06:16:00Z",
        "specimen": {
          "reference": "urn:uuid:a8608f4a-05fb-41d9-97e0-ca95359fbe83"
        }
      }
    },
    {
      "fullUrl": "urn:uuid:9a8967e2-0fcf-4bd2-8f62-03c54e6f162f",
      "resource": {
        "resourceType": "Observation",
        "id": "9a8967e2-0fcf-4bd2-8f62-03c54e6f162f",
        "meta": {
          "profile": [
            "http://hl7.eu/fhir/laboratory/StructureDefinition/Observation-resultslab-eu-lab"
          ]
        },
        "performer": [
          {
            "display": "The Central European Lab"
          }
        ],
        "category": [
          {
            "coding": [
              {
                "system": "http://terminology.hl7.org/CodeSystem/observation-category",
                "code": "laboratory"
              }
            ]
          }
        ],
        "code": {
          "coding": [
            {
              "code": "49765-1",
              "system": "http://loinc.org",
              "display": "Calcium [Mass/volume] in Blood"
            }
          ],
          "text": "Calcium [Mass/volume] in Blood"
        },
        "valueQuantity": {
          "system": "http://unitsofmeasure.org",
          "value": 10.2,
          "unit": "mg/dL",
          "code": "mg/dL"
        },
        "referenceRange": [
          {
            "low": {
              "value": 8.5,
              "code": "mg/dL",
              "system": "http://unitsofmeasure.org"
            }
          },
          {
            "high": {
              "value": 10.5,
              "code": "mg/dL",
              "system": "http://unitsofmeasure.org"
            }
          }
        ],
        "text": {
          "status": "generated",
          "div": "<div xmlns=\"http://www.w3.org/1999/xhtml\"><table class=\"hl7__eu__lab__report\"><tr><th>Test</th><th>18-Jun-2025</th><th>Reference&#xA0;Range</th><th>Unit</th></tr><tr><td>Calcium [Mass/volume] in Blood</td><td>10.2</td><td>8.5 - 10.5</td><td></td><td>mg/dL</td></tr></table></div>"
        },
        "status": "final",
        "subject": {
          "reference": "urn:uuid:43b7b5ff-313d-4548-b478-41d80458ac9d",
          "display": "Θεμιστοκλής Λιναρδάκη"
        },
        "effectiveDateTime": "2025-06-18T06:16:00Z",
        "specimen": {
          "reference": "urn:uuid:a8608f4a-05fb-41d9-97e0-ca95359fbe83"
        }
      }
    },
    {
      "fullUrl": "urn:uuid:01beeaa0-acdd-489d-af93-a2c79d2f3d58",
      "resource": {
        "resourceType": "Observation",
        "id": "01beeaa0-acdd-489d-af93-a2c79d2f3d58",
        "meta": {
          "profile": [
            "http://hl7.eu/fhir/laboratory/StructureDefinition/Observation-resultslab-eu-lab"
          ]
        },
        "performer": [
          {
            "display": "The Central European Lab"
          }
        ],
        "category": [
          {
            "coding": [
              {
                "system": "http://terminology.hl7.org/CodeSystem/observation-category",
                "code": "laboratory"
              }
            ]
          }
        ],
        "code": {
          "coding": [
            {
              "code": "2947-0",
              "system": "http://loinc.org",
              "display": "Sodium [Moles/volume] in Blood"
            }
          ],
          "text": "Sodium [Moles/volume] in Blood"
        },
        "valueQuantity": {
          "system": "http://unitsofmeasure.org",
          "value": 137.6,
          "unit": "mmol/L",
          "code": "mmol/L"
        },
        "referenceRange": [
          {
            "low": {
              "value": 135,
              "code": "mmol/L",
              "system": "http://unitsofmeasure.org"
            }
          },
          {
            "high": {
              "value": 145,
              "code": "mmol/L",
              "system": "http://unitsofmeasure.org"
            }
          }
        ],
        "text": {
          "status": "generated",
          "div": "<div xmlns=\"http://www.w3.org/1999/xhtml\"><table class=\"hl7__eu__lab__report\"><tr><th>Test</th><th>18-Jun-2025</th><th>Reference&#xA0;Range</th><th>Unit</th></tr><tr><td>Sodium [Moles/volume] in Blood</td><td>137.6</td><td>135 - 145</td><td></td><td>mmol/L</td></tr></table></div>"
        },
        "status": "final",
        "subject": {
          "reference": "urn:uuid:43b7b5ff-313d-4548-b478-41d80458ac9d",
          "display": "Θεμιστοκλής Λιναρδάκη"
        },
        "effectiveDateTime": "2025-06-18T06:16:00Z",
        "specimen": {
          "reference": "urn:uuid:a8608f4a-05fb-41d9-97e0-ca95359fbe83"
        }
      }
    },
    {
      "fullUrl": "urn:uuid:4adcd7dc-3abf-44f4-9af0-9cbbd967f079",
      "resource": {
        "resourceType": "Observation",
        "id": "4adcd7dc-3abf-44f4-9af0-9cbbd967f079",
        "meta": {
          "profile": [
            "http://hl7.eu/fhir/laboratory/StructureDefinition/Observation-resultslab-eu-lab"
          ]
        },
        "performer": [
          {
            "display": "The Central European Lab"
          }
        ],
        "category": [
          {
            "coding": [
              {
                "system": "http://terminology.hl7.org/CodeSystem/observation-category",
                "code": "laboratory"
              }
            ]
          }
        ],
        "code": {
          "coding": [
            {
              "code": "6298-4",
              "system": "http://loinc.org",
              "display": "Potassium [Moles/volume] in Blood"
            }
          ],
          "text": "Potassium [Moles/volume] in Blood"
        },
        "valueQuantity": {
          "system": "http://unitsofmeasure.org",
          "value": 4.1,
          "unit": "mmol/L",
          "code": "mmol/L"
        },
        "referenceRange": [
          {
            "low": {
              "value": 3.5,
              "code": "mmol/L",
              "system": "http://unitsofmeasure.org"
            }
          },
          {
            "high": {
              "value": 5.3,
              "code": "mmol/L",
              "system": "http://unitsofmeasure.org"
            }
          }
        ],
        "text": {
          "status": "generated",
          "div": "<div xmlns=\"http://www.w3.org/1999/xhtml\"><table class=\"hl7__eu__lab__report\"><tr><th>Test</th><th>18-Jun-2025</th><th>Reference&#xA0;Range</th><th>Unit</th></tr><tr><td>Potassium [Moles/volume] in Blood</td><td>4.1</td><td>3.5 - 5.3</td><td></td><td>mmol/L</td></tr></table></div>"
        },
        "status": "final",
        "subject": {
          "reference": "urn:uuid:43b7b5ff-313d-4548-b478-41d80458ac9d",
          "display": "Θεμιστοκλής Λιναρδάκη"
        },
        "effectiveDateTime": "2025-06-18T06:16:00Z",
        "specimen": {
          "reference": "urn:uuid:a8608f4a-05fb-41d9-97e0-ca95359fbe83"
        }
      }
    },
    {
      "fullUrl": "urn:uuid:1ef403ca-b366-4ec4-bc47-605d3b861b6c",
      "resource": {
        "resourceType": "Observation",
        "id": "1ef403ca-b366-4ec4-bc47-605d3b861b6c",
        "meta": {
          "profile": [
            "http://hl7.eu/fhir/laboratory/StructureDefinition/Observation-resultslab-eu-lab"
          ]
        },
        "performer": [
          {
            "display": "The Central European Lab"
          }
        ],
        "category": [
          {
            "coding": [
              {
                "system": "http://terminology.hl7.org/CodeSystem/observation-category",
                "code": "laboratory"
              }
            ]
          }
        ],
        "code": {
          "coding": [
            {
              "code": "2069-3",
              "system": "http://loinc.org",
              "display": "Chloride [Moles/volume] in Blood"
            }
          ],
          "text": "Chloride [Moles/volume] in Blood"
        },
        "valueQuantity": {
          "system": "http://unitsofmeasure.org",
          "value": 109.1,
          "unit": "mmol/L",
          "code": "mmol/L"
        },
        "referenceRange": [
          {
            "low": {
              "value": 98,
              "code": "mmol/L",
              "system": "http://unitsofmeasure.org"
            }
          },
          {
            "high": {
              "value": 110,
              "code": "mmol/L",
              "system": "http://unitsofmeasure.org"
            }
          }
        ],
        "text": {
          "status": "generated",
          "div": "<div xmlns=\"http://www.w3.org/1999/xhtml\"><table class=\"hl7__eu__lab__report\"><tr><th>Test</th><th>18-Jun-2025</th><th>Reference&#xA0;Range</th><th>Unit</th></tr><tr><td>Chloride [Moles/volume] in Blood</td><td>109.1</td><td>98 - 110</td><td></td><td>mmol/L</td></tr></table></div>"
        },
        "status": "final",
        "subject": {
          "reference": "urn:uuid:43b7b5ff-313d-4548-b478-41d80458ac9d",
          "display": "Θεμιστοκλής Λιναρδάκη"
        },
        "effectiveDateTime": "2025-06-18T06:16:00Z",
        "specimen": {
          "reference": "urn:uuid:a8608f4a-05fb-41d9-97e0-ca95359fbe83"
        }
      }
    },
    {
      "fullUrl": "urn:uuid:3b5846ad-b5f3-464c-93a9-be5308e48689",
      "resource": {
        "resourceType": "Observation",
        "id": "3b5846ad-b5f3-464c-93a9-be5308e48689",
        "meta": {
          "profile": [
            "http://hl7.eu/fhir/laboratory/StructureDefinition/Observation-resultslab-eu-lab"
          ]
        },
        "performer": [
          {
            "display": "The Central European Lab"
          }
        ],
        "category": [
          {
            "coding": [
              {
                "system": "http://terminology.hl7.org/CodeSystem/observation-category",
                "code": "laboratory"
              }
            ]
          }
        ],
        "code": {
          "coding": [
            {
              "code": "20565-8",
              "system": "http://loinc.org",
              "display": "Carbon dioxide, total [Moles/volume] in Blood"
            }
          ],
          "text": "Carbon dioxide, total [Moles/volume] in Blood"
        },
        "valueQuantity": {
          "system": "http://unitsofmeasure.org",
          "value": 21.8,
          "unit": "mmol/L",
          "code": "mmol/L"
        },
        "referenceRange": [
          {
            "low": {
              "value": 22,
              "code": "mmol/L",
              "system": "http://unitsofmeasure.org"
            }
          },
          {
            "high": {
              "value": 29,
              "code": "mmol/L",
              "system": "http://unitsofmeasure.org"
            }
          }
        ],
        "interpretation": [
          {
            "coding": [
              {
                "code": "L",
                "system": "http://terminology.hl7.org/CodeSystem/v3-ObservationInterpretation",
                "display": "Low"
              }
            ]
          }
        ],
        "text": {
          "status": "generated",
          "div": "<div xmlns=\"http://www.w3.org/1999/xhtml\"><table class=\"hl7__eu__lab__report\"><tr><th>Test</th><th>18-Jun-2025</th><th>Reference&#xA0;Range</th><th>Unit</th></tr><tr><td>Carbon dioxide, total [Moles/volume] in Blood</td><td>21.8</td><td>22 - 29</td><td>L</td><td>mmol/L</td></tr></table></div>"
        },
        "status": "final",
        "subject": {
          "reference": "urn:uuid:43b7b5ff-313d-4548-b478-41d80458ac9d",
          "display": "Θεμιστοκλής Λιναρδάκη"
        },
        "effectiveDateTime": "2025-06-18T06:16:00Z",
        "specimen": {
          "reference": "urn:uuid:a8608f4a-05fb-41d9-97e0-ca95359fbe83"
        }
      }
    },
    {
      "fullUrl": "urn:uuid:aceeeb99-c782-4160-8313-762674cf6039",
      "resource": {
        "resourceType": "Device",
        "id": "aceeeb99-c782-4160-8313-762674cf6039",
        "deviceName": [
          {
            "name": "SYNDERAI Synthetic Generator",
            "type": "manufacturer-name"
          }
        ],
        "version": [
          {
            "value": "5.0"
          }
        ],
        "text": {
          "status": "generated",
          "div": "<div xmlns=\"http://www.w3.org/1999/xhtml\">SYNDERAI Synthetic Generator v5.0</div>"
        },
        "status": "active\"",
        "distinctIdentifier": "synderai-generator-50",
        "manufacturer": "SYNDERAI Project"
      }
    },
    {
      "fullUrl": "urn:uuid:b8b39467-ec66-4cac-80c4-e18846d1de1d",
      "resource": {
        "resourceType": "Provenance",
        "id": "b8b39467-ec66-4cac-80c4-e18846d1de1d",
        "target": [
          {
            "reference": "Patient/43b7b5ff-313d-4548-b478-41d80458ac9d"
          },
          {
            "reference": "Bundle/22b3bc68-6b52-47aa-bf8a-757478866e6c"
          },
          {
            "reference": "Composition/61eb857c-75f4-448e-b64b-aa755fcca94f"
          },
          {
            "reference": "PractitionerRole/a30300e6-142a-41d4-a872-2424615fe457"
          },
          {
            "reference": "Practitioner/54b18033-e78a-43cb-adef-e50c909fbeec"
          },
          {
            "reference": "PractitionerRole/09e5bce2-d191-423a-b0f6-82391818acd9"
          },
          {
            "reference": "Organization/ecb48123-ad57-489e-8970-b3bdfea618d3"
          }
        ],
        "activity": {
          "text": "Synthetic Example Data Generation"
        },
        "policy": [
          "https://synderai.net/synderai-synthetic-data-policy"
        ],
        "agent": [
          {
            "type": {
              "text": "author"
            },
            "who": {
              "reference": "Device/aceeeb99-c782-4160-8313-762674cf6039"
            }
          }
        ],
        "reason": [
          {
            "text": "Interoperability Testing and Training (non-clinical use)"
          }
        ],
        "text": {
          "status": "generated",
          "div": "<div xmlns=\"http://www.w3.org/1999/xhtml\">Provenance for SYNDERAI Synthetic Example Data Resource</div>"
        },
        "recorded": "2025-06-18T08:16:00Z"
      }
    },
    {
      "fullUrl": "urn:uuid:a30300e6-142a-41d4-a872-2424615fe457",
      "resource": {
        "resourceType": "PractitionerRole",
        "id": "a30300e6-142a-41d4-a872-2424615fe457",
        "meta": {
          "profile": [
            "http://hl7.eu/fhir/base/StructureDefinition/practitionerRole-eu"
          ]
        },
        "text": {
          "status": "generated",
          "div": "<div xmlns=\"http://www.w3.org/1999/xhtml\">Laboratory Role Id: a30300e6-142a-41d4-a872-2424615fe457</div>"
        },
        "practitioner": {
          "reference": "urn:uuid:54b18033-e78a-43cb-adef-e50c909fbeec"
        }
      }
    },
    {
      "fullUrl": "urn:uuid:54b18033-e78a-43cb-adef-e50c909fbeec",
      "resource": {
        "resourceType": "Practitioner",
        "id": "54b18033-e78a-43cb-adef-e50c909fbeec",
        "meta": {
          "profile": [
            "http://hl7.eu/fhir/base/StructureDefinition/practitioner-eu"
          ]
        },
        "identifier": [
          {
            "assigner": {
              "display": "HL7 Europe"
            },
            "system": "urn:oid:2.16.840.1.113883.2.51.999",
            "value": "3ab63dae-4b10-4902-b213-c85ec790adbf"
          }
        ],
        "name": [
          {
            "prefix": [
              "dr"
            ],
            "given": [
              "Ex"
            ],
            "family": "Ample"
          }
        ],
        "address": [
          {
            "line": [
              "Laboratoire Central Européenne",
              "Boulevard du Jardin Botanique 32"
            ],
            "postalCode": "1000",
            "city": "Brussels",
            "country": "Belgium"
          }
        ],
        "text": {
          "status": "generated",
          "div": "<div xmlns=\"http://www.w3.org/1999/xhtml\">Laboratory: Laboratoire Central Européenne, 1000 Brussels, Belgium</div>"
        }
      }
    }
  ],
  "type": "document",
  "timestamp": "2025-06-18T08:16:00Z"
}
