{
  "resourceType": "Bundle",
  "id": "69ae56be-819a-4d46-a361-e6cf78c899fc",
  "meta": {
    "profile": [
      "http://hl7.eu/fhir/laboratory/StructureDefinition/Bundle-eu-lab"
    ]
  },
  "identifier": {
    "assigner": {
      "display": "HL7 Europe"
    },
    "system": "urn:oid:2.16.840.1.113883.2.51.999",
    "value": "43501acf-7ab6-4e32-a25f-365f3469bacf"
  },
  "entry": [
    {
      "fullUrl": "urn:uuid:c52a4e2a-38ee-43da-b6ac-4c5bc8a3cfef",
      "resource": {
        "resourceType": "Composition",
        "id": "c52a4e2a-38ee-43da-b6ac-4c5bc8a3cfef",
        "meta": {
          "profile": [
            "http://hl7.eu/fhir/laboratory/StructureDefinition/Composition-eu-lab"
          ]
        },
        "identifier": {
          "assigner": {
            "display": "HL7 Europe"
          },
          "system": "urn:oid:2.16.840.1.113883.2.51.999",
          "value": "3f9c68db-a6ac-4584-8089-b6638d8bd372"
        },
        "author": [
          {
            "reference": "urn:uuid:1b815ae9-e8f7-4986-b22c-e3f80503410e"
          }
        ],
        "category": [
          {
            "coding": [
              {
                "code": "26436-6",
                "system": "http://loinc.org",
                "display": "Laboratory studies (set)"
              }
            ]
          }
        ],
        "type": {
          "coding": [
            {
              "code": "11502-2",
              "system": "http://loinc.org",
              "display": "Laboratory report"
            }
          ],
          "text": "Laboratory Report"
        },
        "section": [
          {
            "code": {
              "coding": [
                {
                  "code": "26436-6",
                  "system": "http://loinc.org",
                  "display": "Laboratory studies (set)"
                }
              ],
              "text": "Laboratory studies"
            },
            "section": [
              {
                "code": {
                  "coding": [
                    {
                      "code": "$18719-5",
                      "system": "http://loinc.org",
                      "display": "Chemistry studies (set)"
                    }
                  ],
                  "text": "Chemistry"
                },
                "entry": [
                  {
                    "reference": "urn:uuid:660357e7-9381-410b-bb5f-b1be44c6fba3"
                  },
                  {
                    "reference": "urn:uuid:a0ab6c62-3a9a-4fd9-8537-df1bcf7222e0"
                  },
                  {
                    "reference": "urn:uuid:115225ed-8cd8-492c-b94f-10ff29efc9ea"
                  },
                  {
                    "reference": "urn:uuid:d2cc6a92-0afc-46fc-85bb-a0a603608fb2"
                  },
                  {
                    "reference": "urn:uuid:29854ab6-aa7f-4712-b939-0299c5eb94f9"
                  },
                  {
                    "reference": "urn:uuid:f67b44b6-f55a-4eac-ad6f-56fd639fe8cf"
                  },
                  {
                    "reference": "urn:uuid:41bc6993-9c5f-4496-b05f-e6b6b9971062"
                  },
                  {
                    "reference": "urn:uuid:d4efedd0-c955-493e-a5ca-53c807941ae6"
                  },
                  {
                    "reference": "urn:uuid:af1280ef-d186-4ffb-9129-69c3f4a2e1f3"
                  },
                  {
                    "reference": "urn:uuid:1ff04a47-4519-46f9-9426-c80189d8c58a"
                  },
                  {
                    "reference": "urn:uuid:56493396-43d9-40d6-b585-7bd87442c798"
                  },
                  {
                    "reference": "urn:uuid:325c06f8-5ea9-499a-aff3-689107b80dbb"
                  },
                  {
                    "reference": "urn:uuid:4cc567d9-f13c-44dc-9512-483c20f567a9"
                  }
                ],
                "text": {
                  "status": "generated",
                  "div": "<div xmlns=\"http://www.w3.org/1999/xhtml\"><h3>Chemistry</h3><table class=\"hl7__eu__lab__report\"><thead><tr><th>Test</th><th>11-FEB-2016</th><th>Reference&#xA0;Range</th><th>Unit</th></tr></thead><tbody><tr><td>Glucose [Mass/volume] in Serum or Plasma</td><td>71.7</td><td>70 - 140</td><td>mg/dL</td></tr><tr><td>Urea nitrogen [Mass/volume] in Serum or Plasma</td><td>9.6</td><td>7 - 50</td><td>mg/dL</td></tr><tr><td>Creatinine [Mass/volume] in Serum or Plasma</td><td><strong>1.5 H</strong></td><td>0.6 - 1.1</td><td>mg/dL</td></tr><tr><td>Calcium [Mass/volume] in Serum or Plasma</td><td>8.8</td><td>8.5 - 10.5</td><td>mg/dL</td></tr><tr><td>Sodium [Moles/volume] in Serum or Plasma</td><td>141.3</td><td>135 - 145</td><td>mmol/L</td></tr><tr><td>Potassium [Moles/volume] in Serum or Plasma</td><td>4.7</td><td>3.5 - 5.1</td><td>mmol/L</td></tr><tr><td>Chloride [Moles/volume] in Serum or Plasma</td><td>107.1</td><td>98 - 108</td><td>mmol/L</td></tr><tr><td>Carbon dioxide, total [Moles/volume] in Serum or Plasma</td><td>22.3</td><td>22 - 32</td><td>mmol/L</td></tr><tr><td>Ketones [Presence] in Urine by Test strip</td><td>Urine ketone test = trace</td><td></td><td></td></tr><tr><td>Cholesterol [Mass/volume] in Serum or Plasma</td><td>125.0</td><td>125 - 200</td><td>mg/dL</td></tr><tr><td>Triglyceride [Mass/volume] in Serum or Plasma</td><td>141.6</td><td>10 - 175</td><td>mg/dL</td></tr><tr><td>Cholesterol in LDL [Mass/volume] in Serum or Plasma by Direct assay</td><td>37.7</td><td>0 - 130</td><td>mg/dL</td></tr><tr><td>Cholesterol in HDL [Mass/volume] in Serum or Plasma</td><td>59.0</td><td>40 - 100</td><td>mg/dL</td></tr></tbody></table></div>"
                },
                "title": "Chemistry"
              },
              {
                "code": {
                  "coding": [
                    {
                      "code": "$18729-4",
                      "system": "http://loinc.org",
                      "display": "Urinalysis studies (set)"
                    }
                  ],
                  "text": "Urinalysis"
                },
                "entry": [
                  {
                    "reference": "urn:uuid:43950e39-9485-4e01-9ec7-c32c92002878"
                  },
                  {
                    "reference": "urn:uuid:575aaba1-25b4-4a53-8b4f-552bfe0765ba"
                  },
                  {
                    "reference": "urn:uuid:8b0614b2-31d8-4e70-8c15-58baaa5f7d40"
                  },
                  {
                    "reference": "urn:uuid:f33ce7de-e554-4da4-a15a-45cd9456cd99"
                  },
                  {
                    "reference": "urn:uuid:ee2e831b-da3e-437c-b2a1-dd7bafba4628"
                  },
                  {
                    "reference": "urn:uuid:def320d7-b0d5-447b-adfa-b1634b63e5bb"
                  },
                  {
                    "reference": "urn:uuid:2bfb1e8f-0e29-4d7c-92ed-ced2a8183392"
                  },
                  {
                    "reference": "urn:uuid:7cc78cec-d724-49f0-bfac-71df2e3fdaff"
                  },
                  {
                    "reference": "urn:uuid:33c47583-5502-45a3-9107-adec2006f44f"
                  },
                  {
                    "reference": "urn:uuid:73a97784-ea6a-48bc-8cdf-8eabb7429a1f"
                  },
                  {
                    "reference": "urn:uuid:d1d4d4a8-56b3-4c01-a399-453591eeb55f"
                  },
                  {
                    "reference": "urn:uuid:b3903b1e-9782-4ccd-a645-6caf3f7c3cd0"
                  }
                ],
                "text": {
                  "status": "generated",
                  "div": "<div xmlns=\"http://www.w3.org/1999/xhtml\"><h3>Urinalysis</h3><table class=\"hl7__eu__lab__report\"><thead><tr><th>Test</th><th>11-FEB-2016</th><th>Reference&#xA0;Range</th><th>Unit</th></tr></thead><tbody><tr><td>Glucose [Mass/volume] in Urine by Test strip</td><td><strong>1.3 H</strong></td><td>0.8 - 0</td><td>mg/dL</td></tr><tr><td>Glucose [Presence] in Urine by Test strip</td><td>++</td><td></td><td></td></tr><tr><td>Bilirubin.total [Mass/volume] in Urine by Test strip</td><td><strong>1.1 H</strong></td><td>0 - 1</td><td>mg/dL</td></tr><tr><td>Bilirubin.total [Presence] in Urine by Test strip</td><td>Finding of bilirubin in urine</td><td></td><td></td></tr><tr><td>Ketones [Mass/volume] in Urine by Test strip</td><td>10.3</td><td>0 - 20</td><td>mg/dL</td></tr><tr><td>Specific gravity of Urine by Test strip</td><td><strong>1.0 L</strong></td><td>1.01 - 1.03</td><td>{nominal}</td></tr><tr><td>pH of Urine by Test strip</td><td>5.6</td><td>4.6 - 7</td><td>pH</td></tr><tr><td>Protein [Mass/volume] in Urine by Test strip</td><td><strong>131.6 H</strong></td><td>0 - 15</td><td>mg/dL</td></tr><tr><td>Protein [Presence] in Urine by Test strip</td><td>Urine protein test = +</td><td></td><td></td></tr><tr><td>Nitrite [Presence] in Urine by Test strip</td><td>Urine nitrite negative</td><td></td><td></td></tr><tr><td>Hemoglobin [Presence] in Urine by Test strip</td><td>Urine blood test = negative</td><td></td><td></td></tr><tr><td>Leukocyte esterase [Presence] in Urine by Test strip</td><td>Urine leukocyte test negative</td><td></td><td></td></tr></tbody></table></div>"
                },
                "title": "Urinalysis"
              },
              {
                "code": {
                  "coding": [
                    {
                      "code": "$LP7846-1",
                      "system": "http://loinc.org",
                      "display": "Specimen information"
                    }
                  ],
                  "text": "Specimen information"
                },
                "entry": [
                  {
                    "reference": "urn:uuid:5c73b8f4-c9da-4ddb-b2c6-5e2298cc2f9e"
                  },
                  {
                    "reference": "urn:uuid:60635aa9-d0ca-4c3b-a700-c92a2ffb4fbf"
                  },
                  {
                    "reference": "urn:uuid:abea32e7-cba1-410c-9074-49ca4c452913"
                  },
                  {
                    "reference": "urn:uuid:8c0e127f-0781-4c65-96a1-c44e2090e932"
                  }
                ],
                "text": {
                  "status": "generated",
                  "div": "<div xmlns=\"http://www.w3.org/1999/xhtml\"><h3>Specimen information</h3><table class=\"hl7__eu__lab__report\"><thead><tr><th>Test</th><th>11-FEB-2016</th><th>Specimen</th><th></th></tr></thead><tbody><tr><td>Appearance of Urine</td><td>Cloudy urine</td><td>Urine</td><td></td></tr><tr><td>Odor of Urine</td><td>Urine smell ammoniacal</td><td>Urine</td><td></td></tr><tr><td>Clarity of Urine</td><td>Translucent</td><td>Urine</td><td></td></tr><tr><td>Color of Urine</td><td>Brown color</td><td>Urine</td><td></td></tr></tbody></table></div>"
                },
                "title": "Specimen information"
              }
            ],
            "title": "Laboratory Report"
          },
          {
            "text": {
              "status": "generated",
              "div": "<div xmlns=\"http://www.w3.org/1999/xhtml\"><h3>Annotation</h3><table class=\"hl7__eu__lab__report\"><tr><th>Conclusion and Recommendations based on this report and previous findings known to us</th></tr><tr><td>The patient shows mildly elevated serum creatinine, suggesting possible renal impairment. Urinalysis reveals proteinuria, glucosuria, bilirubinuria, low specific gravity, and abnormal urine appearance (cloudy, brown, ammoniacal), which may indicate renal dysfunction and possible hepatic involvement. No evidence of urinary tract infection is seen. Recommend further evaluation of renal and hepatic function and correlation with clinical findings.</td></tr></table></div>"
            },
            "code": {
              "coding": [
                {
                  "system": "http://loinc.org",
                  "code": "48767-8",
                  "display": "Annotation comment"
                }
              ]
            },
            "title": "Annotation comment"
          }
        ],
        "status": "final",
        "subject": {
          "reference": "urn:uuid:44b7eff3-48ec-48fc-8013-da84d5e0958a",
          "display": "Marthe Gallet"
        },
        "date": "2016-02-11T20:05:43Z",
        "title": "Laboratory Report",
        "confidentiality": "N"
      }
    },
    {
      "fullUrl": "urn:uuid:1400ed62-30c4-4301-b091-19cdbb31e949",
      "resource": {
        "resourceType": "DiagnosticReport",
        "id": "1400ed62-30c4-4301-b091-19cdbb31e949",
        "meta": {
          "profile": [
            "http://hl7.eu/fhir/laboratory/StructureDefinition/DiagnosticReport-eu-lab"
          ]
        },
        "identifier": [
          {
            "assigner": {
              "display": "HL7 Europe"
            },
            "system": "urn:oid:2.16.840.1.113883.2.51.999",
            "value": "4b6be323-1b59-4e5d-ac96-45dfdf0dd2b5"
          }
        ],
        "extension": [
          {
            "url": "http://hl7.org/fhir/5.0/StructureDefinition/extension-DiagnosticReport.composition",
            "valueReference": {
              "reference": "urn:uuid:3f9c68db-a6ac-4584-8089-b6638d8bd372"
            }
          }
        ],
        "category": [
          {
            "coding": [
              {
                "code": "26436-6",
                "system": "http://loinc.org",
                "display": "Laboratory studies (set)"
              }
            ]
          }
        ],
        "specimen": [
          {
            "reference": "urn:uuid:6687f229-0bef-4942-bd11-6b242a430f64"
          },
          {
            "reference": "urn:uuid:b362d1c3-f462-438b-9930-c51289d61e07"
          }
        ],
        "result": [
          {
            "reference": "urn:uuid:660357e7-9381-410b-bb5f-b1be44c6fba3"
          },
          {
            "reference": "urn:uuid:a0ab6c62-3a9a-4fd9-8537-df1bcf7222e0"
          },
          {
            "reference": "urn:uuid:115225ed-8cd8-492c-b94f-10ff29efc9ea"
          },
          {
            "reference": "urn:uuid:d2cc6a92-0afc-46fc-85bb-a0a603608fb2"
          },
          {
            "reference": "urn:uuid:29854ab6-aa7f-4712-b939-0299c5eb94f9"
          },
          {
            "reference": "urn:uuid:f67b44b6-f55a-4eac-ad6f-56fd639fe8cf"
          },
          {
            "reference": "urn:uuid:41bc6993-9c5f-4496-b05f-e6b6b9971062"
          },
          {
            "reference": "urn:uuid:d4efedd0-c955-493e-a5ca-53c807941ae6"
          },
          {
            "reference": "urn:uuid:5c73b8f4-c9da-4ddb-b2c6-5e2298cc2f9e"
          },
          {
            "reference": "urn:uuid:60635aa9-d0ca-4c3b-a700-c92a2ffb4fbf"
          },
          {
            "reference": "urn:uuid:abea32e7-cba1-410c-9074-49ca4c452913"
          },
          {
            "reference": "urn:uuid:8c0e127f-0781-4c65-96a1-c44e2090e932"
          },
          {
            "reference": "urn:uuid:43950e39-9485-4e01-9ec7-c32c92002878"
          },
          {
            "reference": "urn:uuid:575aaba1-25b4-4a53-8b4f-552bfe0765ba"
          },
          {
            "reference": "urn:uuid:8b0614b2-31d8-4e70-8c15-58baaa5f7d40"
          },
          {
            "reference": "urn:uuid:f33ce7de-e554-4da4-a15a-45cd9456cd99"
          },
          {
            "reference": "urn:uuid:ee2e831b-da3e-437c-b2a1-dd7bafba4628"
          },
          {
            "reference": "urn:uuid:af1280ef-d186-4ffb-9129-69c3f4a2e1f3"
          },
          {
            "reference": "urn:uuid:def320d7-b0d5-447b-adfa-b1634b63e5bb"
          },
          {
            "reference": "urn:uuid:2bfb1e8f-0e29-4d7c-92ed-ced2a8183392"
          },
          {
            "reference": "urn:uuid:7cc78cec-d724-49f0-bfac-71df2e3fdaff"
          },
          {
            "reference": "urn:uuid:33c47583-5502-45a3-9107-adec2006f44f"
          },
          {
            "reference": "urn:uuid:73a97784-ea6a-48bc-8cdf-8eabb7429a1f"
          },
          {
            "reference": "urn:uuid:d1d4d4a8-56b3-4c01-a399-453591eeb55f"
          },
          {
            "reference": "urn:uuid:b3903b1e-9782-4ccd-a645-6caf3f7c3cd0"
          },
          {
            "reference": "urn:uuid:1ff04a47-4519-46f9-9426-c80189d8c58a"
          },
          {
            "reference": "urn:uuid:56493396-43d9-40d6-b585-7bd87442c798"
          },
          {
            "reference": "urn:uuid:325c06f8-5ea9-499a-aff3-689107b80dbb"
          },
          {
            "reference": "urn:uuid:4cc567d9-f13c-44dc-9512-483c20f567a9"
          }
        ],
        "status": "registered",
        "code": {
          "coding": [
            {
              "code": "11502-2",
              "system": "http://loinc.org",
              "display": "Laboratory report"
            }
          ]
        },
        "subject": {
          "reference": "urn:uuid:44b7eff3-48ec-48fc-8013-da84d5e0958a",
          "display": "Marthe Gallet"
        }
      }
    },
    {
      "fullUrl": "urn:uuid:44b7eff3-48ec-48fc-8013-da84d5e0958a",
      "resource": {
        "resourceType": "Patient",
        "id": "44b7eff3-48ec-48fc-8013-da84d5e0958a",
        "meta": {
          "security": [
            {
              "system": "http://terminology.hl7.org/CodeSystem/v3-ActReason",
              "code": "HTEST"
            },
            {
              "system": "http://terminology.hl7.org/CodeSystem/v3-ActReason",
              "code": "TRAIN"
            }
          ],
          "tag": [
            {
              "system": "https://synderai.net/fhir/CodeSystem/tags",
              "code": "synthetic",
              "display": "SYNDERAI Synthetic data"
            }
          ],
          "profile": [
            "http://hl7.eu/fhir/base/StructureDefinition/patient-eu-core"
          ]
        },
        "identifier": [
          {
            "type": {
              "coding": [
                {
                  "code": "PT",
                  "system": "http://terminology.hl7.org/CodeSystem/v2-0203"
                }
              ]
            },
            "system": "http://ec.europa.eu/identifier/eci",
            "value": "9444-947487-6"
          },
          {
            "type": {
              "coding": [
                {
                  "code": "MR",
                  "system": "http://terminology.hl7.org/CodeSystem/v2-0203"
                }
              ]
            },
            "system": "http://local.setting.eu/identifier",
            "value": "854228d5-a476-2d9c-a1d7-c3202375a617"
          }
        ],
        "name": [
          {
            "family": "Gallet"
          },
          {
            "given": [
              "Marthe"
            ]
          },
          {
            "text": "Marthe Gallet"
          }
        ],
        "address": [
          {
            "line": [
              "3, rue Emmanuel Goncalves"
            ],
            "use": "home",
            "type": "physical",
            "postalCode": "49490",
            "city": "Briand",
            "country": "France"
          }
        ],
        "telecom": [
          {
            "system": "phone",
            "value": "+33 1 70 99 82 74"
          }
        ],
        "extension": [
          {
            "url": "http://hl7.org/fhir/StructureDefinition/patient-nationality",
            "valueCodeableConcept": {
              "coding": [
                {
                  "code": "FR",
                  "system": "http://hl7.org/fhir/ValueSet/country"
                }
              ]
            }
          }
        ],
        "text": {
          "status": "generated",
          "div": "<div xmlns=\"http://www.w3.org/1999/xhtml\"><table class=\"hl7__ips\"><tr><td>Marthe Gallet</td><td>female</td><td>29-Oct-1950</td></tr></table></div>"
        },
        "gender": "female",
        "birthDate": "1950-10-29"
      }
    },
    {
      "fullUrl": "urn:uuid:afa068d5-f578-4c87-aff8-f229f6bc7a4b",
      "resource": {
        "resourceType": "ServiceRequest",
        "id": "afa068d5-f578-4c87-aff8-f229f6bc7a4b",
        "meta": {
          "profile": [
            "http://hl7.eu/fhir/laboratory/StructureDefinition/ServiceRequest-eu-lab"
          ]
        },
        "identifier": [
          {
            "system": "http://example.org",
            "value": "4fd52e83-ffdf-4d2c-8cc1-5cc223dbe44a"
          }
        ],
        "specimen": [
          {
            "reference": "urn:uuid:6687f229-0bef-4942-bd11-6b242a430f64"
          },
          {
            "reference": "urn:uuid:b362d1c3-f462-438b-9930-c51289d61e07"
          }
        ],
        "reasonCode": [
          {
            "coding": [
              {
                "code": "431856006",
                "system": "http://snomed.info/sct",
                "display": "Chronic kidney disease stage 2"
              }
            ]
          },
          {
            "coding": [
              {
                "code": "90781000119102",
                "system": "http://snomed.info/sct",
                "display": "Microalbuminuria due to type 2 diabetes mellitus"
              }
            ]
          },
          {
            "coding": [
              {
                "code": "127013003",
                "system": "http://snomed.info/sct",
                "display": "Disorder of kidney due to diabetes mellitus"
              }
            ]
          },
          {
            "coding": [
              {
                "code": "431855005",
                "system": "http://snomed.info/sct",
                "display": "Chronic kidney disease stage 1"
              }
            ]
          },
          {
            "coding": [
              {
                "code": "55822004",
                "system": "http://snomed.info/sct",
                "display": "Hyperlipidemia"
              }
            ]
          },
          {
            "coding": [
              {
                "code": "59621000",
                "system": "http://snomed.info/sct",
                "display": "Essential hypertension"
              }
            ]
          }
        ],
        "status": "active",
        "intent": "order",
        "code": {
          "coding": [
            {
              "code": "108252007",
              "system": "http://snomed.info/sct",
              "display": "Laboratory procedure"
            }
          ]
        },
        "subject": {
          "reference": "urn:uuid:44b7eff3-48ec-48fc-8013-da84d5e0958a",
          "display": "Marthe Gallet"
        },
        "requester": {
          "reference": "urn:uuid:c44edd79-5ab3-4d05-a05b-e87420a5dcb1"
        }
      }
    },
    {
      "fullUrl": "urn:uuid:c44edd79-5ab3-4d05-a05b-e87420a5dcb1",
      "resource": {
        "resourceType": "PractitionerRole",
        "id": "c44edd79-5ab3-4d05-a05b-e87420a5dcb1",
        "meta": {
          "profile": [
            "http://hl7.eu/fhir/base/StructureDefinition/practitionerRole-eu"
          ]
        },
        "text": {
          "status": "generated",
          "div": "<div xmlns=\"http://www.w3.org/1999/xhtml\">Provider Role Id: c44edd79-5ab3-4d05-a05b-e87420a5dcb1</div>"
        },
        "organization": {
          "reference": "urn:uuid:9ec1d899-621b-4e6a-a67b-3453e4a27157"
        }
      }
    },
    {
      "fullUrl": "urn:uuid:9ec1d899-621b-4e6a-a67b-3453e4a27157",
      "resource": {
        "resourceType": "Organization",
        "id": "9ec1d899-621b-4e6a-a67b-3453e4a27157",
        "meta": {
          "profile": [
            "http://hl7.eu/fhir/base/StructureDefinition/organization-eu"
          ]
        },
        "identifier": [
          {
            "assigner": {
              "display": "HL7 Europe"
            },
            "system": "urn:oid:2.16.840.1.113883.2.51.999",
            "value": "9303229c-1be0-4c76-bd35-aa1078e326b7"
          }
        ],
        "address": [
          {
            "line": [
              "Rue Larrey nan"
            ],
            "city": "Angers",
            "postalCode": "49100",
            "country": "France"
          }
        ],
        "text": {
          "status": "generated",
          "div": "<div xmlns=\"http://www.w3.org/1999/xhtml\">Provider Organization: CHU d&#039;Angers</div>"
        },
        "name": "CHU d&#039;Angers"
      }
    },
    {
      "fullUrl": "urn:uuid:6687f229-0bef-4942-bd11-6b242a430f64",
      "resource": {
        "resourceType": "Specimen",
        "id": "6687f229-0bef-4942-bd11-6b242a430f64",
        "meta": {
          "profile": [
            "http://hl7.eu/fhir/laboratory/StructureDefinition/Specimen-eu-lab"
          ]
        },
        "collection": {
          "collectedDateTime": "2016-02-11"
        },
        "text": {
          "status": "generated",
          "div": "<div xmlns=\"http://www.w3.org/1999/xhtml\"><table class=\"hl7__eu__lab__report\"><tr><th>Specimen</th><th>Collection Date</th></tr><tr><td>Acellular blood (serum or plasma) specimen</td><td><span class=\"nb\">11-Feb-2016</span></td></tr></table></div>"
        },
        "type": {
          "coding": [
            {
              "code": "122592007",
              "system": "http://snomed.info/sct",
              "display": "Acellular blood (serum or plasma) specimen"
            }
          ]
        }
      }
    },
    {
      "fullUrl": "urn:uuid:b362d1c3-f462-438b-9930-c51289d61e07",
      "resource": {
        "resourceType": "Specimen",
        "id": "b362d1c3-f462-438b-9930-c51289d61e07",
        "meta": {
          "profile": [
            "http://hl7.eu/fhir/laboratory/StructureDefinition/Specimen-eu-lab"
          ]
        },
        "collection": {
          "collectedDateTime": "2016-02-11"
        },
        "text": {
          "status": "generated",
          "div": "<div xmlns=\"http://www.w3.org/1999/xhtml\"><table class=\"hl7__eu__lab__report\"><tr><th>Specimen</th><th>Collection Date</th></tr><tr><td>Urine specimen</td><td><span class=\"nb\">11-Feb-2016</span></td></tr></table></div>"
        },
        "type": {
          "coding": [
            {
              "code": "122575003",
              "system": "http://snomed.info/sct",
              "display": "Urine specimen"
            }
          ]
        }
      }
    },
    {
      "fullUrl": "urn:uuid:660357e7-9381-410b-bb5f-b1be44c6fba3",
      "resource": {
        "resourceType": "Observation",
        "id": "660357e7-9381-410b-bb5f-b1be44c6fba3",
        "meta": {
          "profile": [
            "http://hl7.eu/fhir/laboratory/StructureDefinition/Observation-resultslab-eu-lab"
          ]
        },
        "performer": [
          {
            "display": "The Central European Lab"
          }
        ],
        "category": [
          {
            "coding": [
              {
                "system": "http://terminology.hl7.org/CodeSystem/observation-category",
                "code": "laboratory"
              }
            ]
          }
        ],
        "code": {
          "coding": [
            {
              "code": "2345-7",
              "system": "http://loinc.org",
              "display": "Glucose [Mass/volume] in Serum or Plasma"
            }
          ],
          "text": "Glucose [Mass/volume] in Serum or Plasma"
        },
        "valueQuantity": {
          "system": "http://unitsofmeasure.org",
          "value": 71.7,
          "unit": "mg/dL",
          "code": "mg/dL"
        },
        "referenceRange": [
          {
            "low": {
              "value": 70,
              "code": "mg/dL",
              "system": "http://unitsofmeasure.org"
            }
          },
          {
            "high": {
              "value": 140,
              "code": "mg/dL",
              "system": "http://unitsofmeasure.org"
            }
          }
        ],
        "text": {
          "status": "generated",
          "div": "<div xmlns=\"http://www.w3.org/1999/xhtml\"><table class=\"hl7__eu__lab__report\"><tr><th>Test</th><th>11-Feb-2016</th><th>Reference&#xA0;Range</th><th>Unit</th></tr><tr><td>Glucose [Mass/volume] in Serum or Plasma</td><td>71.7</td><td>70 - 140</td><td></td><td>mg/dL</td></tr></table></div>"
        },
        "status": "final",
        "subject": {
          "reference": "urn:uuid:44b7eff3-48ec-48fc-8013-da84d5e0958a",
          "display": "Marthe Gallet"
        },
        "effectiveDateTime": "2016-02-11T19:05:43Z",
        "specimen": {
          "reference": "urn:uuid:6687f229-0bef-4942-bd11-6b242a430f64"
        }
      }
    },
    {
      "fullUrl": "urn:uuid:a0ab6c62-3a9a-4fd9-8537-df1bcf7222e0",
      "resource": {
        "resourceType": "Observation",
        "id": "a0ab6c62-3a9a-4fd9-8537-df1bcf7222e0",
        "meta": {
          "profile": [
            "http://hl7.eu/fhir/laboratory/StructureDefinition/Observation-resultslab-eu-lab"
          ]
        },
        "performer": [
          {
            "display": "The Central European Lab"
          }
        ],
        "category": [
          {
            "coding": [
              {
                "system": "http://terminology.hl7.org/CodeSystem/observation-category",
                "code": "laboratory"
              }
            ]
          }
        ],
        "code": {
          "coding": [
            {
              "code": "3094-0",
              "system": "http://loinc.org",
              "display": "Urea nitrogen [Mass/volume] in Serum or Plasma"
            }
          ],
          "text": "Urea nitrogen [Mass/volume] in Serum or Plasma"
        },
        "valueQuantity": {
          "system": "http://unitsofmeasure.org",
          "value": 9.6,
          "unit": "mg/dL",
          "code": "mg/dL"
        },
        "referenceRange": [
          {
            "low": {
              "value": 7,
              "code": "mg/dL",
              "system": "http://unitsofmeasure.org"
            }
          },
          {
            "high": {
              "value": 50,
              "code": "mg/dL",
              "system": "http://unitsofmeasure.org"
            }
          }
        ],
        "text": {
          "status": "generated",
          "div": "<div xmlns=\"http://www.w3.org/1999/xhtml\"><table class=\"hl7__eu__lab__report\"><tr><th>Test</th><th>11-Feb-2016</th><th>Reference&#xA0;Range</th><th>Unit</th></tr><tr><td>Urea nitrogen [Mass/volume] in Serum or Plasma</td><td>9.6</td><td>7 - 50</td><td></td><td>mg/dL</td></tr></table></div>"
        },
        "status": "final",
        "subject": {
          "reference": "urn:uuid:44b7eff3-48ec-48fc-8013-da84d5e0958a",
          "display": "Marthe Gallet"
        },
        "effectiveDateTime": "2016-02-11T19:05:43Z",
        "specimen": {
          "reference": "urn:uuid:6687f229-0bef-4942-bd11-6b242a430f64"
        }
      }
    },
    {
      "fullUrl": "urn:uuid:115225ed-8cd8-492c-b94f-10ff29efc9ea",
      "resource": {
        "resourceType": "Observation",
        "id": "115225ed-8cd8-492c-b94f-10ff29efc9ea",
        "meta": {
          "profile": [
            "http://hl7.eu/fhir/laboratory/StructureDefinition/Observation-resultslab-eu-lab"
          ]
        },
        "performer": [
          {
            "display": "The Central European Lab"
          }
        ],
        "category": [
          {
            "coding": [
              {
                "system": "http://terminology.hl7.org/CodeSystem/observation-category",
                "code": "laboratory"
              }
            ]
          }
        ],
        "code": {
          "coding": [
            {
              "code": "2160-0",
              "system": "http://loinc.org",
              "display": "Creatinine [Mass/volume] in Serum or Plasma"
            }
          ],
          "text": "Creatinine [Mass/volume] in Serum or Plasma"
        },
        "valueQuantity": {
          "system": "http://unitsofmeasure.org",
          "value": 1.5,
          "unit": "mg/dL",
          "code": "mg/dL"
        },
        "referenceRange": [
          {
            "low": {
              "value": 0.6,
              "code": "mg/dL",
              "system": "http://unitsofmeasure.org"
            }
          },
          {
            "high": {
              "value": 1.1,
              "code": "mg/dL",
              "system": "http://unitsofmeasure.org"
            }
          }
        ],
        "interpretation": [
          {
            "coding": [
              {
                "code": "H",
                "system": "http://terminology.hl7.org/CodeSystem/v3-ObservationInterpretation",
                "display": "High"
              }
            ]
          }
        ],
        "text": {
          "status": "generated",
          "div": "<div xmlns=\"http://www.w3.org/1999/xhtml\"><table class=\"hl7__eu__lab__report\"><tr><th>Test</th><th>11-Feb-2016</th><th>Reference&#xA0;Range</th><th>Unit</th></tr><tr><td>Creatinine [Mass/volume] in Serum or Plasma</td><td>1.5</td><td>0.6 - 1.1</td><td>H</td><td>mg/dL</td></tr></table></div>"
        },
        "status": "final",
        "subject": {
          "reference": "urn:uuid:44b7eff3-48ec-48fc-8013-da84d5e0958a",
          "display": "Marthe Gallet"
        },
        "effectiveDateTime": "2016-02-11T19:05:43Z",
        "specimen": {
          "reference": "urn:uuid:6687f229-0bef-4942-bd11-6b242a430f64"
        }
      }
    },
    {
      "fullUrl": "urn:uuid:d2cc6a92-0afc-46fc-85bb-a0a603608fb2",
      "resource": {
        "resourceType": "Observation",
        "id": "d2cc6a92-0afc-46fc-85bb-a0a603608fb2",
        "meta": {
          "profile": [
            "http://hl7.eu/fhir/laboratory/StructureDefinition/Observation-resultslab-eu-lab"
          ]
        },
        "performer": [
          {
            "display": "The Central European Lab"
          }
        ],
        "category": [
          {
            "coding": [
              {
                "system": "http://terminology.hl7.org/CodeSystem/observation-category",
                "code": "laboratory"
              }
            ]
          }
        ],
        "code": {
          "coding": [
            {
              "code": "17861-6",
              "system": "http://loinc.org",
              "display": "Calcium [Mass/volume] in Serum or Plasma"
            }
          ],
          "text": "Calcium [Mass/volume] in Serum or Plasma"
        },
        "valueQuantity": {
          "system": "http://unitsofmeasure.org",
          "value": 8.8,
          "unit": "mg/dL",
          "code": "mg/dL"
        },
        "referenceRange": [
          {
            "low": {
              "value": 8.5,
              "code": "mg/dL",
              "system": "http://unitsofmeasure.org"
            }
          },
          {
            "high": {
              "value": 10.5,
              "code": "mg/dL",
              "system": "http://unitsofmeasure.org"
            }
          }
        ],
        "text": {
          "status": "generated",
          "div": "<div xmlns=\"http://www.w3.org/1999/xhtml\"><table class=\"hl7__eu__lab__report\"><tr><th>Test</th><th>11-Feb-2016</th><th>Reference&#xA0;Range</th><th>Unit</th></tr><tr><td>Calcium [Mass/volume] in Serum or Plasma</td><td>8.8</td><td>8.5 - 10.5</td><td></td><td>mg/dL</td></tr></table></div>"
        },
        "status": "final",
        "subject": {
          "reference": "urn:uuid:44b7eff3-48ec-48fc-8013-da84d5e0958a",
          "display": "Marthe Gallet"
        },
        "effectiveDateTime": "2016-02-11T19:05:43Z",
        "specimen": {
          "reference": "urn:uuid:6687f229-0bef-4942-bd11-6b242a430f64"
        }
      }
    },
    {
      "fullUrl": "urn:uuid:29854ab6-aa7f-4712-b939-0299c5eb94f9",
      "resource": {
        "resourceType": "Observation",
        "id": "29854ab6-aa7f-4712-b939-0299c5eb94f9",
        "meta": {
          "profile": [
            "http://hl7.eu/fhir/laboratory/StructureDefinition/Observation-resultslab-eu-lab"
          ]
        },
        "performer": [
          {
            "display": "The Central European Lab"
          }
        ],
        "category": [
          {
            "coding": [
              {
                "system": "http://terminology.hl7.org/CodeSystem/observation-category",
                "code": "laboratory"
              }
            ]
          }
        ],
        "code": {
          "coding": [
            {
              "code": "2951-2",
              "system": "http://loinc.org",
              "display": "Sodium [Moles/volume] in Serum or Plasma"
            }
          ],
          "text": "Sodium [Moles/volume] in Serum or Plasma"
        },
        "valueQuantity": {
          "system": "http://unitsofmeasure.org",
          "value": 141.3,
          "unit": "mmol/L",
          "code": "mmol/L"
        },
        "referenceRange": [
          {
            "low": {
              "value": 135,
              "code": "mmol/L",
              "system": "http://unitsofmeasure.org"
            }
          },
          {
            "high": {
              "value": 145,
              "code": "mmol/L",
              "system": "http://unitsofmeasure.org"
            }
          }
        ],
        "text": {
          "status": "generated",
          "div": "<div xmlns=\"http://www.w3.org/1999/xhtml\"><table class=\"hl7__eu__lab__report\"><tr><th>Test</th><th>11-Feb-2016</th><th>Reference&#xA0;Range</th><th>Unit</th></tr><tr><td>Sodium [Moles/volume] in Serum or Plasma</td><td>141.3</td><td>135 - 145</td><td></td><td>mmol/L</td></tr></table></div>"
        },
        "status": "final",
        "subject": {
          "reference": "urn:uuid:44b7eff3-48ec-48fc-8013-da84d5e0958a",
          "display": "Marthe Gallet"
        },
        "effectiveDateTime": "2016-02-11T19:05:43Z",
        "specimen": {
          "reference": "urn:uuid:6687f229-0bef-4942-bd11-6b242a430f64"
        }
      }
    },
    {
      "fullUrl": "urn:uuid:f67b44b6-f55a-4eac-ad6f-56fd639fe8cf",
      "resource": {
        "resourceType": "Observation",
        "id": "f67b44b6-f55a-4eac-ad6f-56fd639fe8cf",
        "meta": {
          "profile": [
            "http://hl7.eu/fhir/laboratory/StructureDefinition/Observation-resultslab-eu-lab"
          ]
        },
        "performer": [
          {
            "display": "The Central European Lab"
          }
        ],
        "category": [
          {
            "coding": [
              {
                "system": "http://terminology.hl7.org/CodeSystem/observation-category",
                "code": "laboratory"
              }
            ]
          }
        ],
        "code": {
          "coding": [
            {
              "code": "2823-3",
              "system": "http://loinc.org",
              "display": "Potassium [Moles/volume] in Serum or Plasma"
            }
          ],
          "text": "Potassium [Moles/volume] in Serum or Plasma"
        },
        "valueQuantity": {
          "system": "http://unitsofmeasure.org",
          "value": 4.7,
          "unit": "mmol/L",
          "code": "mmol/L"
        },
        "referenceRange": [
          {
            "low": {
              "value": 3.5,
              "code": "mmol/L",
              "system": "http://unitsofmeasure.org"
            }
          },
          {
            "high": {
              "value": 5.1,
              "code": "mmol/L",
              "system": "http://unitsofmeasure.org"
            }
          }
        ],
        "text": {
          "status": "generated",
          "div": "<div xmlns=\"http://www.w3.org/1999/xhtml\"><table class=\"hl7__eu__lab__report\"><tr><th>Test</th><th>11-Feb-2016</th><th>Reference&#xA0;Range</th><th>Unit</th></tr><tr><td>Potassium [Moles/volume] in Serum or Plasma</td><td>4.7</td><td>3.5 - 5.1</td><td></td><td>mmol/L</td></tr></table></div>"
        },
        "status": "final",
        "subject": {
          "reference": "urn:uuid:44b7eff3-48ec-48fc-8013-da84d5e0958a",
          "display": "Marthe Gallet"
        },
        "effectiveDateTime": "2016-02-11T19:05:43Z",
        "specimen": {
          "reference": "urn:uuid:6687f229-0bef-4942-bd11-6b242a430f64"
        }
      }
    },
    {
      "fullUrl": "urn:uuid:41bc6993-9c5f-4496-b05f-e6b6b9971062",
      "resource": {
        "resourceType": "Observation",
        "id": "41bc6993-9c5f-4496-b05f-e6b6b9971062",
        "meta": {
          "profile": [
            "http://hl7.eu/fhir/laboratory/StructureDefinition/Observation-resultslab-eu-lab"
          ]
        },
        "performer": [
          {
            "display": "The Central European Lab"
          }
        ],
        "category": [
          {
            "coding": [
              {
                "system": "http://terminology.hl7.org/CodeSystem/observation-category",
                "code": "laboratory"
              }
            ]
          }
        ],
        "code": {
          "coding": [
            {
              "code": "2075-0",
              "system": "http://loinc.org",
              "display": "Chloride [Moles/volume] in Serum or Plasma"
            }
          ],
          "text": "Chloride [Moles/volume] in Serum or Plasma"
        },
        "valueQuantity": {
          "system": "http://unitsofmeasure.org",
          "value": 107.1,
          "unit": "mmol/L",
          "code": "mmol/L"
        },
        "referenceRange": [
          {
            "low": {
              "value": 98,
              "code": "mmol/L",
              "system": "http://unitsofmeasure.org"
            }
          },
          {
            "high": {
              "value": 108,
              "code": "mmol/L",
              "system": "http://unitsofmeasure.org"
            }
          }
        ],
        "text": {
          "status": "generated",
          "div": "<div xmlns=\"http://www.w3.org/1999/xhtml\"><table class=\"hl7__eu__lab__report\"><tr><th>Test</th><th>11-Feb-2016</th><th>Reference&#xA0;Range</th><th>Unit</th></tr><tr><td>Chloride [Moles/volume] in Serum or Plasma</td><td>107.1</td><td>98 - 108</td><td></td><td>mmol/L</td></tr></table></div>"
        },
        "status": "final",
        "subject": {
          "reference": "urn:uuid:44b7eff3-48ec-48fc-8013-da84d5e0958a",
          "display": "Marthe Gallet"
        },
        "effectiveDateTime": "2016-02-11T19:05:43Z",
        "specimen": {
          "reference": "urn:uuid:6687f229-0bef-4942-bd11-6b242a430f64"
        }
      }
    },
    {
      "fullUrl": "urn:uuid:d4efedd0-c955-493e-a5ca-53c807941ae6",
      "resource": {
        "resourceType": "Observation",
        "id": "d4efedd0-c955-493e-a5ca-53c807941ae6",
        "meta": {
          "profile": [
            "http://hl7.eu/fhir/laboratory/StructureDefinition/Observation-resultslab-eu-lab"
          ]
        },
        "performer": [
          {
            "display": "The Central European Lab"
          }
        ],
        "category": [
          {
            "coding": [
              {
                "system": "http://terminology.hl7.org/CodeSystem/observation-category",
                "code": "laboratory"
              }
            ]
          }
        ],
        "code": {
          "coding": [
            {
              "code": "2028-9",
              "system": "http://loinc.org",
              "display": "Carbon dioxide, total [Moles/volume] in Serum or Plasma"
            }
          ],
          "text": "Carbon dioxide, total [Moles/volume] in Serum or Plasma"
        },
        "valueQuantity": {
          "system": "http://unitsofmeasure.org",
          "value": 22.3,
          "unit": "mmol/L",
          "code": "mmol/L"
        },
        "referenceRange": [
          {
            "low": {
              "value": 22,
              "code": "mmol/L",
              "system": "http://unitsofmeasure.org"
            }
          },
          {
            "high": {
              "value": 32,
              "code": "mmol/L",
              "system": "http://unitsofmeasure.org"
            }
          }
        ],
        "text": {
          "status": "generated",
          "div": "<div xmlns=\"http://www.w3.org/1999/xhtml\"><table class=\"hl7__eu__lab__report\"><tr><th>Test</th><th>11-Feb-2016</th><th>Reference&#xA0;Range</th><th>Unit</th></tr><tr><td>Carbon dioxide, total [Moles/volume] in Serum or Plasma</td><td>22.3</td><td>22 - 32</td><td></td><td>mmol/L</td></tr></table></div>"
        },
        "status": "final",
        "subject": {
          "reference": "urn:uuid:44b7eff3-48ec-48fc-8013-da84d5e0958a",
          "display": "Marthe Gallet"
        },
        "effectiveDateTime": "2016-02-11T19:05:43Z",
        "specimen": {
          "reference": "urn:uuid:6687f229-0bef-4942-bd11-6b242a430f64"
        }
      }
    },
    {
      "fullUrl": "urn:uuid:5c73b8f4-c9da-4ddb-b2c6-5e2298cc2f9e",
      "resource": {
        "resourceType": "Observation",
        "id": "5c73b8f4-c9da-4ddb-b2c6-5e2298cc2f9e",
        "meta": {
          "profile": [
            "http://hl7.eu/fhir/laboratory/StructureDefinition/Observation-resultslab-eu-lab"
          ]
        },
        "performer": [
          {
            "display": "The Central European Lab"
          }
        ],
        "category": [
          {
            "coding": [
              {
                "system": "http://terminology.hl7.org/CodeSystem/observation-category",
                "code": "laboratory"
              }
            ]
          }
        ],
        "code": {
          "coding": [
            {
              "code": "5767-9",
              "system": "http://loinc.org",
              "display": "Appearance of Urine"
            }
          ],
          "text": "Appearance of Urine"
        },
        "text": {
          "status": "generated",
          "div": "<div xmlns=\"http://www.w3.org/1999/xhtml\"><table class=\"hl7__eu__lab__report\"><tr><th>Test</th><th>11-Feb-2016</th><th>Reference&#xA0;Range</th><th>Unit</th></tr><tr><td>Appearance of Urine</td></tr></table></div>"
        },
        "status": "final",
        "subject": {
          "reference": "urn:uuid:44b7eff3-48ec-48fc-8013-da84d5e0958a",
          "display": "Marthe Gallet"
        },
        "effectiveDateTime": "2016-02-11T19:05:43Z",
        "specimen": {
          "reference": "urn:uuid:b362d1c3-f462-438b-9930-c51289d61e07"
        }
      }
    },
    {
      "fullUrl": "urn:uuid:60635aa9-d0ca-4c3b-a700-c92a2ffb4fbf",
      "resource": {
        "resourceType": "Observation",
        "id": "60635aa9-d0ca-4c3b-a700-c92a2ffb4fbf",
        "meta": {
          "profile": [
            "http://hl7.eu/fhir/laboratory/StructureDefinition/Observation-resultslab-eu-lab"
          ]
        },
        "performer": [
          {
            "display": "The Central European Lab"
          }
        ],
        "category": [
          {
            "coding": [
              {
                "system": "http://terminology.hl7.org/CodeSystem/observation-category",
                "code": "laboratory"
              }
            ]
          }
        ],
        "code": {
          "coding": [
            {
              "code": "34533-0",
              "system": "http://loinc.org",
              "display": "Odor of Urine"
            }
          ],
          "text": "Odor of Urine"
        },
        "text": {
          "status": "generated",
          "div": "<div xmlns=\"http://www.w3.org/1999/xhtml\"><table class=\"hl7__eu__lab__report\"><tr><th>Test</th><th>11-Feb-2016</th><th>Reference&#xA0;Range</th><th>Unit</th></tr><tr><td>Odor of Urine</td></tr></table></div>"
        },
        "status": "final",
        "subject": {
          "reference": "urn:uuid:44b7eff3-48ec-48fc-8013-da84d5e0958a",
          "display": "Marthe Gallet"
        },
        "effectiveDateTime": "2016-02-11T19:05:43Z",
        "specimen": {
          "reference": "urn:uuid:b362d1c3-f462-438b-9930-c51289d61e07"
        }
      }
    },
    {
      "fullUrl": "urn:uuid:abea32e7-cba1-410c-9074-49ca4c452913",
      "resource": {
        "resourceType": "Observation",
        "id": "abea32e7-cba1-410c-9074-49ca4c452913",
        "meta": {
          "profile": [
            "http://hl7.eu/fhir/laboratory/StructureDefinition/Observation-resultslab-eu-lab"
          ]
        },
        "performer": [
          {
            "display": "The Central European Lab"
          }
        ],
        "category": [
          {
            "coding": [
              {
                "system": "http://terminology.hl7.org/CodeSystem/observation-category",
                "code": "laboratory"
              }
            ]
          }
        ],
        "code": {
          "coding": [
            {
              "code": "32167-9",
              "system": "http://loinc.org",
              "display": "Clarity of Urine"
            }
          ],
          "text": "Clarity of Urine"
        },
        "text": {
          "status": "generated",
          "div": "<div xmlns=\"http://www.w3.org/1999/xhtml\"><table class=\"hl7__eu__lab__report\"><tr><th>Test</th><th>11-Feb-2016</th><th>Reference&#xA0;Range</th><th>Unit</th></tr><tr><td>Clarity of Urine</td></tr></table></div>"
        },
        "status": "final",
        "subject": {
          "reference": "urn:uuid:44b7eff3-48ec-48fc-8013-da84d5e0958a",
          "display": "Marthe Gallet"
        },
        "effectiveDateTime": "2016-02-11T19:05:43Z",
        "specimen": {
          "reference": "urn:uuid:b362d1c3-f462-438b-9930-c51289d61e07"
        }
      }
    },
    {
      "fullUrl": "urn:uuid:8c0e127f-0781-4c65-96a1-c44e2090e932",
      "resource": {
        "resourceType": "Observation",
        "id": "8c0e127f-0781-4c65-96a1-c44e2090e932",
        "meta": {
          "profile": [
            "http://hl7.eu/fhir/laboratory/StructureDefinition/Observation-resultslab-eu-lab"
          ]
        },
        "performer": [
          {
            "display": "The Central European Lab"
          }
        ],
        "category": [
          {
            "coding": [
              {
                "system": "http://terminology.hl7.org/CodeSystem/observation-category",
                "code": "laboratory"
              }
            ]
          }
        ],
        "code": {
          "coding": [
            {
              "code": "5778-6",
              "system": "http://loinc.org",
              "display": "Color of Urine"
            }
          ],
          "text": "Color of Urine"
        },
        "text": {
          "status": "generated",
          "div": "<div xmlns=\"http://www.w3.org/1999/xhtml\"><table class=\"hl7__eu__lab__report\"><tr><th>Test</th><th>11-Feb-2016</th><th>Reference&#xA0;Range</th><th>Unit</th></tr><tr><td>Color of Urine</td></tr></table></div>"
        },
        "status": "final",
        "subject": {
          "reference": "urn:uuid:44b7eff3-48ec-48fc-8013-da84d5e0958a",
          "display": "Marthe Gallet"
        },
        "effectiveDateTime": "2016-02-11T19:05:43Z",
        "specimen": {
          "reference": "urn:uuid:b362d1c3-f462-438b-9930-c51289d61e07"
        }
      }
    },
    {
      "fullUrl": "urn:uuid:43950e39-9485-4e01-9ec7-c32c92002878",
      "resource": {
        "resourceType": "Observation",
        "id": "43950e39-9485-4e01-9ec7-c32c92002878",
        "meta": {
          "profile": [
            "http://hl7.eu/fhir/laboratory/StructureDefinition/Observation-resultslab-eu-lab"
          ]
        },
        "performer": [
          {
            "display": "The Central European Lab"
          }
        ],
        "category": [
          {
            "coding": [
              {
                "system": "http://terminology.hl7.org/CodeSystem/observation-category",
                "code": "laboratory"
              }
            ]
          }
        ],
        "code": {
          "coding": [
            {
              "code": "5792-7",
              "system": "http://loinc.org",
              "display": "Glucose [Mass/volume] in Urine by Test strip"
            }
          ],
          "text": "Glucose [Mass/volume] in Urine by Test strip"
        },
        "valueQuantity": {
          "system": "http://unitsofmeasure.org",
          "value": 1.3,
          "unit": "mg/dL",
          "code": "mg/dL"
        },
        "referenceRange": [
          {
            "low": {
              "value": 0.8,
              "code": "mg/dL",
              "system": "http://unitsofmeasure.org"
            }
          },
          {
            "high": {
              "value": 0,
              "code": "mg/dL",
              "system": "http://unitsofmeasure.org"
            }
          }
        ],
        "interpretation": [
          {
            "coding": [
              {
                "code": "H",
                "system": "http://terminology.hl7.org/CodeSystem/v3-ObservationInterpretation",
                "display": "High"
              }
            ]
          }
        ],
        "text": {
          "status": "generated",
          "div": "<div xmlns=\"http://www.w3.org/1999/xhtml\"><table class=\"hl7__eu__lab__report\"><tr><th>Test</th><th>11-Feb-2016</th><th>Reference&#xA0;Range</th><th>Unit</th></tr><tr><td>Glucose [Mass/volume] in Urine by Test strip</td><td>1.3</td><td>0.8 - 0</td><td>H</td><td>mg/dL</td></tr></table></div>"
        },
        "status": "final",
        "subject": {
          "reference": "urn:uuid:44b7eff3-48ec-48fc-8013-da84d5e0958a",
          "display": "Marthe Gallet"
        },
        "effectiveDateTime": "2016-02-11T19:05:43Z",
        "specimen": {
          "reference": "urn:uuid:b362d1c3-f462-438b-9930-c51289d61e07"
        }
      }
    },
    {
      "fullUrl": "urn:uuid:575aaba1-25b4-4a53-8b4f-552bfe0765ba",
      "resource": {
        "resourceType": "Observation",
        "id": "575aaba1-25b4-4a53-8b4f-552bfe0765ba",
        "meta": {
          "profile": [
            "http://hl7.eu/fhir/laboratory/StructureDefinition/Observation-resultslab-eu-lab"
          ]
        },
        "performer": [
          {
            "display": "The Central European Lab"
          }
        ],
        "category": [
          {
            "coding": [
              {
                "system": "http://terminology.hl7.org/CodeSystem/observation-category",
                "code": "laboratory"
              }
            ]
          }
        ],
        "code": {
          "coding": [
            {
              "code": "25428-4",
              "system": "http://loinc.org",
              "display": "Glucose [Presence] in Urine by Test strip"
            }
          ],
          "text": "Glucose [Presence] in Urine by Test strip"
        },
        "text": {
          "status": "generated",
          "div": "<div xmlns=\"http://www.w3.org/1999/xhtml\"><table class=\"hl7__eu__lab__report\"><tr><th>Test</th><th>11-Feb-2016</th><th>Reference&#xA0;Range</th><th>Unit</th></tr><tr><td>Glucose [Presence] in Urine by Test strip</td></tr></table></div>"
        },
        "status": "final",
        "subject": {
          "reference": "urn:uuid:44b7eff3-48ec-48fc-8013-da84d5e0958a",
          "display": "Marthe Gallet"
        },
        "effectiveDateTime": "2016-02-11T19:05:43Z",
        "specimen": {
          "reference": "urn:uuid:b362d1c3-f462-438b-9930-c51289d61e07"
        }
      }
    },
    {
      "fullUrl": "urn:uuid:8b0614b2-31d8-4e70-8c15-58baaa5f7d40",
      "resource": {
        "resourceType": "Observation",
        "id": "8b0614b2-31d8-4e70-8c15-58baaa5f7d40",
        "meta": {
          "profile": [
            "http://hl7.eu/fhir/laboratory/StructureDefinition/Observation-resultslab-eu-lab"
          ]
        },
        "performer": [
          {
            "display": "The Central European Lab"
          }
        ],
        "category": [
          {
            "coding": [
              {
                "system": "http://terminology.hl7.org/CodeSystem/observation-category",
                "code": "laboratory"
              }
            ]
          }
        ],
        "code": {
          "coding": [
            {
              "code": "20505-4",
              "system": "http://loinc.org",
              "display": "Bilirubin.total [Mass/volume] in Urine by Test strip"
            }
          ],
          "text": "Bilirubin.total [Mass/volume] in Urine by Test strip"
        },
        "valueQuantity": {
          "system": "http://unitsofmeasure.org",
          "value": 1.1,
          "unit": "mg/dL",
          "code": "mg/dL"
        },
        "referenceRange": [
          {
            "low": {
              "value": 0,
              "code": "mg/dL",
              "system": "http://unitsofmeasure.org"
            }
          },
          {
            "high": {
              "value": 1,
              "code": "mg/dL",
              "system": "http://unitsofmeasure.org"
            }
          }
        ],
        "interpretation": [
          {
            "coding": [
              {
                "code": "H",
                "system": "http://terminology.hl7.org/CodeSystem/v3-ObservationInterpretation",
                "display": "High"
              }
            ]
          }
        ],
        "text": {
          "status": "generated",
          "div": "<div xmlns=\"http://www.w3.org/1999/xhtml\"><table class=\"hl7__eu__lab__report\"><tr><th>Test</th><th>11-Feb-2016</th><th>Reference&#xA0;Range</th><th>Unit</th></tr><tr><td>Bilirubin.total [Mass/volume] in Urine by Test strip</td><td>1.1</td><td>0 - 1</td><td>H</td><td>mg/dL</td></tr></table></div>"
        },
        "status": "final",
        "subject": {
          "reference": "urn:uuid:44b7eff3-48ec-48fc-8013-da84d5e0958a",
          "display": "Marthe Gallet"
        },
        "effectiveDateTime": "2016-02-11T19:05:43Z",
        "specimen": {
          "reference": "urn:uuid:b362d1c3-f462-438b-9930-c51289d61e07"
        }
      }
    },
    {
      "fullUrl": "urn:uuid:f33ce7de-e554-4da4-a15a-45cd9456cd99",
      "resource": {
        "resourceType": "Observation",
        "id": "f33ce7de-e554-4da4-a15a-45cd9456cd99",
        "meta": {
          "profile": [
            "http://hl7.eu/fhir/laboratory/StructureDefinition/Observation-resultslab-eu-lab"
          ]
        },
        "performer": [
          {
            "display": "The Central European Lab"
          }
        ],
        "category": [
          {
            "coding": [
              {
                "system": "http://terminology.hl7.org/CodeSystem/observation-category",
                "code": "laboratory"
              }
            ]
          }
        ],
        "code": {
          "coding": [
            {
              "code": "5770-3",
              "system": "http://loinc.org",
              "display": "Bilirubin.total [Presence] in Urine by Test strip"
            }
          ],
          "text": "Bilirubin.total [Presence] in Urine by Test strip"
        },
        "text": {
          "status": "generated",
          "div": "<div xmlns=\"http://www.w3.org/1999/xhtml\"><table class=\"hl7__eu__lab__report\"><tr><th>Test</th><th>11-Feb-2016</th><th>Reference&#xA0;Range</th><th>Unit</th></tr><tr><td>Bilirubin.total [Presence] in Urine by Test strip</td></tr></table></div>"
        },
        "status": "final",
        "subject": {
          "reference": "urn:uuid:44b7eff3-48ec-48fc-8013-da84d5e0958a",
          "display": "Marthe Gallet"
        },
        "effectiveDateTime": "2016-02-11T19:05:43Z",
        "specimen": {
          "reference": "urn:uuid:b362d1c3-f462-438b-9930-c51289d61e07"
        }
      }
    },
    {
      "fullUrl": "urn:uuid:ee2e831b-da3e-437c-b2a1-dd7bafba4628",
      "resource": {
        "resourceType": "Observation",
        "id": "ee2e831b-da3e-437c-b2a1-dd7bafba4628",
        "meta": {
          "profile": [
            "http://hl7.eu/fhir/laboratory/StructureDefinition/Observation-resultslab-eu-lab"
          ]
        },
        "performer": [
          {
            "display": "The Central European Lab"
          }
        ],
        "category": [
          {
            "coding": [
              {
                "system": "http://terminology.hl7.org/CodeSystem/observation-category",
                "code": "laboratory"
              }
            ]
          }
        ],
        "code": {
          "coding": [
            {
              "code": "5797-6",
              "system": "http://loinc.org",
              "display": "Ketones [Mass/volume] in Urine by Test strip"
            }
          ],
          "text": "Ketones [Mass/volume] in Urine by Test strip"
        },
        "valueQuantity": {
          "system": "http://unitsofmeasure.org",
          "value": 10.3,
          "unit": "mg/dL",
          "code": "mg/dL"
        },
        "referenceRange": [
          {
            "low": {
              "value": 0,
              "code": "mg/dL",
              "system": "http://unitsofmeasure.org"
            }
          },
          {
            "high": {
              "value": 20,
              "code": "mg/dL",
              "system": "http://unitsofmeasure.org"
            }
          }
        ],
        "text": {
          "status": "generated",
          "div": "<div xmlns=\"http://www.w3.org/1999/xhtml\"><table class=\"hl7__eu__lab__report\"><tr><th>Test</th><th>11-Feb-2016</th><th>Reference&#xA0;Range</th><th>Unit</th></tr><tr><td>Ketones [Mass/volume] in Urine by Test strip</td><td>10.3</td><td>0 - 20</td><td></td><td>mg/dL</td></tr></table></div>"
        },
        "status": "final",
        "subject": {
          "reference": "urn:uuid:44b7eff3-48ec-48fc-8013-da84d5e0958a",
          "display": "Marthe Gallet"
        },
        "effectiveDateTime": "2016-02-11T19:05:43Z",
        "specimen": {
          "reference": "urn:uuid:b362d1c3-f462-438b-9930-c51289d61e07"
        }
      }
    },
    {
      "fullUrl": "urn:uuid:af1280ef-d186-4ffb-9129-69c3f4a2e1f3",
      "resource": {
        "resourceType": "Observation",
        "id": "af1280ef-d186-4ffb-9129-69c3f4a2e1f3",
        "meta": {
          "profile": [
            "http://hl7.eu/fhir/laboratory/StructureDefinition/Observation-resultslab-eu-lab"
          ]
        },
        "performer": [
          {
            "display": "The Central European Lab"
          }
        ],
        "category": [
          {
            "coding": [
              {
                "system": "http://terminology.hl7.org/CodeSystem/observation-category",
                "code": "laboratory"
              }
            ]
          }
        ],
        "code": {
          "coding": [
            {
              "code": "2514-8",
              "system": "http://loinc.org",
              "display": "Ketones [Presence] in Urine by Test strip"
            }
          ],
          "text": "Ketones [Presence] in Urine by Test strip"
        },
        "text": {
          "status": "generated",
          "div": "<div xmlns=\"http://www.w3.org/1999/xhtml\"><table class=\"hl7__eu__lab__report\"><tr><th>Test</th><th>11-Feb-2016</th><th>Reference&#xA0;Range</th><th>Unit</th></tr><tr><td>Ketones [Presence] in Urine by Test strip</td></tr></table></div>"
        },
        "status": "final",
        "subject": {
          "reference": "urn:uuid:44b7eff3-48ec-48fc-8013-da84d5e0958a",
          "display": "Marthe Gallet"
        },
        "effectiveDateTime": "2016-02-11T19:05:43Z",
        "specimen": {
          "reference": "urn:uuid:b362d1c3-f462-438b-9930-c51289d61e07"
        }
      }
    },
    {
      "fullUrl": "urn:uuid:def320d7-b0d5-447b-adfa-b1634b63e5bb",
      "resource": {
        "resourceType": "Observation",
        "id": "def320d7-b0d5-447b-adfa-b1634b63e5bb",
        "meta": {
          "profile": [
            "http://hl7.eu/fhir/laboratory/StructureDefinition/Observation-resultslab-eu-lab"
          ]
        },
        "performer": [
          {
            "display": "The Central European Lab"
          }
        ],
        "category": [
          {
            "coding": [
              {
                "system": "http://terminology.hl7.org/CodeSystem/observation-category",
                "code": "laboratory"
              }
            ]
          }
        ],
        "code": {
          "coding": [
            {
              "code": "5811-5",
              "system": "http://loinc.org",
              "display": "Specific gravity of Urine by Test strip"
            }
          ],
          "text": "Specific gravity of Urine by Test strip"
        },
        "valueQuantity": {
          "system": "http://unitsofmeasure.org",
          "value": 1,
          "unit": "{nominal}",
          "code": "{nominal}"
        },
        "referenceRange": [
          {
            "low": {
              "value": 1.01,
              "code": "g/mL",
              "system": "http://unitsofmeasure.org"
            }
          },
          {
            "high": {
              "value": 1.03,
              "code": "g/mL",
              "system": "http://unitsofmeasure.org"
            }
          }
        ],
        "interpretation": [
          {
            "coding": [
              {
                "code": "L",
                "system": "http://terminology.hl7.org/CodeSystem/v3-ObservationInterpretation",
                "display": "Low"
              }
            ]
          }
        ],
        "text": {
          "status": "generated",
          "div": "<div xmlns=\"http://www.w3.org/1999/xhtml\"><table class=\"hl7__eu__lab__report\"><tr><th>Test</th><th>11-Feb-2016</th><th>Reference&#xA0;Range</th><th>Unit</th></tr><tr><td>Specific gravity of Urine by Test strip</td><td>1.0</td><td>1.01 - 1.03</td><td>L</td><td>{nominal}</td></tr></table></div>"
        },
        "status": "final",
        "subject": {
          "reference": "urn:uuid:44b7eff3-48ec-48fc-8013-da84d5e0958a",
          "display": "Marthe Gallet"
        },
        "effectiveDateTime": "2016-02-11T19:05:43Z",
        "specimen": {
          "reference": "urn:uuid:b362d1c3-f462-438b-9930-c51289d61e07"
        }
      }
    },
    {
      "fullUrl": "urn:uuid:2bfb1e8f-0e29-4d7c-92ed-ced2a8183392",
      "resource": {
        "resourceType": "Observation",
        "id": "2bfb1e8f-0e29-4d7c-92ed-ced2a8183392",
        "meta": {
          "profile": [
            "http://hl7.eu/fhir/laboratory/StructureDefinition/Observation-resultslab-eu-lab"
          ]
        },
        "performer": [
          {
            "display": "The Central European Lab"
          }
        ],
        "category": [
          {
            "coding": [
              {
                "system": "http://terminology.hl7.org/CodeSystem/observation-category",
                "code": "laboratory"
              }
            ]
          }
        ],
        "code": {
          "coding": [
            {
              "code": "5803-2",
              "system": "http://loinc.org",
              "display": "pH of Urine by Test strip"
            }
          ],
          "text": "pH of Urine by Test strip"
        },
        "valueQuantity": {
          "system": "http://unitsofmeasure.org",
          "value": 5.6,
          "unit": "pH",
          "code": "pH"
        },
        "referenceRange": [
          {
            "low": {
              "value": 4.6,
              "code": "pH",
              "system": "http://unitsofmeasure.org"
            }
          },
          {
            "high": {
              "value": 7,
              "code": "pH",
              "system": "http://unitsofmeasure.org"
            }
          }
        ],
        "text": {
          "status": "generated",
          "div": "<div xmlns=\"http://www.w3.org/1999/xhtml\"><table class=\"hl7__eu__lab__report\"><tr><th>Test</th><th>11-Feb-2016</th><th>Reference&#xA0;Range</th><th>Unit</th></tr><tr><td>pH of Urine by Test strip</td><td>5.6</td><td>4.6 - 7</td><td></td><td>pH</td></tr></table></div>"
        },
        "status": "final",
        "subject": {
          "reference": "urn:uuid:44b7eff3-48ec-48fc-8013-da84d5e0958a",
          "display": "Marthe Gallet"
        },
        "effectiveDateTime": "2016-02-11T19:05:43Z",
        "specimen": {
          "reference": "urn:uuid:b362d1c3-f462-438b-9930-c51289d61e07"
        }
      }
    },
    {
      "fullUrl": "urn:uuid:7cc78cec-d724-49f0-bfac-71df2e3fdaff",
      "resource": {
        "resourceType": "Observation",
        "id": "7cc78cec-d724-49f0-bfac-71df2e3fdaff",
        "meta": {
          "profile": [
            "http://hl7.eu/fhir/laboratory/StructureDefinition/Observation-resultslab-eu-lab"
          ]
        },
        "performer": [
          {
            "display": "The Central European Lab"
          }
        ],
        "category": [
          {
            "coding": [
              {
                "system": "http://terminology.hl7.org/CodeSystem/observation-category",
                "code": "laboratory"
              }
            ]
          }
        ],
        "code": {
          "coding": [
            {
              "code": "5804-0",
              "system": "http://loinc.org",
              "display": "Protein [Mass/volume] in Urine by Test strip"
            }
          ],
          "text": "Protein [Mass/volume] in Urine by Test strip"
        },
        "valueQuantity": {
          "system": "http://unitsofmeasure.org",
          "value": 131.6,
          "unit": "mg/dL",
          "code": "mg/dL"
        },
        "referenceRange": [
          {
            "low": {
              "value": 0,
              "code": "mg/dL",
              "system": "http://unitsofmeasure.org"
            }
          },
          {
            "high": {
              "value": 15,
              "code": "mg/dL",
              "system": "http://unitsofmeasure.org"
            }
          }
        ],
        "interpretation": [
          {
            "coding": [
              {
                "code": "H",
                "system": "http://terminology.hl7.org/CodeSystem/v3-ObservationInterpretation",
                "display": "High"
              }
            ]
          }
        ],
        "text": {
          "status": "generated",
          "div": "<div xmlns=\"http://www.w3.org/1999/xhtml\"><table class=\"hl7__eu__lab__report\"><tr><th>Test</th><th>11-Feb-2016</th><th>Reference&#xA0;Range</th><th>Unit</th></tr><tr><td>Protein [Mass/volume] in Urine by Test strip</td><td>131.6</td><td>0 - 15</td><td>H</td><td>mg/dL</td></tr></table></div>"
        },
        "status": "final",
        "subject": {
          "reference": "urn:uuid:44b7eff3-48ec-48fc-8013-da84d5e0958a",
          "display": "Marthe Gallet"
        },
        "effectiveDateTime": "2016-02-11T19:05:43Z",
        "specimen": {
          "reference": "urn:uuid:b362d1c3-f462-438b-9930-c51289d61e07"
        }
      }
    },
    {
      "fullUrl": "urn:uuid:33c47583-5502-45a3-9107-adec2006f44f",
      "resource": {
        "resourceType": "Observation",
        "id": "33c47583-5502-45a3-9107-adec2006f44f",
        "meta": {
          "profile": [
            "http://hl7.eu/fhir/laboratory/StructureDefinition/Observation-resultslab-eu-lab"
          ]
        },
        "performer": [
          {
            "display": "The Central European Lab"
          }
        ],
        "category": [
          {
            "coding": [
              {
                "system": "http://terminology.hl7.org/CodeSystem/observation-category",
                "code": "laboratory"
              }
            ]
          }
        ],
        "code": {
          "coding": [
            {
              "code": "20454-5",
              "system": "http://loinc.org",
              "display": "Protein [Presence] in Urine by Test strip"
            }
          ],
          "text": "Protein [Presence] in Urine by Test strip"
        },
        "text": {
          "status": "generated",
          "div": "<div xmlns=\"http://www.w3.org/1999/xhtml\"><table class=\"hl7__eu__lab__report\"><tr><th>Test</th><th>11-Feb-2016</th><th>Reference&#xA0;Range</th><th>Unit</th></tr><tr><td>Protein [Presence] in Urine by Test strip</td></tr></table></div>"
        },
        "status": "final",
        "subject": {
          "reference": "urn:uuid:44b7eff3-48ec-48fc-8013-da84d5e0958a",
          "display": "Marthe Gallet"
        },
        "effectiveDateTime": "2016-02-11T19:05:43Z",
        "specimen": {
          "reference": "urn:uuid:b362d1c3-f462-438b-9930-c51289d61e07"
        }
      }
    },
    {
      "fullUrl": "urn:uuid:73a97784-ea6a-48bc-8cdf-8eabb7429a1f",
      "resource": {
        "resourceType": "Observation",
        "id": "73a97784-ea6a-48bc-8cdf-8eabb7429a1f",
        "meta": {
          "profile": [
            "http://hl7.eu/fhir/laboratory/StructureDefinition/Observation-resultslab-eu-lab"
          ]
        },
        "performer": [
          {
            "display": "The Central European Lab"
          }
        ],
        "category": [
          {
            "coding": [
              {
                "system": "http://terminology.hl7.org/CodeSystem/observation-category",
                "code": "laboratory"
              }
            ]
          }
        ],
        "code": {
          "coding": [
            {
              "code": "5802-4",
              "system": "http://loinc.org",
              "display": "Nitrite [Presence] in Urine by Test strip"
            }
          ],
          "text": "Nitrite [Presence] in Urine by Test strip"
        },
        "text": {
          "status": "generated",
          "div": "<div xmlns=\"http://www.w3.org/1999/xhtml\"><table class=\"hl7__eu__lab__report\"><tr><th>Test</th><th>11-Feb-2016</th><th>Reference&#xA0;Range</th><th>Unit</th></tr><tr><td>Nitrite [Presence] in Urine by Test strip</td></tr></table></div>"
        },
        "status": "final",
        "subject": {
          "reference": "urn:uuid:44b7eff3-48ec-48fc-8013-da84d5e0958a",
          "display": "Marthe Gallet"
        },
        "effectiveDateTime": "2016-02-11T19:05:43Z",
        "specimen": {
          "reference": "urn:uuid:b362d1c3-f462-438b-9930-c51289d61e07"
        }
      }
    },
    {
      "fullUrl": "urn:uuid:d1d4d4a8-56b3-4c01-a399-453591eeb55f",
      "resource": {
        "resourceType": "Observation",
        "id": "d1d4d4a8-56b3-4c01-a399-453591eeb55f",
        "meta": {
          "profile": [
            "http://hl7.eu/fhir/laboratory/StructureDefinition/Observation-resultslab-eu-lab"
          ]
        },
        "performer": [
          {
            "display": "The Central European Lab"
          }
        ],
        "category": [
          {
            "coding": [
              {
                "system": "http://terminology.hl7.org/CodeSystem/observation-category",
                "code": "laboratory"
              }
            ]
          }
        ],
        "code": {
          "coding": [
            {
              "code": "5794-3",
              "system": "http://loinc.org",
              "display": "Hemoglobin [Presence] in Urine by Test strip"
            }
          ],
          "text": "Hemoglobin [Presence] in Urine by Test strip"
        },
        "text": {
          "status": "generated",
          "div": "<div xmlns=\"http://www.w3.org/1999/xhtml\"><table class=\"hl7__eu__lab__report\"><tr><th>Test</th><th>11-Feb-2016</th><th>Reference&#xA0;Range</th><th>Unit</th></tr><tr><td>Hemoglobin [Presence] in Urine by Test strip</td></tr></table></div>"
        },
        "status": "final",
        "subject": {
          "reference": "urn:uuid:44b7eff3-48ec-48fc-8013-da84d5e0958a",
          "display": "Marthe Gallet"
        },
        "effectiveDateTime": "2016-02-11T19:05:43Z",
        "specimen": {
          "reference": "urn:uuid:b362d1c3-f462-438b-9930-c51289d61e07"
        }
      }
    },
    {
      "fullUrl": "urn:uuid:b3903b1e-9782-4ccd-a645-6caf3f7c3cd0",
      "resource": {
        "resourceType": "Observation",
        "id": "b3903b1e-9782-4ccd-a645-6caf3f7c3cd0",
        "meta": {
          "profile": [
            "http://hl7.eu/fhir/laboratory/StructureDefinition/Observation-resultslab-eu-lab"
          ]
        },
        "performer": [
          {
            "display": "The Central European Lab"
          }
        ],
        "category": [
          {
            "coding": [
              {
                "system": "http://terminology.hl7.org/CodeSystem/observation-category",
                "code": "laboratory"
              }
            ]
          }
        ],
        "code": {
          "coding": [
            {
              "code": "5799-2",
              "system": "http://loinc.org",
              "display": "Leukocyte esterase [Presence] in Urine by Test strip"
            }
          ],
          "text": "Leukocyte esterase [Presence] in Urine by Test strip"
        },
        "text": {
          "status": "generated",
          "div": "<div xmlns=\"http://www.w3.org/1999/xhtml\"><table class=\"hl7__eu__lab__report\"><tr><th>Test</th><th>11-Feb-2016</th><th>Reference&#xA0;Range</th><th>Unit</th></tr><tr><td>Leukocyte esterase [Presence] in Urine by Test strip</td></tr></table></div>"
        },
        "status": "final",
        "subject": {
          "reference": "urn:uuid:44b7eff3-48ec-48fc-8013-da84d5e0958a",
          "display": "Marthe Gallet"
        },
        "effectiveDateTime": "2016-02-11T19:05:43Z",
        "specimen": {
          "reference": "urn:uuid:b362d1c3-f462-438b-9930-c51289d61e07"
        }
      }
    },
    {
      "fullUrl": "urn:uuid:1ff04a47-4519-46f9-9426-c80189d8c58a",
      "resource": {
        "resourceType": "Observation",
        "id": "1ff04a47-4519-46f9-9426-c80189d8c58a",
        "meta": {
          "profile": [
            "http://hl7.eu/fhir/laboratory/StructureDefinition/Observation-resultslab-eu-lab"
          ]
        },
        "performer": [
          {
            "display": "The Central European Lab"
          }
        ],
        "category": [
          {
            "coding": [
              {
                "system": "http://terminology.hl7.org/CodeSystem/observation-category",
                "code": "laboratory"
              }
            ]
          }
        ],
        "code": {
          "coding": [
            {
              "code": "2093-3",
              "system": "http://loinc.org",
              "display": "Cholesterol [Mass/volume] in Serum or Plasma"
            }
          ],
          "text": "Cholesterol [Mass/volume] in Serum or Plasma"
        },
        "valueQuantity": {
          "system": "http://unitsofmeasure.org",
          "value": 125,
          "unit": "mg/dL",
          "code": "mg/dL"
        },
        "referenceRange": [
          {
            "low": {
              "value": 125,
              "code": "mg/dL",
              "system": "http://unitsofmeasure.org"
            }
          },
          {
            "high": {
              "value": 200,
              "code": "mg/dL",
              "system": "http://unitsofmeasure.org"
            }
          }
        ],
        "text": {
          "status": "generated",
          "div": "<div xmlns=\"http://www.w3.org/1999/xhtml\"><table class=\"hl7__eu__lab__report\"><tr><th>Test</th><th>11-Feb-2016</th><th>Reference&#xA0;Range</th><th>Unit</th></tr><tr><td>Cholesterol [Mass/volume] in Serum or Plasma</td><td>125.0</td><td>125 - 200</td><td></td><td>mg/dL</td></tr></table></div>"
        },
        "status": "final",
        "subject": {
          "reference": "urn:uuid:44b7eff3-48ec-48fc-8013-da84d5e0958a",
          "display": "Marthe Gallet"
        },
        "effectiveDateTime": "2016-02-11T19:05:43Z",
        "specimen": {
          "reference": "urn:uuid:6687f229-0bef-4942-bd11-6b242a430f64"
        }
      }
    },
    {
      "fullUrl": "urn:uuid:56493396-43d9-40d6-b585-7bd87442c798",
      "resource": {
        "resourceType": "Observation",
        "id": "56493396-43d9-40d6-b585-7bd87442c798",
        "meta": {
          "profile": [
            "http://hl7.eu/fhir/laboratory/StructureDefinition/Observation-resultslab-eu-lab"
          ]
        },
        "performer": [
          {
            "display": "The Central European Lab"
          }
        ],
        "category": [
          {
            "coding": [
              {
                "system": "http://terminology.hl7.org/CodeSystem/observation-category",
                "code": "laboratory"
              }
            ]
          }
        ],
        "code": {
          "coding": [
            {
              "code": "2571-8",
              "system": "http://loinc.org",
              "display": "Triglyceride [Mass/volume] in Serum or Plasma"
            }
          ],
          "text": "Triglyceride [Mass/volume] in Serum or Plasma"
        },
        "valueQuantity": {
          "system": "http://unitsofmeasure.org",
          "value": 141.6,
          "unit": "mg/dL",
          "code": "mg/dL"
        },
        "referenceRange": [
          {
            "low": {
              "value": 10,
              "code": "mg/dL",
              "system": "http://unitsofmeasure.org"
            }
          },
          {
            "high": {
              "value": 175,
              "code": "mg/dL",
              "system": "http://unitsofmeasure.org"
            }
          }
        ],
        "text": {
          "status": "generated",
          "div": "<div xmlns=\"http://www.w3.org/1999/xhtml\"><table class=\"hl7__eu__lab__report\"><tr><th>Test</th><th>11-Feb-2016</th><th>Reference&#xA0;Range</th><th>Unit</th></tr><tr><td>Triglyceride [Mass/volume] in Serum or Plasma</td><td>141.6</td><td>10 - 175</td><td></td><td>mg/dL</td></tr></table></div>"
        },
        "status": "final",
        "subject": {
          "reference": "urn:uuid:44b7eff3-48ec-48fc-8013-da84d5e0958a",
          "display": "Marthe Gallet"
        },
        "effectiveDateTime": "2016-02-11T19:05:43Z",
        "specimen": {
          "reference": "urn:uuid:6687f229-0bef-4942-bd11-6b242a430f64"
        }
      }
    },
    {
      "fullUrl": "urn:uuid:325c06f8-5ea9-499a-aff3-689107b80dbb",
      "resource": {
        "resourceType": "Observation",
        "id": "325c06f8-5ea9-499a-aff3-689107b80dbb",
        "meta": {
          "profile": [
            "http://hl7.eu/fhir/laboratory/StructureDefinition/Observation-resultslab-eu-lab"
          ]
        },
        "performer": [
          {
            "display": "The Central European Lab"
          }
        ],
        "category": [
          {
            "coding": [
              {
                "system": "http://terminology.hl7.org/CodeSystem/observation-category",
                "code": "laboratory"
              }
            ]
          }
        ],
        "code": {
          "coding": [
            {
              "code": "18262-6",
              "system": "http://loinc.org",
              "display": "Cholesterol in LDL [Mass/volume] in Serum or Plasma by Direct assay"
            }
          ],
          "text": "Cholesterol in LDL [Mass/volume] in Serum or Plasma by Direct assay"
        },
        "valueQuantity": {
          "system": "http://unitsofmeasure.org",
          "value": 37.7,
          "unit": "mg/dL",
          "code": "mg/dL"
        },
        "referenceRange": [
          {
            "low": {
              "value": 0,
              "code": "mg/dL",
              "system": "http://unitsofmeasure.org"
            }
          },
          {
            "high": {
              "value": 130,
              "code": "mg/dL",
              "system": "http://unitsofmeasure.org"
            }
          }
        ],
        "text": {
          "status": "generated",
          "div": "<div xmlns=\"http://www.w3.org/1999/xhtml\"><table class=\"hl7__eu__lab__report\"><tr><th>Test</th><th>11-Feb-2016</th><th>Reference&#xA0;Range</th><th>Unit</th></tr><tr><td>Cholesterol in LDL [Mass/volume] in Serum or Plasma by Direct assay</td><td>37.7</td><td>0 - 130</td><td></td><td>mg/dL</td></tr></table></div>"
        },
        "status": "final",
        "subject": {
          "reference": "urn:uuid:44b7eff3-48ec-48fc-8013-da84d5e0958a",
          "display": "Marthe Gallet"
        },
        "effectiveDateTime": "2016-02-11T19:05:43Z",
        "specimen": {
          "reference": "urn:uuid:6687f229-0bef-4942-bd11-6b242a430f64"
        }
      }
    },
    {
      "fullUrl": "urn:uuid:4cc567d9-f13c-44dc-9512-483c20f567a9",
      "resource": {
        "resourceType": "Observation",
        "id": "4cc567d9-f13c-44dc-9512-483c20f567a9",
        "meta": {
          "profile": [
            "http://hl7.eu/fhir/laboratory/StructureDefinition/Observation-resultslab-eu-lab"
          ]
        },
        "performer": [
          {
            "display": "The Central European Lab"
          }
        ],
        "category": [
          {
            "coding": [
              {
                "system": "http://terminology.hl7.org/CodeSystem/observation-category",
                "code": "laboratory"
              }
            ]
          }
        ],
        "code": {
          "coding": [
            {
              "code": "2085-9",
              "system": "http://loinc.org",
              "display": "Cholesterol in HDL [Mass/volume] in Serum or Plasma"
            }
          ],
          "text": "Cholesterol in HDL [Mass/volume] in Serum or Plasma"
        },
        "valueQuantity": {
          "system": "http://unitsofmeasure.org",
          "value": 59,
          "unit": "mg/dL",
          "code": "mg/dL"
        },
        "referenceRange": [
          {
            "low": {
              "value": 40,
              "code": "mg/dL",
              "system": "http://unitsofmeasure.org"
            }
          },
          {
            "high": {
              "value": 100,
              "code": "mg/dL",
              "system": "http://unitsofmeasure.org"
            }
          }
        ],
        "text": {
          "status": "generated",
          "div": "<div xmlns=\"http://www.w3.org/1999/xhtml\"><table class=\"hl7__eu__lab__report\"><tr><th>Test</th><th>11-Feb-2016</th><th>Reference&#xA0;Range</th><th>Unit</th></tr><tr><td>Cholesterol in HDL [Mass/volume] in Serum or Plasma</td><td>59.0</td><td>40 - 100</td><td></td><td>mg/dL</td></tr></table></div>"
        },
        "status": "final",
        "subject": {
          "reference": "urn:uuid:44b7eff3-48ec-48fc-8013-da84d5e0958a",
          "display": "Marthe Gallet"
        },
        "effectiveDateTime": "2016-02-11T19:05:43Z",
        "specimen": {
          "reference": "urn:uuid:6687f229-0bef-4942-bd11-6b242a430f64"
        }
      }
    },
    {
      "fullUrl": "urn:uuid:526af445-f0ed-40d2-a87a-0f1872cffa93",
      "resource": {
        "resourceType": "Device",
        "id": "526af445-f0ed-40d2-a87a-0f1872cffa93",
        "deviceName": [
          {
            "name": "SYNDERAI Synthetic Generator",
            "type": "manufacturer-name"
          }
        ],
        "version": [
          {
            "value": "5.0"
          }
        ],
        "text": {
          "status": "generated",
          "div": "<div xmlns=\"http://www.w3.org/1999/xhtml\">SYNDERAI Synthetic Generator v5.0</div>"
        },
        "status": "active\"",
        "distinctIdentifier": "synderai-generator-50",
        "manufacturer": "SYNDERAI Project"
      }
    },
    {
      "fullUrl": "urn:uuid:ac3a103f-8c5e-42d1-9962-a6281c54ce9f",
      "resource": {
        "resourceType": "Provenance",
        "id": "ac3a103f-8c5e-42d1-9962-a6281c54ce9f",
        "target": [
          {
            "reference": "Patient/44b7eff3-48ec-48fc-8013-da84d5e0958a"
          },
          {
            "reference": "Bundle/69ae56be-819a-4d46-a361-e6cf78c899fc"
          },
          {
            "reference": "Composition/c52a4e2a-38ee-43da-b6ac-4c5bc8a3cfef"
          },
          {
            "reference": "PractitionerRole/1b815ae9-e8f7-4986-b22c-e3f80503410e"
          },
          {
            "reference": "Practitioner/c0431067-91b8-4f97-aa99-6d162d8cb5a9"
          },
          {
            "reference": "PractitionerRole/c44edd79-5ab3-4d05-a05b-e87420a5dcb1"
          },
          {
            "reference": "Organization/9ec1d899-621b-4e6a-a67b-3453e4a27157"
          }
        ],
        "activity": {
          "text": "Synthetic Example Data Generation"
        },
        "policy": [
          "https://synderai.net/synderai-synthetic-data-policy"
        ],
        "agent": [
          {
            "type": {
              "text": "author"
            },
            "who": {
              "reference": "Device/526af445-f0ed-40d2-a87a-0f1872cffa93"
            }
          }
        ],
        "reason": [
          {
            "text": "Interoperability Testing and Training (non-clinical use)"
          }
        ],
        "text": {
          "status": "generated",
          "div": "<div xmlns=\"http://www.w3.org/1999/xhtml\">Provenance for SYNDERAI Synthetic Example Data Resource</div>"
        },
        "recorded": "2016-02-11T20:05:43Z"
      }
    },
    {
      "fullUrl": "urn:uuid:1b815ae9-e8f7-4986-b22c-e3f80503410e",
      "resource": {
        "resourceType": "PractitionerRole",
        "id": "1b815ae9-e8f7-4986-b22c-e3f80503410e",
        "meta": {
          "profile": [
            "http://hl7.eu/fhir/base/StructureDefinition/practitionerRole-eu"
          ]
        },
        "text": {
          "status": "generated",
          "div": "<div xmlns=\"http://www.w3.org/1999/xhtml\">Laboratory Role Id: 1b815ae9-e8f7-4986-b22c-e3f80503410e</div>"
        },
        "practitioner": {
          "reference": "urn:uuid:c0431067-91b8-4f97-aa99-6d162d8cb5a9"
        }
      }
    },
    {
      "fullUrl": "urn:uuid:c0431067-91b8-4f97-aa99-6d162d8cb5a9",
      "resource": {
        "resourceType": "Practitioner",
        "id": "c0431067-91b8-4f97-aa99-6d162d8cb5a9",
        "meta": {
          "profile": [
            "http://hl7.eu/fhir/base/StructureDefinition/practitioner-eu"
          ]
        },
        "identifier": [
          {
            "assigner": {
              "display": "HL7 Europe"
            },
            "system": "urn:oid:2.16.840.1.113883.2.51.999",
            "value": "136e9204-5b78-4cbc-b37d-d91c64fc6366"
          }
        ],
        "name": [
          {
            "prefix": [
              "dr"
            ],
            "given": [
              "Ex"
            ],
            "family": "Ample"
          }
        ],
        "address": [
          {
            "line": [
              "Laboratoire Central Europenne",
              "Boulevard du Jardin Botanique 32"
            ],
            "postalCode": "1000",
            "city": "Brussels",
            "country": "Belgium"
          }
        ],
        "text": {
          "status": "generated",
          "div": "<div xmlns=\"http://www.w3.org/1999/xhtml\">Laboratory: Laboratoire Central Europenne, 1000 Brussels, Belgium</div>"
        }
      }
    }
  ],
  "type": "document",
  "timestamp": "2016-02-11T20:05:43Z"
}
