{
  "resourceType": "Bundle",
  "id": "3b15c849-ea6a-4c43-b9dc-083517791d1d",
  "meta": {
    "profile": [
      "http://hl7.eu/fhir/laboratory/StructureDefinition/Bundle-eu-lab"
    ]
  },
  "identifier": {
    "assigner": {
      "display": "HL7 Europe"
    },
    "system": "urn:oid:2.16.840.1.113883.2.51.999",
    "value": "3a4e1553-02c6-4f7e-97fc-2ffd17814b9d"
  },
  "entry": [
    {
      "fullUrl": "urn:uuid:c8a37403-ed72-4c39-a9a1-7b7224b14888",
      "resource": {
        "resourceType": "Composition",
        "id": "c8a37403-ed72-4c39-a9a1-7b7224b14888",
        "meta": {
          "profile": [
            "http://hl7.eu/fhir/laboratory/StructureDefinition/Composition-eu-lab"
          ]
        },
        "identifier": {
          "assigner": {
            "display": "HL7 Europe"
          },
          "system": "urn:oid:2.16.840.1.113883.2.51.999",
          "value": "4336edde-d821-40a8-a2e0-9b3ce8d00103"
        },
        "author": [
          {
            "reference": "urn:uuid:1b6d9160-cd5b-4f73-ac1f-436c92ae7d99"
          }
        ],
        "category": [
          {
            "coding": [
              {
                "code": "26436-6",
                "system": "http://loinc.org",
                "display": "Laboratory studies (set)"
              }
            ]
          }
        ],
        "type": {
          "coding": [
            {
              "code": "11502-2",
              "system": "http://loinc.org",
              "display": "Laboratory report"
            }
          ],
          "text": "Laboratory Report"
        },
        "section": [
          {
            "code": {
              "coding": [
                {
                  "code": "26436-6",
                  "system": "http://loinc.org",
                  "display": "Laboratory studies (set)"
                }
              ],
              "text": "Laboratory studies"
            },
            "section": [
              {
                "code": {
                  "coding": [
                    {
                      "code": "$18719-5",
                      "system": "http://loinc.org",
                      "display": "Chemistry studies (set)"
                    }
                  ],
                  "text": "Chemistry"
                },
                "entry": [
                  {
                    "reference": "urn:uuid:7c22c202-1a56-417d-8938-2e1f151d862d"
                  },
                  {
                    "reference": "urn:uuid:3cc5ff85-a960-4d50-bc19-5bf5cb58de95"
                  },
                  {
                    "reference": "urn:uuid:372c7edd-b53a-4f8b-a9f6-3bc952f1dcc0"
                  },
                  {
                    "reference": "urn:uuid:cb126287-591c-42f9-a0ea-2570ffef5e2a"
                  },
                  {
                    "reference": "urn:uuid:c36ebb78-2a40-4aa9-a8dd-60f16e34157a"
                  },
                  {
                    "reference": "urn:uuid:55a9ede0-9896-475a-948f-7e5334071619"
                  },
                  {
                    "reference": "urn:uuid:74d358c9-3e68-4927-bfc6-9431b811888f"
                  },
                  {
                    "reference": "urn:uuid:b85043af-2322-43a2-abcf-b45f9e4127fe"
                  },
                  {
                    "reference": "urn:uuid:b69d6154-d477-4f15-9eea-6d210c33d36c"
                  }
                ],
                "text": {
                  "status": "generated",
                  "div": "<div xmlns=\"http://www.w3.org/1999/xhtml\"><h3>Chemistry</h3><table class=\"hl7__eu__lab__report\"><thead><tr><th>Test</th><th>15-AUG-2016</th><th>Reference&#xA0;Range</th><th>Unit</th></tr></thead><tbody><tr><td>Hemoglobin A1c/Hemoglobin.total in Blood</td><td>5.8</td><td>4 - 6</td><td>%</td></tr><tr><td>Glucose [Mass/volume] in Blood</td><td>89.6</td><td>70 - 140</td><td>mg/dL</td></tr><tr><td>Urea nitrogen [Mass/volume] in Blood</td><td>13.1</td><td>7 - 20</td><td>mg/dL</td></tr><tr><td>Creatinine [Mass/volume] in Blood</td><td>0.9</td><td>0.9 - 1.3</td><td>mg/dL</td></tr><tr><td>Calcium [Mass/volume] in Blood</td><td>8.9</td><td>8.5 - 10.5</td><td>mg/dL</td></tr><tr><td>Sodium [Moles/volume] in Blood</td><td>140.8</td><td>135 - 145</td><td>mmol/L</td></tr><tr><td>Potassium [Moles/volume] in Blood</td><td>4.9</td><td>3.5 - 5</td><td>mmol/L</td></tr><tr><td>Chloride [Moles/volume] in Blood</td><td>105.5</td><td>98 - 110</td><td>mmol/L</td></tr><tr><td>Carbon dioxide, total [Moles/volume] in Blood</td><td>28.5</td><td>22 - 32</td><td>mmol/L</td></tr></tbody></table></div>"
                },
                "title": "Chemistry"
              }
            ],
            "title": "Laboratory Report"
          },
          {
            "text": {
              "status": "generated",
              "div": "<div xmlns=\"http://www.w3.org/1999/xhtml\"><h3>Annotation</h3><table class=\"hl7__eu__lab__report\"><tr><th>Conclusion and Recommendations based on this report and previous findings known to us</th></tr><tr><td>All measured parameters are within normal limits. HbA1c is at the upper end of normal, suggesting good glycemic control but continued monitoring is advisable. Renal function, electrolytes, and metabolic parameters are unremarkable. No acute laboratory abnormalities detected.</td></tr></table></div>"
            },
            "code": {
              "coding": [
                {
                  "system": "http://loinc.org",
                  "code": "48767-8",
                  "display": "Annotation comment"
                }
              ]
            },
            "title": "Annotation comment"
          }
        ],
        "status": "final",
        "subject": {
          "reference": "urn:uuid:2fd90882-f5d1-41f8-9e50-79750c47972a",
          "display": "Alessio Fanucci"
        },
        "date": "2016-08-15T09:49:06Z",
        "title": "Laboratory Report",
        "confidentiality": "N"
      }
    },
    {
      "fullUrl": "urn:uuid:883df3bc-f1a4-4cfe-81f5-306133094e2c",
      "resource": {
        "resourceType": "DiagnosticReport",
        "id": "883df3bc-f1a4-4cfe-81f5-306133094e2c",
        "meta": {
          "profile": [
            "http://hl7.eu/fhir/laboratory/StructureDefinition/DiagnosticReport-eu-lab"
          ]
        },
        "identifier": [
          {
            "assigner": {
              "display": "HL7 Europe"
            },
            "system": "urn:oid:2.16.840.1.113883.2.51.999",
            "value": "177b49fe-7023-4968-b478-2e67c0181378"
          }
        ],
        "extension": [
          {
            "url": "http://hl7.org/fhir/5.0/StructureDefinition/extension-DiagnosticReport.composition",
            "valueReference": {
              "reference": "urn:uuid:4336edde-d821-40a8-a2e0-9b3ce8d00103"
            }
          }
        ],
        "category": [
          {
            "coding": [
              {
                "code": "26436-6",
                "system": "http://loinc.org",
                "display": "Laboratory studies (set)"
              }
            ]
          }
        ],
        "specimen": [
          {
            "reference": "urn:uuid:c9d34fb2-caaa-45c2-8e74-ce7ce5e44e28"
          }
        ],
        "result": [
          {
            "reference": "urn:uuid:7c22c202-1a56-417d-8938-2e1f151d862d"
          },
          {
            "reference": "urn:uuid:3cc5ff85-a960-4d50-bc19-5bf5cb58de95"
          },
          {
            "reference": "urn:uuid:372c7edd-b53a-4f8b-a9f6-3bc952f1dcc0"
          },
          {
            "reference": "urn:uuid:cb126287-591c-42f9-a0ea-2570ffef5e2a"
          },
          {
            "reference": "urn:uuid:c36ebb78-2a40-4aa9-a8dd-60f16e34157a"
          },
          {
            "reference": "urn:uuid:55a9ede0-9896-475a-948f-7e5334071619"
          },
          {
            "reference": "urn:uuid:74d358c9-3e68-4927-bfc6-9431b811888f"
          },
          {
            "reference": "urn:uuid:b85043af-2322-43a2-abcf-b45f9e4127fe"
          },
          {
            "reference": "urn:uuid:b69d6154-d477-4f15-9eea-6d210c33d36c"
          }
        ],
        "status": "registered",
        "code": {
          "coding": [
            {
              "code": "11502-2",
              "system": "http://loinc.org",
              "display": "Laboratory report"
            }
          ]
        },
        "subject": {
          "reference": "urn:uuid:2fd90882-f5d1-41f8-9e50-79750c47972a",
          "display": "Alessio Fanucci"
        }
      }
    },
    {
      "fullUrl": "urn:uuid:2fd90882-f5d1-41f8-9e50-79750c47972a",
      "resource": {
        "resourceType": "Patient",
        "id": "2fd90882-f5d1-41f8-9e50-79750c47972a",
        "meta": {
          "security": [
            {
              "system": "http://terminology.hl7.org/CodeSystem/v3-ActReason",
              "code": "HTEST"
            },
            {
              "system": "http://terminology.hl7.org/CodeSystem/v3-ActReason",
              "code": "TRAIN"
            }
          ],
          "tag": [
            {
              "system": "https://synderai.net/fhir/CodeSystem/tags",
              "code": "synthetic",
              "display": "SYNDERAI Synthetic data"
            }
          ],
          "profile": [
            "http://hl7.eu/fhir/base/StructureDefinition/patient-eu-core"
          ]
        },
        "identifier": [
          {
            "type": {
              "coding": [
                {
                  "code": "PT",
                  "system": "http://terminology.hl7.org/CodeSystem/v2-0203"
                }
              ]
            },
            "system": "http://ec.europa.eu/identifier/eci",
            "value": "4754-874768-3"
          },
          {
            "type": {
              "coding": [
                {
                  "code": "MR",
                  "system": "http://terminology.hl7.org/CodeSystem/v2-0203"
                }
              ]
            },
            "system": "http://local.setting.eu/identifier",
            "value": "4b888823-bdd8-59a3-b785-e7ba28e6a7b5"
          }
        ],
        "name": [
          {
            "family": "Fanucci"
          },
          {
            "given": [
              "Alessio"
            ]
          },
          {
            "text": "Alessio Fanucci"
          }
        ],
        "address": [
          {
            "line": [
              "Incrocio Combi, 822"
            ],
            "use": "home",
            "type": "physical",
            "postalCode": "33015",
            "city": "Moggio Udinese",
            "country": "Italy"
          }
        ],
        "telecom": [
          {
            "system": "phone",
            "value": "0125684636"
          }
        ],
        "extension": [
          {
            "url": "http://hl7.org/fhir/StructureDefinition/patient-nationality",
            "valueCodeableConcept": {
              "coding": [
                {
                  "code": "IT",
                  "system": "http://hl7.org/fhir/ValueSet/country"
                }
              ]
            }
          }
        ],
        "text": {
          "status": "generated",
          "div": "<div xmlns=\"http://www.w3.org/1999/xhtml\"><table class=\"hl7__ips\"><tr><td>Alessio Fanucci</td><td>male</td><td>12-Sep-1964</td></tr></table></div>"
        },
        "gender": "male",
        "birthDate": "1964-09-12"
      }
    },
    {
      "fullUrl": "urn:uuid:e9af8fd9-86ce-46cc-a589-ab0a50207294",
      "resource": {
        "resourceType": "ServiceRequest",
        "id": "e9af8fd9-86ce-46cc-a589-ab0a50207294",
        "meta": {
          "profile": [
            "http://hl7.eu/fhir/laboratory/StructureDefinition/ServiceRequest-eu-lab"
          ]
        },
        "identifier": [
          {
            "system": "http://example.org",
            "value": "4590a4b2-384d-469d-bc51-d0c5c2aa67db"
          }
        ],
        "specimen": [
          {
            "reference": "urn:uuid:c9d34fb2-caaa-45c2-8e74-ce7ce5e44e28"
          }
        ],
        "reasonCode": [
          {
            "coding": [
              {
                "code": "15777000",
                "system": "http://snomed.info/sct",
                "display": "Prediabetes"
              }
            ]
          },
          {
            "coding": [
              {
                "code": "271737000",
                "system": "http://snomed.info/sct",
                "display": "Anemia"
              }
            ]
          },
          {
            "coding": [
              {
                "code": "40055000",
                "system": "http://snomed.info/sct",
                "display": "Chronic sinusitis"
              }
            ]
          }
        ],
        "status": "active",
        "intent": "order",
        "code": {
          "coding": [
            {
              "code": "108252007",
              "system": "http://snomed.info/sct",
              "display": "Laboratory procedure"
            }
          ]
        },
        "subject": {
          "reference": "urn:uuid:2fd90882-f5d1-41f8-9e50-79750c47972a",
          "display": "Alessio Fanucci"
        },
        "requester": {
          "reference": "urn:uuid:39642508-a5d0-4997-bd1b-55b955049262"
        }
      }
    },
    {
      "fullUrl": "urn:uuid:39642508-a5d0-4997-bd1b-55b955049262",
      "resource": {
        "resourceType": "PractitionerRole",
        "id": "39642508-a5d0-4997-bd1b-55b955049262",
        "meta": {
          "profile": [
            "http://hl7.eu/fhir/base/StructureDefinition/practitionerRole-eu"
          ]
        },
        "text": {
          "status": "generated",
          "div": "<div xmlns=\"http://www.w3.org/1999/xhtml\">Provider Role Id: 39642508-a5d0-4997-bd1b-55b955049262</div>"
        },
        "organization": {
          "reference": "urn:uuid:48e636d2-e724-4939-8123-4521391c0c7d"
        }
      }
    },
    {
      "fullUrl": "urn:uuid:48e636d2-e724-4939-8123-4521391c0c7d",
      "resource": {
        "resourceType": "Organization",
        "id": "48e636d2-e724-4939-8123-4521391c0c7d",
        "meta": {
          "profile": [
            "http://hl7.eu/fhir/base/StructureDefinition/organization-eu"
          ]
        },
        "identifier": [
          {
            "assigner": {
              "display": "HL7 Europe"
            },
            "system": "urn:oid:2.16.840.1.113883.2.51.999",
            "value": "76d45fbe-defd-48db-8b84-74ff6aa8959b"
          }
        ],
        "address": [
          {
            "city": "Artegna",
            "postalCode": "33011",
            "country": "Italy"
          }
        ],
        "text": {
          "status": "generated",
          "div": "<div xmlns=\"http://www.w3.org/1999/xhtml\">Provider Organization: Ambulatori</div>"
        },
        "name": "Ambulatori"
      }
    },
    {
      "fullUrl": "urn:uuid:c9d34fb2-caaa-45c2-8e74-ce7ce5e44e28",
      "resource": {
        "resourceType": "Specimen",
        "id": "c9d34fb2-caaa-45c2-8e74-ce7ce5e44e28",
        "meta": {
          "profile": [
            "http://hl7.eu/fhir/laboratory/StructureDefinition/Specimen-eu-lab"
          ]
        },
        "collection": {
          "collectedDateTime": "2016-08-15"
        },
        "text": {
          "status": "generated",
          "div": "<div xmlns=\"http://www.w3.org/1999/xhtml\"><table class=\"hl7__eu__lab__report\"><tr><th>Specimen</th><th>Collection Date</th></tr><tr><td>Whole blood specimen (specimen)</td><td><span class=\"nb\">15-Aug-2016</span></td></tr></table></div>"
        },
        "type": {
          "coding": [
            {
              "code": "258580003",
              "system": "http://snomed.info/sct",
              "display": "Whole blood specimen (specimen)"
            }
          ]
        }
      }
    },
    {
      "fullUrl": "urn:uuid:7c22c202-1a56-417d-8938-2e1f151d862d",
      "resource": {
        "resourceType": "Observation",
        "id": "7c22c202-1a56-417d-8938-2e1f151d862d",
        "meta": {
          "profile": [
            "http://hl7.eu/fhir/laboratory/StructureDefinition/Observation-resultslab-eu-lab"
          ]
        },
        "performer": [
          {
            "display": "The Central European Lab"
          }
        ],
        "category": [
          {
            "coding": [
              {
                "system": "http://terminology.hl7.org/CodeSystem/observation-category",
                "code": "laboratory"
              }
            ]
          }
        ],
        "code": {
          "coding": [
            {
              "code": "4548-4",
              "system": "http://loinc.org",
              "display": "Hemoglobin A1c/Hemoglobin.total in Blood"
            }
          ],
          "text": "Hemoglobin A1c/Hemoglobin.total in Blood"
        },
        "valueQuantity": {
          "system": "http://unitsofmeasure.org",
          "value": 5.8,
          "unit": "%",
          "code": "%"
        },
        "referenceRange": [
          {
            "low": {
              "value": 4,
              "code": "%",
              "system": "http://unitsofmeasure.org"
            }
          },
          {
            "high": {
              "value": 6,
              "code": "%",
              "system": "http://unitsofmeasure.org"
            }
          }
        ],
        "text": {
          "status": "generated",
          "div": "<div xmlns=\"http://www.w3.org/1999/xhtml\"><table class=\"hl7__eu__lab__report\"><tr><th>Test</th><th>15-Aug-2016</th><th>Reference&#xA0;Range</th><th>Unit</th></tr><tr><td>Hemoglobin A1c/Hemoglobin.total in Blood</td><td>5.8</td><td>4 - 6</td><td></td><td>%</td></tr></table></div>"
        },
        "status": "final",
        "subject": {
          "reference": "urn:uuid:2fd90882-f5d1-41f8-9e50-79750c47972a",
          "display": "Alessio Fanucci"
        },
        "effectiveDateTime": "2016-08-15T07:49:06Z",
        "specimen": {
          "reference": "urn:uuid:c9d34fb2-caaa-45c2-8e74-ce7ce5e44e28"
        }
      }
    },
    {
      "fullUrl": "urn:uuid:3cc5ff85-a960-4d50-bc19-5bf5cb58de95",
      "resource": {
        "resourceType": "Observation",
        "id": "3cc5ff85-a960-4d50-bc19-5bf5cb58de95",
        "meta": {
          "profile": [
            "http://hl7.eu/fhir/laboratory/StructureDefinition/Observation-resultslab-eu-lab"
          ]
        },
        "performer": [
          {
            "display": "The Central European Lab"
          }
        ],
        "category": [
          {
            "coding": [
              {
                "system": "http://terminology.hl7.org/CodeSystem/observation-category",
                "code": "laboratory"
              }
            ]
          }
        ],
        "code": {
          "coding": [
            {
              "code": "2339-0",
              "system": "http://loinc.org",
              "display": "Glucose [Mass/volume] in Blood"
            }
          ],
          "text": "Glucose [Mass/volume] in Blood"
        },
        "valueQuantity": {
          "system": "http://unitsofmeasure.org",
          "value": 89.6,
          "unit": "mg/dL",
          "code": "mg/dL"
        },
        "referenceRange": [
          {
            "low": {
              "value": 70,
              "code": "mg/dL",
              "system": "http://unitsofmeasure.org"
            }
          },
          {
            "high": {
              "value": 140,
              "code": "mg/dL",
              "system": "http://unitsofmeasure.org"
            }
          }
        ],
        "text": {
          "status": "generated",
          "div": "<div xmlns=\"http://www.w3.org/1999/xhtml\"><table class=\"hl7__eu__lab__report\"><tr><th>Test</th><th>15-Aug-2016</th><th>Reference&#xA0;Range</th><th>Unit</th></tr><tr><td>Glucose [Mass/volume] in Blood</td><td>89.6</td><td>70 - 140</td><td></td><td>mg/dL</td></tr></table></div>"
        },
        "status": "final",
        "subject": {
          "reference": "urn:uuid:2fd90882-f5d1-41f8-9e50-79750c47972a",
          "display": "Alessio Fanucci"
        },
        "effectiveDateTime": "2016-08-15T07:49:06Z",
        "specimen": {
          "reference": "urn:uuid:c9d34fb2-caaa-45c2-8e74-ce7ce5e44e28"
        }
      }
    },
    {
      "fullUrl": "urn:uuid:372c7edd-b53a-4f8b-a9f6-3bc952f1dcc0",
      "resource": {
        "resourceType": "Observation",
        "id": "372c7edd-b53a-4f8b-a9f6-3bc952f1dcc0",
        "meta": {
          "profile": [
            "http://hl7.eu/fhir/laboratory/StructureDefinition/Observation-resultslab-eu-lab"
          ]
        },
        "performer": [
          {
            "display": "The Central European Lab"
          }
        ],
        "category": [
          {
            "coding": [
              {
                "system": "http://terminology.hl7.org/CodeSystem/observation-category",
                "code": "laboratory"
              }
            ]
          }
        ],
        "code": {
          "coding": [
            {
              "code": "6299-2",
              "system": "http://loinc.org",
              "display": "Urea nitrogen [Mass/volume] in Blood"
            }
          ],
          "text": "Urea nitrogen [Mass/volume] in Blood"
        },
        "valueQuantity": {
          "system": "http://unitsofmeasure.org",
          "value": 13.1,
          "unit": "mg/dL",
          "code": "mg/dL"
        },
        "referenceRange": [
          {
            "low": {
              "value": 7,
              "code": "mg/dL",
              "system": "http://unitsofmeasure.org"
            }
          },
          {
            "high": {
              "value": 20,
              "code": "mg/dL",
              "system": "http://unitsofmeasure.org"
            }
          }
        ],
        "text": {
          "status": "generated",
          "div": "<div xmlns=\"http://www.w3.org/1999/xhtml\"><table class=\"hl7__eu__lab__report\"><tr><th>Test</th><th>15-Aug-2016</th><th>Reference&#xA0;Range</th><th>Unit</th></tr><tr><td>Urea nitrogen [Mass/volume] in Blood</td><td>13.1</td><td>7 - 20</td><td></td><td>mg/dL</td></tr></table></div>"
        },
        "status": "final",
        "subject": {
          "reference": "urn:uuid:2fd90882-f5d1-41f8-9e50-79750c47972a",
          "display": "Alessio Fanucci"
        },
        "effectiveDateTime": "2016-08-15T07:49:06Z",
        "specimen": {
          "reference": "urn:uuid:c9d34fb2-caaa-45c2-8e74-ce7ce5e44e28"
        }
      }
    },
    {
      "fullUrl": "urn:uuid:cb126287-591c-42f9-a0ea-2570ffef5e2a",
      "resource": {
        "resourceType": "Observation",
        "id": "cb126287-591c-42f9-a0ea-2570ffef5e2a",
        "meta": {
          "profile": [
            "http://hl7.eu/fhir/laboratory/StructureDefinition/Observation-resultslab-eu-lab"
          ]
        },
        "performer": [
          {
            "display": "The Central European Lab"
          }
        ],
        "category": [
          {
            "coding": [
              {
                "system": "http://terminology.hl7.org/CodeSystem/observation-category",
                "code": "laboratory"
              }
            ]
          }
        ],
        "code": {
          "coding": [
            {
              "code": "38483-4",
              "system": "http://loinc.org",
              "display": "Creatinine [Mass/volume] in Blood"
            }
          ],
          "text": "Creatinine [Mass/volume] in Blood"
        },
        "valueQuantity": {
          "system": "http://unitsofmeasure.org",
          "value": 0.9,
          "unit": "mg/dL",
          "code": "mg/dL"
        },
        "referenceRange": [
          {
            "low": {
              "value": 0.9,
              "code": "mg/dL",
              "system": "http://unitsofmeasure.org"
            }
          },
          {
            "high": {
              "value": 1.3,
              "code": "mg/dL",
              "system": "http://unitsofmeasure.org"
            }
          }
        ],
        "text": {
          "status": "generated",
          "div": "<div xmlns=\"http://www.w3.org/1999/xhtml\"><table class=\"hl7__eu__lab__report\"><tr><th>Test</th><th>15-Aug-2016</th><th>Reference&#xA0;Range</th><th>Unit</th></tr><tr><td>Creatinine [Mass/volume] in Blood</td><td>0.9</td><td>0.9 - 1.3</td><td></td><td>mg/dL</td></tr></table></div>"
        },
        "status": "final",
        "subject": {
          "reference": "urn:uuid:2fd90882-f5d1-41f8-9e50-79750c47972a",
          "display": "Alessio Fanucci"
        },
        "effectiveDateTime": "2016-08-15T07:49:06Z",
        "specimen": {
          "reference": "urn:uuid:c9d34fb2-caaa-45c2-8e74-ce7ce5e44e28"
        }
      }
    },
    {
      "fullUrl": "urn:uuid:c36ebb78-2a40-4aa9-a8dd-60f16e34157a",
      "resource": {
        "resourceType": "Observation",
        "id": "c36ebb78-2a40-4aa9-a8dd-60f16e34157a",
        "meta": {
          "profile": [
            "http://hl7.eu/fhir/laboratory/StructureDefinition/Observation-resultslab-eu-lab"
          ]
        },
        "performer": [
          {
            "display": "The Central European Lab"
          }
        ],
        "category": [
          {
            "coding": [
              {
                "system": "http://terminology.hl7.org/CodeSystem/observation-category",
                "code": "laboratory"
              }
            ]
          }
        ],
        "code": {
          "coding": [
            {
              "code": "49765-1",
              "system": "http://loinc.org",
              "display": "Calcium [Mass/volume] in Blood"
            }
          ],
          "text": "Calcium [Mass/volume] in Blood"
        },
        "valueQuantity": {
          "system": "http://unitsofmeasure.org",
          "value": 8.9,
          "unit": "mg/dL",
          "code": "mg/dL"
        },
        "referenceRange": [
          {
            "low": {
              "value": 8.5,
              "code": "mg/dL",
              "system": "http://unitsofmeasure.org"
            }
          },
          {
            "high": {
              "value": 10.5,
              "code": "mg/dL",
              "system": "http://unitsofmeasure.org"
            }
          }
        ],
        "text": {
          "status": "generated",
          "div": "<div xmlns=\"http://www.w3.org/1999/xhtml\"><table class=\"hl7__eu__lab__report\"><tr><th>Test</th><th>15-Aug-2016</th><th>Reference&#xA0;Range</th><th>Unit</th></tr><tr><td>Calcium [Mass/volume] in Blood</td><td>8.9</td><td>8.5 - 10.5</td><td></td><td>mg/dL</td></tr></table></div>"
        },
        "status": "final",
        "subject": {
          "reference": "urn:uuid:2fd90882-f5d1-41f8-9e50-79750c47972a",
          "display": "Alessio Fanucci"
        },
        "effectiveDateTime": "2016-08-15T07:49:06Z",
        "specimen": {
          "reference": "urn:uuid:c9d34fb2-caaa-45c2-8e74-ce7ce5e44e28"
        }
      }
    },
    {
      "fullUrl": "urn:uuid:55a9ede0-9896-475a-948f-7e5334071619",
      "resource": {
        "resourceType": "Observation",
        "id": "55a9ede0-9896-475a-948f-7e5334071619",
        "meta": {
          "profile": [
            "http://hl7.eu/fhir/laboratory/StructureDefinition/Observation-resultslab-eu-lab"
          ]
        },
        "performer": [
          {
            "display": "The Central European Lab"
          }
        ],
        "category": [
          {
            "coding": [
              {
                "system": "http://terminology.hl7.org/CodeSystem/observation-category",
                "code": "laboratory"
              }
            ]
          }
        ],
        "code": {
          "coding": [
            {
              "code": "2947-0",
              "system": "http://loinc.org",
              "display": "Sodium [Moles/volume] in Blood"
            }
          ],
          "text": "Sodium [Moles/volume] in Blood"
        },
        "valueQuantity": {
          "system": "http://unitsofmeasure.org",
          "value": 140.8,
          "unit": "mmol/L",
          "code": "mmol/L"
        },
        "referenceRange": [
          {
            "low": {
              "value": 135,
              "code": "mmol/L",
              "system": "http://unitsofmeasure.org"
            }
          },
          {
            "high": {
              "value": 145,
              "code": "mmol/L",
              "system": "http://unitsofmeasure.org"
            }
          }
        ],
        "text": {
          "status": "generated",
          "div": "<div xmlns=\"http://www.w3.org/1999/xhtml\"><table class=\"hl7__eu__lab__report\"><tr><th>Test</th><th>15-Aug-2016</th><th>Reference&#xA0;Range</th><th>Unit</th></tr><tr><td>Sodium [Moles/volume] in Blood</td><td>140.8</td><td>135 - 145</td><td></td><td>mmol/L</td></tr></table></div>"
        },
        "status": "final",
        "subject": {
          "reference": "urn:uuid:2fd90882-f5d1-41f8-9e50-79750c47972a",
          "display": "Alessio Fanucci"
        },
        "effectiveDateTime": "2016-08-15T07:49:06Z",
        "specimen": {
          "reference": "urn:uuid:c9d34fb2-caaa-45c2-8e74-ce7ce5e44e28"
        }
      }
    },
    {
      "fullUrl": "urn:uuid:74d358c9-3e68-4927-bfc6-9431b811888f",
      "resource": {
        "resourceType": "Observation",
        "id": "74d358c9-3e68-4927-bfc6-9431b811888f",
        "meta": {
          "profile": [
            "http://hl7.eu/fhir/laboratory/StructureDefinition/Observation-resultslab-eu-lab"
          ]
        },
        "performer": [
          {
            "display": "The Central European Lab"
          }
        ],
        "category": [
          {
            "coding": [
              {
                "system": "http://terminology.hl7.org/CodeSystem/observation-category",
                "code": "laboratory"
              }
            ]
          }
        ],
        "code": {
          "coding": [
            {
              "code": "6298-4",
              "system": "http://loinc.org",
              "display": "Potassium [Moles/volume] in Blood"
            }
          ],
          "text": "Potassium [Moles/volume] in Blood"
        },
        "valueQuantity": {
          "system": "http://unitsofmeasure.org",
          "value": 4.9,
          "unit": "mmol/L",
          "code": "mmol/L"
        },
        "referenceRange": [
          {
            "low": {
              "value": 3.5,
              "code": "mmol/L",
              "system": "http://unitsofmeasure.org"
            }
          },
          {
            "high": {
              "value": 5,
              "code": "mmol/L",
              "system": "http://unitsofmeasure.org"
            }
          }
        ],
        "text": {
          "status": "generated",
          "div": "<div xmlns=\"http://www.w3.org/1999/xhtml\"><table class=\"hl7__eu__lab__report\"><tr><th>Test</th><th>15-Aug-2016</th><th>Reference&#xA0;Range</th><th>Unit</th></tr><tr><td>Potassium [Moles/volume] in Blood</td><td>4.9</td><td>3.5 - 5</td><td></td><td>mmol/L</td></tr></table></div>"
        },
        "status": "final",
        "subject": {
          "reference": "urn:uuid:2fd90882-f5d1-41f8-9e50-79750c47972a",
          "display": "Alessio Fanucci"
        },
        "effectiveDateTime": "2016-08-15T07:49:06Z",
        "specimen": {
          "reference": "urn:uuid:c9d34fb2-caaa-45c2-8e74-ce7ce5e44e28"
        }
      }
    },
    {
      "fullUrl": "urn:uuid:b85043af-2322-43a2-abcf-b45f9e4127fe",
      "resource": {
        "resourceType": "Observation",
        "id": "b85043af-2322-43a2-abcf-b45f9e4127fe",
        "meta": {
          "profile": [
            "http://hl7.eu/fhir/laboratory/StructureDefinition/Observation-resultslab-eu-lab"
          ]
        },
        "performer": [
          {
            "display": "The Central European Lab"
          }
        ],
        "category": [
          {
            "coding": [
              {
                "system": "http://terminology.hl7.org/CodeSystem/observation-category",
                "code": "laboratory"
              }
            ]
          }
        ],
        "code": {
          "coding": [
            {
              "code": "2069-3",
              "system": "http://loinc.org",
              "display": "Chloride [Moles/volume] in Blood"
            }
          ],
          "text": "Chloride [Moles/volume] in Blood"
        },
        "valueQuantity": {
          "system": "http://unitsofmeasure.org",
          "value": 105.5,
          "unit": "mmol/L",
          "code": "mmol/L"
        },
        "referenceRange": [
          {
            "low": {
              "value": 98,
              "code": "mmol/L",
              "system": "http://unitsofmeasure.org"
            }
          },
          {
            "high": {
              "value": 110,
              "code": "mmol/L",
              "system": "http://unitsofmeasure.org"
            }
          }
        ],
        "text": {
          "status": "generated",
          "div": "<div xmlns=\"http://www.w3.org/1999/xhtml\"><table class=\"hl7__eu__lab__report\"><tr><th>Test</th><th>15-Aug-2016</th><th>Reference&#xA0;Range</th><th>Unit</th></tr><tr><td>Chloride [Moles/volume] in Blood</td><td>105.5</td><td>98 - 110</td><td></td><td>mmol/L</td></tr></table></div>"
        },
        "status": "final",
        "subject": {
          "reference": "urn:uuid:2fd90882-f5d1-41f8-9e50-79750c47972a",
          "display": "Alessio Fanucci"
        },
        "effectiveDateTime": "2016-08-15T07:49:06Z",
        "specimen": {
          "reference": "urn:uuid:c9d34fb2-caaa-45c2-8e74-ce7ce5e44e28"
        }
      }
    },
    {
      "fullUrl": "urn:uuid:b69d6154-d477-4f15-9eea-6d210c33d36c",
      "resource": {
        "resourceType": "Observation",
        "id": "b69d6154-d477-4f15-9eea-6d210c33d36c",
        "meta": {
          "profile": [
            "http://hl7.eu/fhir/laboratory/StructureDefinition/Observation-resultslab-eu-lab"
          ]
        },
        "performer": [
          {
            "display": "The Central European Lab"
          }
        ],
        "category": [
          {
            "coding": [
              {
                "system": "http://terminology.hl7.org/CodeSystem/observation-category",
                "code": "laboratory"
              }
            ]
          }
        ],
        "code": {
          "coding": [
            {
              "code": "20565-8",
              "system": "http://loinc.org",
              "display": "Carbon dioxide, total [Moles/volume] in Blood"
            }
          ],
          "text": "Carbon dioxide, total [Moles/volume] in Blood"
        },
        "valueQuantity": {
          "system": "http://unitsofmeasure.org",
          "value": 28.5,
          "unit": "mmol/L",
          "code": "mmol/L"
        },
        "referenceRange": [
          {
            "low": {
              "value": 22,
              "code": "mmol/L",
              "system": "http://unitsofmeasure.org"
            }
          },
          {
            "high": {
              "value": 32,
              "code": "mmol/L",
              "system": "http://unitsofmeasure.org"
            }
          }
        ],
        "text": {
          "status": "generated",
          "div": "<div xmlns=\"http://www.w3.org/1999/xhtml\"><table class=\"hl7__eu__lab__report\"><tr><th>Test</th><th>15-Aug-2016</th><th>Reference&#xA0;Range</th><th>Unit</th></tr><tr><td>Carbon dioxide, total [Moles/volume] in Blood</td><td>28.5</td><td>22 - 32</td><td></td><td>mmol/L</td></tr></table></div>"
        },
        "status": "final",
        "subject": {
          "reference": "urn:uuid:2fd90882-f5d1-41f8-9e50-79750c47972a",
          "display": "Alessio Fanucci"
        },
        "effectiveDateTime": "2016-08-15T07:49:06Z",
        "specimen": {
          "reference": "urn:uuid:c9d34fb2-caaa-45c2-8e74-ce7ce5e44e28"
        }
      }
    },
    {
      "fullUrl": "urn:uuid:a575d7af-d0d4-4c8e-ac43-38505272f565",
      "resource": {
        "resourceType": "Device",
        "id": "a575d7af-d0d4-4c8e-ac43-38505272f565",
        "deviceName": [
          {
            "name": "SYNDERAI Synthetic Generator",
            "type": "manufacturer-name"
          }
        ],
        "version": [
          {
            "value": "5.0"
          }
        ],
        "text": {
          "status": "generated",
          "div": "<div xmlns=\"http://www.w3.org/1999/xhtml\">SYNDERAI Synthetic Generator v5.0</div>"
        },
        "status": "active\"",
        "distinctIdentifier": "synderai-generator-50",
        "manufacturer": "SYNDERAI Project"
      }
    },
    {
      "fullUrl": "urn:uuid:6183826b-d49e-4a21-8bb7-bc7fd99c5977",
      "resource": {
        "resourceType": "Provenance",
        "id": "6183826b-d49e-4a21-8bb7-bc7fd99c5977",
        "target": [
          {
            "reference": "Patient/2fd90882-f5d1-41f8-9e50-79750c47972a"
          },
          {
            "reference": "Bundle/3b15c849-ea6a-4c43-b9dc-083517791d1d"
          },
          {
            "reference": "Composition/c8a37403-ed72-4c39-a9a1-7b7224b14888"
          },
          {
            "reference": "PractitionerRole/1b6d9160-cd5b-4f73-ac1f-436c92ae7d99"
          },
          {
            "reference": "Practitioner/5defeecc-1b43-40cf-b22e-b9bcdf105a84"
          },
          {
            "reference": "PractitionerRole/39642508-a5d0-4997-bd1b-55b955049262"
          },
          {
            "reference": "Organization/48e636d2-e724-4939-8123-4521391c0c7d"
          }
        ],
        "activity": {
          "text": "Synthetic Example Data Generation"
        },
        "policy": [
          "https://synderai.net/synderai-synthetic-data-policy"
        ],
        "agent": [
          {
            "type": {
              "text": "author"
            },
            "who": {
              "reference": "Device/a575d7af-d0d4-4c8e-ac43-38505272f565"
            }
          }
        ],
        "reason": [
          {
            "text": "Interoperability Testing and Training (non-clinical use)"
          }
        ],
        "text": {
          "status": "generated",
          "div": "<div xmlns=\"http://www.w3.org/1999/xhtml\">Provenance for SYNDERAI Synthetic Example Data Resource</div>"
        },
        "recorded": "2016-08-15T09:49:06Z"
      }
    },
    {
      "fullUrl": "urn:uuid:1b6d9160-cd5b-4f73-ac1f-436c92ae7d99",
      "resource": {
        "resourceType": "PractitionerRole",
        "id": "1b6d9160-cd5b-4f73-ac1f-436c92ae7d99",
        "meta": {
          "profile": [
            "http://hl7.eu/fhir/base/StructureDefinition/practitionerRole-eu"
          ]
        },
        "text": {
          "status": "generated",
          "div": "<div xmlns=\"http://www.w3.org/1999/xhtml\">Laboratory Role Id: 1b6d9160-cd5b-4f73-ac1f-436c92ae7d99</div>"
        },
        "practitioner": {
          "reference": "urn:uuid:5defeecc-1b43-40cf-b22e-b9bcdf105a84"
        }
      }
    },
    {
      "fullUrl": "urn:uuid:5defeecc-1b43-40cf-b22e-b9bcdf105a84",
      "resource": {
        "resourceType": "Practitioner",
        "id": "5defeecc-1b43-40cf-b22e-b9bcdf105a84",
        "meta": {
          "profile": [
            "http://hl7.eu/fhir/base/StructureDefinition/practitioner-eu"
          ]
        },
        "identifier": [
          {
            "assigner": {
              "display": "HL7 Europe"
            },
            "system": "urn:oid:2.16.840.1.113883.2.51.999",
            "value": "6d9288bd-528c-41c8-82b8-201183a2664a"
          }
        ],
        "name": [
          {
            "prefix": [
              "dr"
            ],
            "given": [
              "Ex"
            ],
            "family": "Ample"
          }
        ],
        "address": [
          {
            "line": [
              "Laboratoire Central Européenne",
              "Boulevard du Jardin Botanique 32"
            ],
            "postalCode": "1000",
            "city": "Brussels",
            "country": "Belgium"
          }
        ],
        "text": {
          "status": "generated",
          "div": "<div xmlns=\"http://www.w3.org/1999/xhtml\">Laboratory: Laboratoire Central Européenne, 1000 Brussels, Belgium</div>"
        }
      }
    }
  ],
  "type": "document",
  "timestamp": "2016-08-15T09:49:06Z"
}
