{
  "resourceType": "Bundle",
  "id": "34ced47f-e37b-449d-9d18-afabbf38d969",
  "meta": {
    "profile": [
      "http://hl7.eu/fhir/laboratory/StructureDefinition/Bundle-eu-lab"
    ]
  },
  "identifier": {
    "assigner": {
      "display": "HL7 Europe"
    },
    "system": "urn:oid:2.16.840.1.113883.2.51.999",
    "value": "ce801603-ca51-4a8e-8a24-986bc75d81a2"
  },
  "entry": [
    {
      "fullUrl": "urn:uuid:ce3dd1b0-cce2-41e2-89cf-8f8bfd3c63f7",
      "resource": {
        "resourceType": "Composition",
        "id": "ce3dd1b0-cce2-41e2-89cf-8f8bfd3c63f7",
        "meta": {
          "profile": [
            "http://hl7.eu/fhir/laboratory/StructureDefinition/Composition-eu-lab"
          ]
        },
        "identifier": {
          "assigner": {
            "display": "HL7 Europe"
          },
          "system": "urn:oid:2.16.840.1.113883.2.51.999",
          "value": "53428344-c66a-4177-8c43-902a16ccb6cb"
        },
        "author": [
          {
            "reference": "urn:uuid:be860917-42d8-4912-852e-5f40412b7861"
          }
        ],
        "category": [
          {
            "coding": [
              {
                "code": "26436-6",
                "system": "http://loinc.org",
                "display": "Laboratory studies (set)"
              }
            ]
          }
        ],
        "type": {
          "coding": [
            {
              "code": "11502-2",
              "system": "http://loinc.org",
              "display": "Laboratory report"
            }
          ],
          "text": "Laboratory Report"
        },
        "section": [
          {
            "code": {
              "coding": [
                {
                  "code": "26436-6",
                  "system": "http://loinc.org",
                  "display": "Laboratory studies (set)"
                }
              ],
              "text": "Laboratory studies"
            },
            "section": [
              {
                "code": {
                  "coding": [
                    {
                      "code": "$18719-5",
                      "system": "http://loinc.org",
                      "display": "Chemistry studies (set)"
                    }
                  ],
                  "text": "Chemistry"
                },
                "entry": [
                  {
                    "reference": "urn:uuid:c7ac9264-5d67-49b9-ac0e-0cdf88bc7f3c"
                  },
                  {
                    "reference": "urn:uuid:fa1c8c80-9e4a-4fa1-ba0a-e0bab3ee5c1e"
                  },
                  {
                    "reference": "urn:uuid:ed4e1bd2-7b66-4faa-8f12-446447caaecc"
                  },
                  {
                    "reference": "urn:uuid:e15e90b9-f13a-4f9c-8774-631afd12d860"
                  },
                  {
                    "reference": "urn:uuid:2283677f-c843-469c-9d2c-3683ab2ed0fd"
                  },
                  {
                    "reference": "urn:uuid:65b7d13c-dd4a-4145-834c-ed893c12f962"
                  },
                  {
                    "reference": "urn:uuid:48d8f622-d56f-4ee5-a4ab-5ad242cd8e3a"
                  },
                  {
                    "reference": "urn:uuid:ead220a4-7248-4822-8dd3-64024730abd3"
                  },
                  {
                    "reference": "urn:uuid:326a07d6-3bfa-46f5-ad0e-3135fd8d4227"
                  },
                  {
                    "reference": "urn:uuid:c5c6cfdc-36dd-4bda-ada8-d34b3a70181b"
                  },
                  {
                    "reference": "urn:uuid:69f889bd-8614-41b0-96a7-9d10ba9e6a7f"
                  },
                  {
                    "reference": "urn:uuid:3731d1a0-4227-4a28-aac9-3d561d7abfb1"
                  },
                  {
                    "reference": "urn:uuid:f5a26902-3f3f-4346-b574-cf8dd17454d0"
                  }
                ],
                "text": {
                  "status": "generated",
                  "div": "<div xmlns=\"http://www.w3.org/1999/xhtml\"><h3>Chemistry</h3><table class=\"hl7__eu__lab__report\"><thead><tr><th>Test</th><th>11-MAR-2018</th><th>Reference&#xA0;Range</th><th>Unit</th></tr></thead><tbody><tr><td>Hemoglobin A1c/Hemoglobin.total in Blood</td><td><strong>3.9 L</strong></td><td>4 - 6</td><td>%</td></tr><tr><td>Glucose [Mass/volume] in Blood</td><td>93.4</td><td>70 - 140</td><td>mg/dL</td></tr><tr><td>Urea nitrogen [Mass/volume] in Blood</td><td>17.0</td><td>7 - 20</td><td>mg/dL</td></tr><tr><td>Creatinine [Mass/volume] in Blood</td><td>0.6</td><td>0.5 - 1.3</td><td>mg/dL</td></tr><tr><td>Calcium [Mass/volume] in Blood</td><td>9.2</td><td>8.5 - 10.5</td><td>mg/dL</td></tr><tr><td>Sodium [Moles/volume] in Blood</td><td>140.6</td><td>135 - 145</td><td>mmol/L</td></tr><tr><td>Potassium [Moles/volume] in Blood</td><td>4.4</td><td>3.5 - 5.1</td><td>mmol/L</td></tr><tr><td>Chloride [Moles/volume] in Blood</td><td>103.0</td><td>98 - 108</td><td>mmol/L</td></tr><tr><td>Carbon dioxide, total [Moles/volume] in Blood</td><td>26.2</td><td>22 - 29</td><td>mmol/L</td></tr><tr><td>Cholesterol [Mass/volume] in Serum or Plasma</td><td>142.2</td><td>0 - 200</td><td>mg/dL</td></tr><tr><td>Triglyceride [Mass/volume] in Serum or Plasma</td><td>119.7</td><td>0 - 199</td><td>mg/dL</td></tr><tr><td>Cholesterol in LDL [Mass/volume] in Serum or Plasma by Direct assay</td><td>62.4</td><td>0 - 130</td><td>mg/dL</td></tr><tr><td>Cholesterol in HDL [Mass/volume] in Serum or Plasma</td><td>55.8</td><td>46 - 77</td><td>mg/dL</td></tr></tbody></table></div>"
                },
                "title": "Chemistry"
              }
            ],
            "title": "Laboratory Report"
          },
          {
            "text": {
              "status": "generated",
              "div": "<div xmlns=\"http://www.w3.org/1999/xhtml\"><h3>Annotation</h3><table class=\"hl7__eu__lab__report\"><tr><th>Conclusion and Recommendations based on this report and previous findings known to us</th></tr><tr><td>All laboratory values are within normal limits except for a mildly decreased HbA1c (3.9%), which may suggest recent hypoglycemia or low average glucose levels. Renal, electrolyte, and lipid profiles are unremarkable. No acute laboratory abnormalities detected; clinical correlation for low HbA1c is recommended.</td></tr></table></div>"
            },
            "code": {
              "coding": [
                {
                  "system": "http://loinc.org",
                  "code": "48767-8",
                  "display": "Annotation comment"
                }
              ]
            },
            "title": "Annotation comment"
          }
        ],
        "status": "final",
        "subject": {
          "reference": "urn:uuid:e0e3d655-b268-4bb3-96c1-2b64110a56e6",
          "display": "Marlene Gerlach"
        },
        "date": "2018-03-11T20:24:33Z",
        "title": "Laboratory Report",
        "confidentiality": "N"
      }
    },
    {
      "fullUrl": "urn:uuid:28140c7c-1297-4075-b9b4-dab3b979a8d4",
      "resource": {
        "resourceType": "DiagnosticReport",
        "id": "28140c7c-1297-4075-b9b4-dab3b979a8d4",
        "meta": {
          "profile": [
            "http://hl7.eu/fhir/laboratory/StructureDefinition/DiagnosticReport-eu-lab"
          ]
        },
        "identifier": [
          {
            "assigner": {
              "display": "HL7 Europe"
            },
            "system": "urn:oid:2.16.840.1.113883.2.51.999",
            "value": "3991a8b2-dba5-4537-83ca-a339596672a1"
          }
        ],
        "extension": [
          {
            "url": "http://hl7.org/fhir/5.0/StructureDefinition/extension-DiagnosticReport.composition",
            "valueReference": {
              "reference": "urn:uuid:53428344-c66a-4177-8c43-902a16ccb6cb"
            }
          }
        ],
        "category": [
          {
            "coding": [
              {
                "code": "26436-6",
                "system": "http://loinc.org",
                "display": "Laboratory studies (set)"
              }
            ]
          }
        ],
        "specimen": [
          {
            "reference": "urn:uuid:87454b02-9a88-42d0-90b1-b25c0a3e2e7a"
          },
          {
            "reference": "urn:uuid:4b2738b1-d788-4175-aacc-2cb4c58a0585"
          }
        ],
        "result": [
          {
            "reference": "urn:uuid:c7ac9264-5d67-49b9-ac0e-0cdf88bc7f3c"
          },
          {
            "reference": "urn:uuid:fa1c8c80-9e4a-4fa1-ba0a-e0bab3ee5c1e"
          },
          {
            "reference": "urn:uuid:ed4e1bd2-7b66-4faa-8f12-446447caaecc"
          },
          {
            "reference": "urn:uuid:e15e90b9-f13a-4f9c-8774-631afd12d860"
          },
          {
            "reference": "urn:uuid:2283677f-c843-469c-9d2c-3683ab2ed0fd"
          },
          {
            "reference": "urn:uuid:65b7d13c-dd4a-4145-834c-ed893c12f962"
          },
          {
            "reference": "urn:uuid:48d8f622-d56f-4ee5-a4ab-5ad242cd8e3a"
          },
          {
            "reference": "urn:uuid:ead220a4-7248-4822-8dd3-64024730abd3"
          },
          {
            "reference": "urn:uuid:326a07d6-3bfa-46f5-ad0e-3135fd8d4227"
          },
          {
            "reference": "urn:uuid:c5c6cfdc-36dd-4bda-ada8-d34b3a70181b"
          },
          {
            "reference": "urn:uuid:69f889bd-8614-41b0-96a7-9d10ba9e6a7f"
          },
          {
            "reference": "urn:uuid:3731d1a0-4227-4a28-aac9-3d561d7abfb1"
          },
          {
            "reference": "urn:uuid:f5a26902-3f3f-4346-b574-cf8dd17454d0"
          }
        ],
        "status": "registered",
        "code": {
          "coding": [
            {
              "code": "11502-2",
              "system": "http://loinc.org",
              "display": "Laboratory report"
            }
          ]
        },
        "subject": {
          "reference": "urn:uuid:e0e3d655-b268-4bb3-96c1-2b64110a56e6",
          "display": "Marlene Gerlach"
        }
      }
    },
    {
      "fullUrl": "urn:uuid:e0e3d655-b268-4bb3-96c1-2b64110a56e6",
      "resource": {
        "resourceType": "Patient",
        "id": "e0e3d655-b268-4bb3-96c1-2b64110a56e6",
        "meta": {
          "security": [
            {
              "system": "http://terminology.hl7.org/CodeSystem/v3-ActReason",
              "code": "HTEST"
            },
            {
              "system": "http://terminology.hl7.org/CodeSystem/v3-ActReason",
              "code": "TRAIN"
            }
          ],
          "tag": [
            {
              "system": "https://synderai.net/fhir/CodeSystem/tags",
              "code": "synthetic",
              "display": "SYNDERAI Synthetic data"
            }
          ],
          "profile": [
            "http://hl7.eu/fhir/base/StructureDefinition/patient-eu-core"
          ]
        },
        "identifier": [
          {
            "type": {
              "coding": [
                {
                  "code": "PT",
                  "system": "http://terminology.hl7.org/CodeSystem/v2-0203"
                }
              ]
            },
            "system": "http://ec.europa.eu/identifier/eci",
            "value": "4536-398571-9"
          },
          {
            "type": {
              "coding": [
                {
                  "code": "MR",
                  "system": "http://terminology.hl7.org/CodeSystem/v2-0203"
                }
              ]
            },
            "system": "http://local.setting.eu/identifier",
            "value": "ff7a4ff6-4bac-f07f-03c9-b91b1e1cfb23"
          }
        ],
        "name": [
          {
            "family": "Gerlach"
          },
          {
            "given": [
              "Marlene"
            ]
          },
          {
            "text": "Marlene Gerlach"
          }
        ],
        "address": [
          {
            "line": [
              "Etzlerplatz 57-53"
            ],
            "use": "home",
            "type": "physical",
            "postalCode": "71522",
            "city": "Backnang",
            "country": "Germany"
          }
        ],
        "telecom": [
          {
            "system": "phone",
            "value": "+49(0)2700 61724"
          }
        ],
        "extension": [
          {
            "url": "http://hl7.org/fhir/StructureDefinition/patient-nationality",
            "valueCodeableConcept": {
              "coding": [
                {
                  "code": "DE",
                  "system": "http://hl7.org/fhir/ValueSet/country"
                }
              ]
            }
          }
        ],
        "text": {
          "status": "generated",
          "div": "<div xmlns=\"http://www.w3.org/1999/xhtml\"><table class=\"hl7__ips\"><tr><td>Marlene Gerlach</td><td>female</td><td>28-Aug-1939</td></tr></table></div>"
        },
        "gender": "female",
        "birthDate": "1939-08-28"
      }
    },
    {
      "fullUrl": "urn:uuid:5c69b64d-79fa-4ad2-bd2d-85a43e437b6e",
      "resource": {
        "resourceType": "ServiceRequest",
        "id": "5c69b64d-79fa-4ad2-bd2d-85a43e437b6e",
        "meta": {
          "profile": [
            "http://hl7.eu/fhir/laboratory/StructureDefinition/ServiceRequest-eu-lab"
          ]
        },
        "identifier": [
          {
            "system": "http://example.org",
            "value": "953d5e3e-79e4-478b-9ec9-5a09a9f63de2"
          }
        ],
        "specimen": [
          {
            "reference": "urn:uuid:87454b02-9a88-42d0-90b1-b25c0a3e2e7a"
          },
          {
            "reference": "urn:uuid:4b2738b1-d788-4175-aacc-2cb4c58a0585"
          }
        ],
        "reasonCode": [
          {
            "coding": [
              {
                "code": "55822004",
                "system": "http://snomed.info/sct",
                "display": "Hyperlipidemia"
              }
            ]
          },
          {
            "coding": [
              {
                "code": "414545008",
                "system": "http://snomed.info/sct",
                "display": "Ischemic heart disease"
              }
            ]
          },
          {
            "coding": [
              {
                "code": "157141000119108",
                "system": "http://snomed.info/sct",
                "display": "Proteinuria due to type 2 diabetes mellitus"
              }
            ]
          },
          {
            "coding": [
              {
                "code": "90781000119102",
                "system": "http://snomed.info/sct",
                "display": "Microalbuminuria due to type 2 diabetes mellitus"
              }
            ]
          },
          {
            "coding": [
              {
                "code": "127013003",
                "system": "http://snomed.info/sct",
                "display": "Disorder of kidney due to diabetes mellitus"
              }
            ]
          },
          {
            "coding": [
              {
                "code": "271737000",
                "system": "http://snomed.info/sct",
                "display": "Anemia"
              }
            ]
          },
          {
            "coding": [
              {
                "code": "15777000",
                "system": "http://snomed.info/sct",
                "display": "Prediabetes"
              }
            ]
          },
          {
            "coding": [
              {
                "code": "59621000",
                "system": "http://snomed.info/sct",
                "display": "Essential hypertension"
              }
            ]
          }
        ],
        "status": "active",
        "intent": "order",
        "code": {
          "coding": [
            {
              "code": "108252007",
              "system": "http://snomed.info/sct",
              "display": "Laboratory procedure"
            }
          ]
        },
        "subject": {
          "reference": "urn:uuid:e0e3d655-b268-4bb3-96c1-2b64110a56e6",
          "display": "Marlene Gerlach"
        },
        "requester": {
          "reference": "urn:uuid:a9b7fcd3-d0dd-4cea-af9a-db39980d43a3"
        }
      }
    },
    {
      "fullUrl": "urn:uuid:a9b7fcd3-d0dd-4cea-af9a-db39980d43a3",
      "resource": {
        "resourceType": "PractitionerRole",
        "id": "a9b7fcd3-d0dd-4cea-af9a-db39980d43a3",
        "meta": {
          "profile": [
            "http://hl7.eu/fhir/base/StructureDefinition/practitionerRole-eu"
          ]
        },
        "text": {
          "status": "generated",
          "div": "<div xmlns=\"http://www.w3.org/1999/xhtml\">Provider Role Id: a9b7fcd3-d0dd-4cea-af9a-db39980d43a3</div>"
        },
        "organization": {
          "reference": "urn:uuid:f1db10d0-2a5c-46b9-9b60-0502f09dc2a7"
        }
      }
    },
    {
      "fullUrl": "urn:uuid:f1db10d0-2a5c-46b9-9b60-0502f09dc2a7",
      "resource": {
        "resourceType": "Organization",
        "id": "f1db10d0-2a5c-46b9-9b60-0502f09dc2a7",
        "meta": {
          "profile": [
            "http://hl7.eu/fhir/base/StructureDefinition/organization-eu"
          ]
        },
        "identifier": [
          {
            "assigner": {
              "display": "HL7 Europe"
            },
            "system": "urn:oid:2.16.840.1.113883.2.51.999",
            "value": "5ad6ee97-91ce-4695-ad5f-543b04b211c0"
          }
        ],
        "address": [
          {
            "line": [
              "Karl-Krische-Straße 4"
            ],
            "city": "Backnang",
            "postalCode": "71522",
            "country": "Germany"
          }
        ],
        "text": {
          "status": "generated",
          "div": "<div xmlns=\"http://www.w3.org/1999/xhtml\">Provider Organization: Gesundheitszentrum</div>"
        },
        "name": "Gesundheitszentrum"
      }
    },
    {
      "fullUrl": "urn:uuid:87454b02-9a88-42d0-90b1-b25c0a3e2e7a",
      "resource": {
        "resourceType": "Specimen",
        "id": "87454b02-9a88-42d0-90b1-b25c0a3e2e7a",
        "meta": {
          "profile": [
            "http://hl7.eu/fhir/laboratory/StructureDefinition/Specimen-eu-lab"
          ]
        },
        "collection": {
          "collectedDateTime": "2018-03-11"
        },
        "text": {
          "status": "generated",
          "div": "<div xmlns=\"http://www.w3.org/1999/xhtml\"><table class=\"hl7__eu__lab__report\"><tr><th>Specimen</th><th>Collection Date</th></tr><tr><td>Whole blood specimen (specimen)</td><td><span class=\"nb\">11-Mar-2018</span></td></tr></table></div>"
        },
        "type": {
          "coding": [
            {
              "code": "258580003",
              "system": "http://snomed.info/sct",
              "display": "Whole blood specimen (specimen)"
            }
          ]
        }
      }
    },
    {
      "fullUrl": "urn:uuid:4b2738b1-d788-4175-aacc-2cb4c58a0585",
      "resource": {
        "resourceType": "Specimen",
        "id": "4b2738b1-d788-4175-aacc-2cb4c58a0585",
        "meta": {
          "profile": [
            "http://hl7.eu/fhir/laboratory/StructureDefinition/Specimen-eu-lab"
          ]
        },
        "collection": {
          "collectedDateTime": "2018-03-11"
        },
        "text": {
          "status": "generated",
          "div": "<div xmlns=\"http://www.w3.org/1999/xhtml\"><table class=\"hl7__eu__lab__report\"><tr><th>Specimen</th><th>Collection Date</th></tr><tr><td>Acellular blood (serum or plasma) specimen</td><td><span class=\"nb\">11-Mar-2018</span></td></tr></table></div>"
        },
        "type": {
          "coding": [
            {
              "code": "122592007",
              "system": "http://snomed.info/sct",
              "display": "Acellular blood (serum or plasma) specimen"
            }
          ]
        }
      }
    },
    {
      "fullUrl": "urn:uuid:c7ac9264-5d67-49b9-ac0e-0cdf88bc7f3c",
      "resource": {
        "resourceType": "Observation",
        "id": "c7ac9264-5d67-49b9-ac0e-0cdf88bc7f3c",
        "meta": {
          "profile": [
            "http://hl7.eu/fhir/laboratory/StructureDefinition/Observation-resultslab-eu-lab"
          ]
        },
        "performer": [
          {
            "display": "The Central European Lab"
          }
        ],
        "category": [
          {
            "coding": [
              {
                "system": "http://terminology.hl7.org/CodeSystem/observation-category",
                "code": "laboratory"
              }
            ]
          }
        ],
        "code": {
          "coding": [
            {
              "code": "4548-4",
              "system": "http://loinc.org",
              "display": "Hemoglobin A1c/Hemoglobin.total in Blood"
            }
          ],
          "text": "Hemoglobin A1c/Hemoglobin.total in Blood"
        },
        "valueQuantity": {
          "system": "http://unitsofmeasure.org",
          "value": 3.9,
          "unit": "%",
          "code": "%"
        },
        "referenceRange": [
          {
            "low": {
              "value": 4,
              "code": "%",
              "system": "http://unitsofmeasure.org"
            }
          },
          {
            "high": {
              "value": 6,
              "code": "%",
              "system": "http://unitsofmeasure.org"
            }
          }
        ],
        "interpretation": [
          {
            "coding": [
              {
                "code": "L",
                "system": "http://terminology.hl7.org/CodeSystem/v3-ObservationInterpretation",
                "display": "Low"
              }
            ]
          }
        ],
        "text": {
          "status": "generated",
          "div": "<div xmlns=\"http://www.w3.org/1999/xhtml\"><table class=\"hl7__eu__lab__report\"><tr><th>Test</th><th>11-Mar-2018</th><th>Reference&#xA0;Range</th><th>Unit</th></tr><tr><td>Hemoglobin A1c/Hemoglobin.total in Blood</td><td>3.9</td><td>4 - 6</td><td>L</td><td>%</td></tr></table></div>"
        },
        "status": "final",
        "subject": {
          "reference": "urn:uuid:e0e3d655-b268-4bb3-96c1-2b64110a56e6",
          "display": "Marlene Gerlach"
        },
        "effectiveDateTime": "2018-03-11T19:24:33Z",
        "specimen": {
          "reference": "urn:uuid:87454b02-9a88-42d0-90b1-b25c0a3e2e7a"
        }
      }
    },
    {
      "fullUrl": "urn:uuid:fa1c8c80-9e4a-4fa1-ba0a-e0bab3ee5c1e",
      "resource": {
        "resourceType": "Observation",
        "id": "fa1c8c80-9e4a-4fa1-ba0a-e0bab3ee5c1e",
        "meta": {
          "profile": [
            "http://hl7.eu/fhir/laboratory/StructureDefinition/Observation-resultslab-eu-lab"
          ]
        },
        "performer": [
          {
            "display": "The Central European Lab"
          }
        ],
        "category": [
          {
            "coding": [
              {
                "system": "http://terminology.hl7.org/CodeSystem/observation-category",
                "code": "laboratory"
              }
            ]
          }
        ],
        "code": {
          "coding": [
            {
              "code": "2339-0",
              "system": "http://loinc.org",
              "display": "Glucose [Mass/volume] in Blood"
            }
          ],
          "text": "Glucose [Mass/volume] in Blood"
        },
        "valueQuantity": {
          "system": "http://unitsofmeasure.org",
          "value": 93.4,
          "unit": "mg/dL",
          "code": "mg/dL"
        },
        "referenceRange": [
          {
            "low": {
              "value": 70,
              "code": "mg/dL",
              "system": "http://unitsofmeasure.org"
            }
          },
          {
            "high": {
              "value": 140,
              "code": "mg/dL",
              "system": "http://unitsofmeasure.org"
            }
          }
        ],
        "text": {
          "status": "generated",
          "div": "<div xmlns=\"http://www.w3.org/1999/xhtml\"><table class=\"hl7__eu__lab__report\"><tr><th>Test</th><th>11-Mar-2018</th><th>Reference&#xA0;Range</th><th>Unit</th></tr><tr><td>Glucose [Mass/volume] in Blood</td><td>93.4</td><td>70 - 140</td><td></td><td>mg/dL</td></tr></table></div>"
        },
        "status": "final",
        "subject": {
          "reference": "urn:uuid:e0e3d655-b268-4bb3-96c1-2b64110a56e6",
          "display": "Marlene Gerlach"
        },
        "effectiveDateTime": "2018-03-11T19:24:33Z",
        "specimen": {
          "reference": "urn:uuid:87454b02-9a88-42d0-90b1-b25c0a3e2e7a"
        }
      }
    },
    {
      "fullUrl": "urn:uuid:ed4e1bd2-7b66-4faa-8f12-446447caaecc",
      "resource": {
        "resourceType": "Observation",
        "id": "ed4e1bd2-7b66-4faa-8f12-446447caaecc",
        "meta": {
          "profile": [
            "http://hl7.eu/fhir/laboratory/StructureDefinition/Observation-resultslab-eu-lab"
          ]
        },
        "performer": [
          {
            "display": "The Central European Lab"
          }
        ],
        "category": [
          {
            "coding": [
              {
                "system": "http://terminology.hl7.org/CodeSystem/observation-category",
                "code": "laboratory"
              }
            ]
          }
        ],
        "code": {
          "coding": [
            {
              "code": "6299-2",
              "system": "http://loinc.org",
              "display": "Urea nitrogen [Mass/volume] in Blood"
            }
          ],
          "text": "Urea nitrogen [Mass/volume] in Blood"
        },
        "valueQuantity": {
          "system": "http://unitsofmeasure.org",
          "value": 17,
          "unit": "mg/dL",
          "code": "mg/dL"
        },
        "referenceRange": [
          {
            "low": {
              "value": 7,
              "code": "mg/dL",
              "system": "http://unitsofmeasure.org"
            }
          },
          {
            "high": {
              "value": 20,
              "code": "mg/dL",
              "system": "http://unitsofmeasure.org"
            }
          }
        ],
        "text": {
          "status": "generated",
          "div": "<div xmlns=\"http://www.w3.org/1999/xhtml\"><table class=\"hl7__eu__lab__report\"><tr><th>Test</th><th>11-Mar-2018</th><th>Reference&#xA0;Range</th><th>Unit</th></tr><tr><td>Urea nitrogen [Mass/volume] in Blood</td><td>17.0</td><td>7 - 20</td><td></td><td>mg/dL</td></tr></table></div>"
        },
        "status": "final",
        "subject": {
          "reference": "urn:uuid:e0e3d655-b268-4bb3-96c1-2b64110a56e6",
          "display": "Marlene Gerlach"
        },
        "effectiveDateTime": "2018-03-11T19:24:33Z",
        "specimen": {
          "reference": "urn:uuid:87454b02-9a88-42d0-90b1-b25c0a3e2e7a"
        }
      }
    },
    {
      "fullUrl": "urn:uuid:e15e90b9-f13a-4f9c-8774-631afd12d860",
      "resource": {
        "resourceType": "Observation",
        "id": "e15e90b9-f13a-4f9c-8774-631afd12d860",
        "meta": {
          "profile": [
            "http://hl7.eu/fhir/laboratory/StructureDefinition/Observation-resultslab-eu-lab"
          ]
        },
        "performer": [
          {
            "display": "The Central European Lab"
          }
        ],
        "category": [
          {
            "coding": [
              {
                "system": "http://terminology.hl7.org/CodeSystem/observation-category",
                "code": "laboratory"
              }
            ]
          }
        ],
        "code": {
          "coding": [
            {
              "code": "38483-4",
              "system": "http://loinc.org",
              "display": "Creatinine [Mass/volume] in Blood"
            }
          ],
          "text": "Creatinine [Mass/volume] in Blood"
        },
        "valueQuantity": {
          "system": "http://unitsofmeasure.org",
          "value": 0.6,
          "unit": "mg/dL",
          "code": "mg/dL"
        },
        "referenceRange": [
          {
            "low": {
              "value": 0.5,
              "code": "mg/dL",
              "system": "http://unitsofmeasure.org"
            }
          },
          {
            "high": {
              "value": 1.3,
              "code": "mg/dL",
              "system": "http://unitsofmeasure.org"
            }
          }
        ],
        "text": {
          "status": "generated",
          "div": "<div xmlns=\"http://www.w3.org/1999/xhtml\"><table class=\"hl7__eu__lab__report\"><tr><th>Test</th><th>11-Mar-2018</th><th>Reference&#xA0;Range</th><th>Unit</th></tr><tr><td>Creatinine [Mass/volume] in Blood</td><td>0.6</td><td>0.5 - 1.3</td><td></td><td>mg/dL</td></tr></table></div>"
        },
        "status": "final",
        "subject": {
          "reference": "urn:uuid:e0e3d655-b268-4bb3-96c1-2b64110a56e6",
          "display": "Marlene Gerlach"
        },
        "effectiveDateTime": "2018-03-11T19:24:33Z",
        "specimen": {
          "reference": "urn:uuid:87454b02-9a88-42d0-90b1-b25c0a3e2e7a"
        }
      }
    },
    {
      "fullUrl": "urn:uuid:2283677f-c843-469c-9d2c-3683ab2ed0fd",
      "resource": {
        "resourceType": "Observation",
        "id": "2283677f-c843-469c-9d2c-3683ab2ed0fd",
        "meta": {
          "profile": [
            "http://hl7.eu/fhir/laboratory/StructureDefinition/Observation-resultslab-eu-lab"
          ]
        },
        "performer": [
          {
            "display": "The Central European Lab"
          }
        ],
        "category": [
          {
            "coding": [
              {
                "system": "http://terminology.hl7.org/CodeSystem/observation-category",
                "code": "laboratory"
              }
            ]
          }
        ],
        "code": {
          "coding": [
            {
              "code": "49765-1",
              "system": "http://loinc.org",
              "display": "Calcium [Mass/volume] in Blood"
            }
          ],
          "text": "Calcium [Mass/volume] in Blood"
        },
        "valueQuantity": {
          "system": "http://unitsofmeasure.org",
          "value": 9.2,
          "unit": "mg/dL",
          "code": "mg/dL"
        },
        "referenceRange": [
          {
            "low": {
              "value": 8.5,
              "code": "mg/dL",
              "system": "http://unitsofmeasure.org"
            }
          },
          {
            "high": {
              "value": 10.5,
              "code": "mg/dL",
              "system": "http://unitsofmeasure.org"
            }
          }
        ],
        "text": {
          "status": "generated",
          "div": "<div xmlns=\"http://www.w3.org/1999/xhtml\"><table class=\"hl7__eu__lab__report\"><tr><th>Test</th><th>11-Mar-2018</th><th>Reference&#xA0;Range</th><th>Unit</th></tr><tr><td>Calcium [Mass/volume] in Blood</td><td>9.2</td><td>8.5 - 10.5</td><td></td><td>mg/dL</td></tr></table></div>"
        },
        "status": "final",
        "subject": {
          "reference": "urn:uuid:e0e3d655-b268-4bb3-96c1-2b64110a56e6",
          "display": "Marlene Gerlach"
        },
        "effectiveDateTime": "2018-03-11T19:24:33Z",
        "specimen": {
          "reference": "urn:uuid:87454b02-9a88-42d0-90b1-b25c0a3e2e7a"
        }
      }
    },
    {
      "fullUrl": "urn:uuid:65b7d13c-dd4a-4145-834c-ed893c12f962",
      "resource": {
        "resourceType": "Observation",
        "id": "65b7d13c-dd4a-4145-834c-ed893c12f962",
        "meta": {
          "profile": [
            "http://hl7.eu/fhir/laboratory/StructureDefinition/Observation-resultslab-eu-lab"
          ]
        },
        "performer": [
          {
            "display": "The Central European Lab"
          }
        ],
        "category": [
          {
            "coding": [
              {
                "system": "http://terminology.hl7.org/CodeSystem/observation-category",
                "code": "laboratory"
              }
            ]
          }
        ],
        "code": {
          "coding": [
            {
              "code": "2947-0",
              "system": "http://loinc.org",
              "display": "Sodium [Moles/volume] in Blood"
            }
          ],
          "text": "Sodium [Moles/volume] in Blood"
        },
        "valueQuantity": {
          "system": "http://unitsofmeasure.org",
          "value": 140.6,
          "unit": "mmol/L",
          "code": "mmol/L"
        },
        "referenceRange": [
          {
            "low": {
              "value": 135,
              "code": "mmol/L",
              "system": "http://unitsofmeasure.org"
            }
          },
          {
            "high": {
              "value": 145,
              "code": "mmol/L",
              "system": "http://unitsofmeasure.org"
            }
          }
        ],
        "text": {
          "status": "generated",
          "div": "<div xmlns=\"http://www.w3.org/1999/xhtml\"><table class=\"hl7__eu__lab__report\"><tr><th>Test</th><th>11-Mar-2018</th><th>Reference&#xA0;Range</th><th>Unit</th></tr><tr><td>Sodium [Moles/volume] in Blood</td><td>140.6</td><td>135 - 145</td><td></td><td>mmol/L</td></tr></table></div>"
        },
        "status": "final",
        "subject": {
          "reference": "urn:uuid:e0e3d655-b268-4bb3-96c1-2b64110a56e6",
          "display": "Marlene Gerlach"
        },
        "effectiveDateTime": "2018-03-11T19:24:33Z",
        "specimen": {
          "reference": "urn:uuid:87454b02-9a88-42d0-90b1-b25c0a3e2e7a"
        }
      }
    },
    {
      "fullUrl": "urn:uuid:48d8f622-d56f-4ee5-a4ab-5ad242cd8e3a",
      "resource": {
        "resourceType": "Observation",
        "id": "48d8f622-d56f-4ee5-a4ab-5ad242cd8e3a",
        "meta": {
          "profile": [
            "http://hl7.eu/fhir/laboratory/StructureDefinition/Observation-resultslab-eu-lab"
          ]
        },
        "performer": [
          {
            "display": "The Central European Lab"
          }
        ],
        "category": [
          {
            "coding": [
              {
                "system": "http://terminology.hl7.org/CodeSystem/observation-category",
                "code": "laboratory"
              }
            ]
          }
        ],
        "code": {
          "coding": [
            {
              "code": "6298-4",
              "system": "http://loinc.org",
              "display": "Potassium [Moles/volume] in Blood"
            }
          ],
          "text": "Potassium [Moles/volume] in Blood"
        },
        "valueQuantity": {
          "system": "http://unitsofmeasure.org",
          "value": 4.4,
          "unit": "mmol/L",
          "code": "mmol/L"
        },
        "referenceRange": [
          {
            "low": {
              "value": 3.5,
              "code": "mmol/L",
              "system": "http://unitsofmeasure.org"
            }
          },
          {
            "high": {
              "value": 5.1,
              "code": "mmol/L",
              "system": "http://unitsofmeasure.org"
            }
          }
        ],
        "text": {
          "status": "generated",
          "div": "<div xmlns=\"http://www.w3.org/1999/xhtml\"><table class=\"hl7__eu__lab__report\"><tr><th>Test</th><th>11-Mar-2018</th><th>Reference&#xA0;Range</th><th>Unit</th></tr><tr><td>Potassium [Moles/volume] in Blood</td><td>4.4</td><td>3.5 - 5.1</td><td></td><td>mmol/L</td></tr></table></div>"
        },
        "status": "final",
        "subject": {
          "reference": "urn:uuid:e0e3d655-b268-4bb3-96c1-2b64110a56e6",
          "display": "Marlene Gerlach"
        },
        "effectiveDateTime": "2018-03-11T19:24:33Z",
        "specimen": {
          "reference": "urn:uuid:87454b02-9a88-42d0-90b1-b25c0a3e2e7a"
        }
      }
    },
    {
      "fullUrl": "urn:uuid:ead220a4-7248-4822-8dd3-64024730abd3",
      "resource": {
        "resourceType": "Observation",
        "id": "ead220a4-7248-4822-8dd3-64024730abd3",
        "meta": {
          "profile": [
            "http://hl7.eu/fhir/laboratory/StructureDefinition/Observation-resultslab-eu-lab"
          ]
        },
        "performer": [
          {
            "display": "The Central European Lab"
          }
        ],
        "category": [
          {
            "coding": [
              {
                "system": "http://terminology.hl7.org/CodeSystem/observation-category",
                "code": "laboratory"
              }
            ]
          }
        ],
        "code": {
          "coding": [
            {
              "code": "2069-3",
              "system": "http://loinc.org",
              "display": "Chloride [Moles/volume] in Blood"
            }
          ],
          "text": "Chloride [Moles/volume] in Blood"
        },
        "valueQuantity": {
          "system": "http://unitsofmeasure.org",
          "value": 103,
          "unit": "mmol/L",
          "code": "mmol/L"
        },
        "referenceRange": [
          {
            "low": {
              "value": 98,
              "code": "mmol/L",
              "system": "http://unitsofmeasure.org"
            }
          },
          {
            "high": {
              "value": 108,
              "code": "mmol/L",
              "system": "http://unitsofmeasure.org"
            }
          }
        ],
        "text": {
          "status": "generated",
          "div": "<div xmlns=\"http://www.w3.org/1999/xhtml\"><table class=\"hl7__eu__lab__report\"><tr><th>Test</th><th>11-Mar-2018</th><th>Reference&#xA0;Range</th><th>Unit</th></tr><tr><td>Chloride [Moles/volume] in Blood</td><td>103.0</td><td>98 - 108</td><td></td><td>mmol/L</td></tr></table></div>"
        },
        "status": "final",
        "subject": {
          "reference": "urn:uuid:e0e3d655-b268-4bb3-96c1-2b64110a56e6",
          "display": "Marlene Gerlach"
        },
        "effectiveDateTime": "2018-03-11T19:24:33Z",
        "specimen": {
          "reference": "urn:uuid:87454b02-9a88-42d0-90b1-b25c0a3e2e7a"
        }
      }
    },
    {
      "fullUrl": "urn:uuid:326a07d6-3bfa-46f5-ad0e-3135fd8d4227",
      "resource": {
        "resourceType": "Observation",
        "id": "326a07d6-3bfa-46f5-ad0e-3135fd8d4227",
        "meta": {
          "profile": [
            "http://hl7.eu/fhir/laboratory/StructureDefinition/Observation-resultslab-eu-lab"
          ]
        },
        "performer": [
          {
            "display": "The Central European Lab"
          }
        ],
        "category": [
          {
            "coding": [
              {
                "system": "http://terminology.hl7.org/CodeSystem/observation-category",
                "code": "laboratory"
              }
            ]
          }
        ],
        "code": {
          "coding": [
            {
              "code": "20565-8",
              "system": "http://loinc.org",
              "display": "Carbon dioxide, total [Moles/volume] in Blood"
            }
          ],
          "text": "Carbon dioxide, total [Moles/volume] in Blood"
        },
        "valueQuantity": {
          "system": "http://unitsofmeasure.org",
          "value": 26.2,
          "unit": "mmol/L",
          "code": "mmol/L"
        },
        "referenceRange": [
          {
            "low": {
              "value": 22,
              "code": "mmol/L",
              "system": "http://unitsofmeasure.org"
            }
          },
          {
            "high": {
              "value": 29,
              "code": "mmol/L",
              "system": "http://unitsofmeasure.org"
            }
          }
        ],
        "text": {
          "status": "generated",
          "div": "<div xmlns=\"http://www.w3.org/1999/xhtml\"><table class=\"hl7__eu__lab__report\"><tr><th>Test</th><th>11-Mar-2018</th><th>Reference&#xA0;Range</th><th>Unit</th></tr><tr><td>Carbon dioxide, total [Moles/volume] in Blood</td><td>26.2</td><td>22 - 29</td><td></td><td>mmol/L</td></tr></table></div>"
        },
        "status": "final",
        "subject": {
          "reference": "urn:uuid:e0e3d655-b268-4bb3-96c1-2b64110a56e6",
          "display": "Marlene Gerlach"
        },
        "effectiveDateTime": "2018-03-11T19:24:33Z",
        "specimen": {
          "reference": "urn:uuid:87454b02-9a88-42d0-90b1-b25c0a3e2e7a"
        }
      }
    },
    {
      "fullUrl": "urn:uuid:c5c6cfdc-36dd-4bda-ada8-d34b3a70181b",
      "resource": {
        "resourceType": "Observation",
        "id": "c5c6cfdc-36dd-4bda-ada8-d34b3a70181b",
        "meta": {
          "profile": [
            "http://hl7.eu/fhir/laboratory/StructureDefinition/Observation-resultslab-eu-lab"
          ]
        },
        "performer": [
          {
            "display": "The Central European Lab"
          }
        ],
        "category": [
          {
            "coding": [
              {
                "system": "http://terminology.hl7.org/CodeSystem/observation-category",
                "code": "laboratory"
              }
            ]
          }
        ],
        "code": {
          "coding": [
            {
              "code": "2093-3",
              "system": "http://loinc.org",
              "display": "Cholesterol [Mass/volume] in Serum or Plasma"
            }
          ],
          "text": "Cholesterol [Mass/volume] in Serum or Plasma"
        },
        "valueQuantity": {
          "system": "http://unitsofmeasure.org",
          "value": 142.2,
          "unit": "mg/dL",
          "code": "mg/dL"
        },
        "referenceRange": [
          {
            "low": {
              "value": 0,
              "code": "mg/dL",
              "system": "http://unitsofmeasure.org"
            }
          },
          {
            "high": {
              "value": 200,
              "code": "mg/dL",
              "system": "http://unitsofmeasure.org"
            }
          }
        ],
        "text": {
          "status": "generated",
          "div": "<div xmlns=\"http://www.w3.org/1999/xhtml\"><table class=\"hl7__eu__lab__report\"><tr><th>Test</th><th>11-Mar-2018</th><th>Reference&#xA0;Range</th><th>Unit</th></tr><tr><td>Cholesterol [Mass/volume] in Serum or Plasma</td><td>142.2</td><td>0 - 200</td><td></td><td>mg/dL</td></tr></table></div>"
        },
        "status": "final",
        "subject": {
          "reference": "urn:uuid:e0e3d655-b268-4bb3-96c1-2b64110a56e6",
          "display": "Marlene Gerlach"
        },
        "effectiveDateTime": "2018-03-11T19:24:33Z",
        "specimen": {
          "reference": "urn:uuid:4b2738b1-d788-4175-aacc-2cb4c58a0585"
        }
      }
    },
    {
      "fullUrl": "urn:uuid:69f889bd-8614-41b0-96a7-9d10ba9e6a7f",
      "resource": {
        "resourceType": "Observation",
        "id": "69f889bd-8614-41b0-96a7-9d10ba9e6a7f",
        "meta": {
          "profile": [
            "http://hl7.eu/fhir/laboratory/StructureDefinition/Observation-resultslab-eu-lab"
          ]
        },
        "performer": [
          {
            "display": "The Central European Lab"
          }
        ],
        "category": [
          {
            "coding": [
              {
                "system": "http://terminology.hl7.org/CodeSystem/observation-category",
                "code": "laboratory"
              }
            ]
          }
        ],
        "code": {
          "coding": [
            {
              "code": "2571-8",
              "system": "http://loinc.org",
              "display": "Triglyceride [Mass/volume] in Serum or Plasma"
            }
          ],
          "text": "Triglyceride [Mass/volume] in Serum or Plasma"
        },
        "valueQuantity": {
          "system": "http://unitsofmeasure.org",
          "value": 119.7,
          "unit": "mg/dL",
          "code": "mg/dL"
        },
        "referenceRange": [
          {
            "low": {
              "value": 0,
              "code": "mg/dL",
              "system": "http://unitsofmeasure.org"
            }
          },
          {
            "high": {
              "value": 199,
              "code": "mg/dL",
              "system": "http://unitsofmeasure.org"
            }
          }
        ],
        "text": {
          "status": "generated",
          "div": "<div xmlns=\"http://www.w3.org/1999/xhtml\"><table class=\"hl7__eu__lab__report\"><tr><th>Test</th><th>11-Mar-2018</th><th>Reference&#xA0;Range</th><th>Unit</th></tr><tr><td>Triglyceride [Mass/volume] in Serum or Plasma</td><td>119.7</td><td>0 - 199</td><td></td><td>mg/dL</td></tr></table></div>"
        },
        "status": "final",
        "subject": {
          "reference": "urn:uuid:e0e3d655-b268-4bb3-96c1-2b64110a56e6",
          "display": "Marlene Gerlach"
        },
        "effectiveDateTime": "2018-03-11T19:24:33Z",
        "specimen": {
          "reference": "urn:uuid:4b2738b1-d788-4175-aacc-2cb4c58a0585"
        }
      }
    },
    {
      "fullUrl": "urn:uuid:3731d1a0-4227-4a28-aac9-3d561d7abfb1",
      "resource": {
        "resourceType": "Observation",
        "id": "3731d1a0-4227-4a28-aac9-3d561d7abfb1",
        "meta": {
          "profile": [
            "http://hl7.eu/fhir/laboratory/StructureDefinition/Observation-resultslab-eu-lab"
          ]
        },
        "performer": [
          {
            "display": "The Central European Lab"
          }
        ],
        "category": [
          {
            "coding": [
              {
                "system": "http://terminology.hl7.org/CodeSystem/observation-category",
                "code": "laboratory"
              }
            ]
          }
        ],
        "code": {
          "coding": [
            {
              "code": "18262-6",
              "system": "http://loinc.org",
              "display": "Cholesterol in LDL [Mass/volume] in Serum or Plasma by Direct assay"
            }
          ],
          "text": "Cholesterol in LDL [Mass/volume] in Serum or Plasma by Direct assay"
        },
        "valueQuantity": {
          "system": "http://unitsofmeasure.org",
          "value": 62.4,
          "unit": "mg/dL",
          "code": "mg/dL"
        },
        "referenceRange": [
          {
            "low": {
              "value": 0,
              "code": "mg/dL",
              "system": "http://unitsofmeasure.org"
            }
          },
          {
            "high": {
              "value": 130,
              "code": "mg/dL",
              "system": "http://unitsofmeasure.org"
            }
          }
        ],
        "text": {
          "status": "generated",
          "div": "<div xmlns=\"http://www.w3.org/1999/xhtml\"><table class=\"hl7__eu__lab__report\"><tr><th>Test</th><th>11-Mar-2018</th><th>Reference&#xA0;Range</th><th>Unit</th></tr><tr><td>Cholesterol in LDL [Mass/volume] in Serum or Plasma by Direct assay</td><td>62.4</td><td>0 - 130</td><td></td><td>mg/dL</td></tr></table></div>"
        },
        "status": "final",
        "subject": {
          "reference": "urn:uuid:e0e3d655-b268-4bb3-96c1-2b64110a56e6",
          "display": "Marlene Gerlach"
        },
        "effectiveDateTime": "2018-03-11T19:24:33Z",
        "specimen": {
          "reference": "urn:uuid:4b2738b1-d788-4175-aacc-2cb4c58a0585"
        }
      }
    },
    {
      "fullUrl": "urn:uuid:f5a26902-3f3f-4346-b574-cf8dd17454d0",
      "resource": {
        "resourceType": "Observation",
        "id": "f5a26902-3f3f-4346-b574-cf8dd17454d0",
        "meta": {
          "profile": [
            "http://hl7.eu/fhir/laboratory/StructureDefinition/Observation-resultslab-eu-lab"
          ]
        },
        "performer": [
          {
            "display": "The Central European Lab"
          }
        ],
        "category": [
          {
            "coding": [
              {
                "system": "http://terminology.hl7.org/CodeSystem/observation-category",
                "code": "laboratory"
              }
            ]
          }
        ],
        "code": {
          "coding": [
            {
              "code": "2085-9",
              "system": "http://loinc.org",
              "display": "Cholesterol in HDL [Mass/volume] in Serum or Plasma"
            }
          ],
          "text": "Cholesterol in HDL [Mass/volume] in Serum or Plasma"
        },
        "valueQuantity": {
          "system": "http://unitsofmeasure.org",
          "value": 55.8,
          "unit": "mg/dL",
          "code": "mg/dL"
        },
        "referenceRange": [
          {
            "low": {
              "value": 46,
              "code": "mg/dL",
              "system": "http://unitsofmeasure.org"
            }
          },
          {
            "high": {
              "value": 77,
              "code": "mg/dL",
              "system": "http://unitsofmeasure.org"
            }
          }
        ],
        "text": {
          "status": "generated",
          "div": "<div xmlns=\"http://www.w3.org/1999/xhtml\"><table class=\"hl7__eu__lab__report\"><tr><th>Test</th><th>11-Mar-2018</th><th>Reference&#xA0;Range</th><th>Unit</th></tr><tr><td>Cholesterol in HDL [Mass/volume] in Serum or Plasma</td><td>55.8</td><td>46 - 77</td><td></td><td>mg/dL</td></tr></table></div>"
        },
        "status": "final",
        "subject": {
          "reference": "urn:uuid:e0e3d655-b268-4bb3-96c1-2b64110a56e6",
          "display": "Marlene Gerlach"
        },
        "effectiveDateTime": "2018-03-11T19:24:33Z",
        "specimen": {
          "reference": "urn:uuid:4b2738b1-d788-4175-aacc-2cb4c58a0585"
        }
      }
    },
    {
      "fullUrl": "urn:uuid:bae117fc-312e-4101-bdda-fe700b4bfc70",
      "resource": {
        "resourceType": "Device",
        "id": "bae117fc-312e-4101-bdda-fe700b4bfc70",
        "deviceName": [
          {
            "name": "SYNDERAI Synthetic Generator",
            "type": "manufacturer-name"
          }
        ],
        "version": [
          {
            "value": "5.0"
          }
        ],
        "text": {
          "status": "generated",
          "div": "<div xmlns=\"http://www.w3.org/1999/xhtml\">SYNDERAI Synthetic Generator v5.0</div>"
        },
        "status": "active\"",
        "distinctIdentifier": "synderai-generator-50",
        "manufacturer": "SYNDERAI Project"
      }
    },
    {
      "fullUrl": "urn:uuid:6926f66f-806c-4b9a-ad61-d893dd4aa6de",
      "resource": {
        "resourceType": "Provenance",
        "id": "6926f66f-806c-4b9a-ad61-d893dd4aa6de",
        "target": [
          {
            "reference": "Patient/e0e3d655-b268-4bb3-96c1-2b64110a56e6"
          },
          {
            "reference": "Bundle/34ced47f-e37b-449d-9d18-afabbf38d969"
          },
          {
            "reference": "Composition/ce3dd1b0-cce2-41e2-89cf-8f8bfd3c63f7"
          },
          {
            "reference": "PractitionerRole/be860917-42d8-4912-852e-5f40412b7861"
          },
          {
            "reference": "Practitioner/70d571c7-9aaa-4fab-addf-f1e65b35700b"
          },
          {
            "reference": "PractitionerRole/a9b7fcd3-d0dd-4cea-af9a-db39980d43a3"
          },
          {
            "reference": "Organization/f1db10d0-2a5c-46b9-9b60-0502f09dc2a7"
          }
        ],
        "activity": {
          "text": "Synthetic Example Data Generation"
        },
        "policy": [
          "https://synderai.net/synderai-synthetic-data-policy"
        ],
        "agent": [
          {
            "type": {
              "text": "author"
            },
            "who": {
              "reference": "Device/bae117fc-312e-4101-bdda-fe700b4bfc70"
            }
          }
        ],
        "reason": [
          {
            "text": "Interoperability Testing and Training (non-clinical use)"
          }
        ],
        "text": {
          "status": "generated",
          "div": "<div xmlns=\"http://www.w3.org/1999/xhtml\">Provenance for SYNDERAI Synthetic Example Data Resource</div>"
        },
        "recorded": "2018-03-11T20:24:33Z"
      }
    },
    {
      "fullUrl": "urn:uuid:be860917-42d8-4912-852e-5f40412b7861",
      "resource": {
        "resourceType": "PractitionerRole",
        "id": "be860917-42d8-4912-852e-5f40412b7861",
        "meta": {
          "profile": [
            "http://hl7.eu/fhir/base/StructureDefinition/practitionerRole-eu"
          ]
        },
        "text": {
          "status": "generated",
          "div": "<div xmlns=\"http://www.w3.org/1999/xhtml\">Laboratory Role Id: be860917-42d8-4912-852e-5f40412b7861</div>"
        },
        "practitioner": {
          "reference": "urn:uuid:70d571c7-9aaa-4fab-addf-f1e65b35700b"
        }
      }
    },
    {
      "fullUrl": "urn:uuid:70d571c7-9aaa-4fab-addf-f1e65b35700b",
      "resource": {
        "resourceType": "Practitioner",
        "id": "70d571c7-9aaa-4fab-addf-f1e65b35700b",
        "meta": {
          "profile": [
            "http://hl7.eu/fhir/base/StructureDefinition/practitioner-eu"
          ]
        },
        "identifier": [
          {
            "assigner": {
              "display": "HL7 Europe"
            },
            "system": "urn:oid:2.16.840.1.113883.2.51.999",
            "value": "e0e673b2-a7c5-4dce-9d7f-470180dd44bd"
          }
        ],
        "name": [
          {
            "prefix": [
              "dr"
            ],
            "given": [
              "Ex"
            ],
            "family": "Ample"
          }
        ],
        "address": [
          {
            "line": [
              "Laboratoire Central Européenne",
              "Boulevard du Jardin Botanique 32"
            ],
            "postalCode": "1000",
            "city": "Brussels",
            "country": "Belgium"
          }
        ],
        "text": {
          "status": "generated",
          "div": "<div xmlns=\"http://www.w3.org/1999/xhtml\">Laboratory: Laboratoire Central Européenne, 1000 Brussels, Belgium</div>"
        }
      }
    }
  ],
  "type": "document",
  "timestamp": "2018-03-11T20:24:33Z"
}
