{
  "resourceType": "Bundle",
  "id": "882c1a53-1969-4646-96d1-0da0cff654aa",
  "meta": {
    "profile": [
      "http://hl7.eu/fhir/laboratory/StructureDefinition/Bundle-eu-lab"
    ]
  },
  "identifier": {
    "assigner": {
      "display": "HL7 Europe"
    },
    "system": "urn:oid:2.16.840.1.113883.2.51.999",
    "value": "121a0ed9-6d04-44b4-a998-5c21bbd96051"
  },
  "entry": [
    {
      "fullUrl": "urn:uuid:4e25620c-5b6d-4301-bb8e-0b9f7038d3aa",
      "resource": {
        "resourceType": "Composition",
        "id": "4e25620c-5b6d-4301-bb8e-0b9f7038d3aa",
        "meta": {
          "profile": [
            "http://hl7.eu/fhir/laboratory/StructureDefinition/Composition-eu-lab"
          ]
        },
        "identifier": {
          "assigner": {
            "display": "HL7 Europe"
          },
          "system": "urn:oid:2.16.840.1.113883.2.51.999",
          "value": "b66df6ad-7640-4be1-b1a2-2aaee32472d2"
        },
        "author": [
          {
            "reference": "urn:uuid:d639d76b-2842-4b93-86be-b284f3b2a1a4"
          }
        ],
        "category": [
          {
            "coding": [
              {
                "code": "26436-6",
                "system": "http://loinc.org",
                "display": "Laboratory studies (set)"
              }
            ]
          }
        ],
        "type": {
          "coding": [
            {
              "code": "11502-2",
              "system": "http://loinc.org",
              "display": "Laboratory report"
            }
          ],
          "text": "Laboratory Report"
        },
        "section": [
          {
            "code": {
              "coding": [
                {
                  "code": "26436-6",
                  "system": "http://loinc.org",
                  "display": "Laboratory studies (set)"
                }
              ],
              "text": "Laboratory studies"
            },
            "section": [
              {
                "code": {
                  "coding": [
                    {
                      "code": "$18719-5",
                      "system": "http://loinc.org",
                      "display": "Chemistry studies (set)"
                    }
                  ],
                  "text": "Chemistry"
                },
                "entry": [
                  {
                    "reference": "urn:uuid:8deba6a0-2ec3-42e4-a611-60de039b49d5"
                  },
                  {
                    "reference": "urn:uuid:04deb6b4-86d1-447f-b92d-bf075d49c2e7"
                  },
                  {
                    "reference": "urn:uuid:c8799595-cf7d-493c-ace1-831dbdddcf45"
                  },
                  {
                    "reference": "urn:uuid:ceda2a73-1131-4518-bbb1-072b1c5f6303"
                  },
                  {
                    "reference": "urn:uuid:297c644a-bf99-459e-961d-516b55e0fe98"
                  },
                  {
                    "reference": "urn:uuid:e2828282-c532-4786-8579-be8dc2c8e50e"
                  },
                  {
                    "reference": "urn:uuid:8646e4b9-2fe0-4fbd-880c-1941f54ad160"
                  },
                  {
                    "reference": "urn:uuid:eef23a09-9a69-42f6-b4b1-4734f4258c29"
                  },
                  {
                    "reference": "urn:uuid:986eef46-9917-4b32-a34e-de5f1b1755bf"
                  },
                  {
                    "reference": "urn:uuid:549dea98-2ad7-40c8-9426-aaba8d84a083"
                  },
                  {
                    "reference": "urn:uuid:a9311e54-e994-460c-902f-a1750099679d"
                  },
                  {
                    "reference": "urn:uuid:ce1c39bb-2e12-443a-aacb-0d3ad2ec2e62"
                  },
                  {
                    "reference": "urn:uuid:a6efde5a-b5c9-42d0-8039-3cbfbd891d3d"
                  },
                  {
                    "reference": "urn:uuid:5e046d1b-2d6b-43ef-938a-17fa9e6bc7c8"
                  },
                  {
                    "reference": "urn:uuid:4aeccc21-e4c9-429b-a2ae-f3da5523efd3"
                  },
                  {
                    "reference": "urn:uuid:1bd30361-ebe8-476d-acb1-30ae84207f00"
                  },
                  {
                    "reference": "urn:uuid:a33c5385-1386-460d-a931-959d69aa845c"
                  },
                  {
                    "reference": "urn:uuid:cba43519-55e6-4bf2-927a-184d0d54d65d"
                  }
                ],
                "text": {
                  "status": "generated",
                  "div": "<div xmlns=\"http://www.w3.org/1999/xhtml\"><h3>Chemistry</h3><table class=\"hl7__eu__lab__report\"><thead><tr><th>Test</th><th>15-AUG-2017</th><th>Reference&#xA0;Range</th><th>Unit</th></tr></thead><tbody><tr><td>Glucose [Mass/volume] in Serum or Plasma</td><td><strong>68.1 L</strong></td><td>70 - 99</td><td>mg/dL</td></tr><tr><td>Urea nitrogen [Mass/volume] in Serum or Plasma</td><td>18.2</td><td>7 - 50</td><td>mg/dL</td></tr><tr><td>Creatinine [Mass/volume] in Serum or Plasma</td><td><strong>2.1 H</strong></td><td>0.6 - 1.1</td><td>mg/dL</td></tr><tr><td>Calcium [Mass/volume] in Serum or Plasma</td><td>9.1</td><td>8.6 - 10.4</td><td>mg/dL</td></tr><tr><td>Sodium [Moles/volume] in Serum or Plasma</td><td>137.8</td><td>135 - 145</td><td>mmol/L</td></tr><tr><td>Potassium [Moles/volume] in Serum or Plasma</td><td>4.2</td><td>3.5 - 5.1</td><td>mmol/L</td></tr><tr><td>Chloride [Moles/volume] in Serum or Plasma</td><td><strong>108.4 H</strong></td><td>98 - 108</td><td>mmol/L</td></tr><tr><td>Carbon dioxide, total [Moles/volume] in Serum or Plasma</td><td>27.7</td><td>22 - 32</td><td>mmol/L</td></tr><tr><td>Ketones [Presence] in Urine by Test strip</td><td>Urine ketone test = +</td><td></td><td></td></tr><tr><td>Hemoglobin A1c/Hemoglobin.total in Blood</td><td><strong>3.4 L</strong></td><td>4 - 6.4</td><td>%</td></tr><tr><td>Glucose [Mass/volume] in Blood</td><td><strong>68.1 L</strong></td><td>70 - 100</td><td>mg/dL</td></tr><tr><td>Urea nitrogen [Mass/volume] in Blood</td><td>18.2</td><td>7 - 43</td><td>mg/dL</td></tr><tr><td>Creatinine [Mass/volume] in Blood</td><td><strong>2.3 H</strong></td><td>0.6 - 1.1</td><td>mg/dL</td></tr><tr><td>Calcium [Mass/volume] in Blood</td><td>9.1</td><td>8.5 - 10.5</td><td>mg/dL</td></tr><tr><td>Sodium [Moles/volume] in Blood</td><td>137.8</td><td>135 - 145</td><td>mmol/L</td></tr><tr><td>Potassium [Moles/volume] in Blood</td><td>4.2</td><td>3.5 - 5.1</td><td>mmol/L</td></tr><tr><td>Chloride [Moles/volume] in Blood</td><td><strong>108.4 H</strong></td><td>98 - 108</td><td>mmol/L</td></tr><tr><td>Carbon dioxide, total [Moles/volume] in Blood</td><td>27.7</td><td>22 - 29</td><td>mmol/L</td></tr></tbody></table></div>"
                },
                "title": "Chemistry"
              },
              {
                "code": {
                  "coding": [
                    {
                      "code": "$18729-4",
                      "system": "http://loinc.org",
                      "display": "Urinalysis studies (set)"
                    }
                  ],
                  "text": "Urinalysis"
                },
                "entry": [
                  {
                    "reference": "urn:uuid:7d9e02c9-e8e2-4b8c-80d0-0e515a2dda37"
                  },
                  {
                    "reference": "urn:uuid:44e2e6aa-6efb-4a5c-b762-4d74d7eab5f6"
                  },
                  {
                    "reference": "urn:uuid:8448996a-3ab0-41d6-b74d-29d19c909869"
                  },
                  {
                    "reference": "urn:uuid:44af30eb-3ce1-4c1f-8ac2-8306e890bb5f"
                  },
                  {
                    "reference": "urn:uuid:16a9aaa9-18e0-4d60-9124-f0e479567e87"
                  },
                  {
                    "reference": "urn:uuid:a8e12e6a-5997-42f3-aa0e-e8871694d1f7"
                  },
                  {
                    "reference": "urn:uuid:5f56bae0-8169-4a57-8758-66894443a758"
                  },
                  {
                    "reference": "urn:uuid:d32a01df-3bdd-4689-9f12-3656a5f75c19"
                  },
                  {
                    "reference": "urn:uuid:db51bf56-1e10-4bca-8619-96f0d75056e3"
                  },
                  {
                    "reference": "urn:uuid:2f366d31-306d-49a2-9f50-ba37d375ff78"
                  },
                  {
                    "reference": "urn:uuid:7338cfc4-87d9-4345-82c8-30b997ff9b7e"
                  },
                  {
                    "reference": "urn:uuid:a3a6949c-4c11-4a73-a390-77f9adeb4343"
                  }
                ],
                "text": {
                  "status": "generated",
                  "div": "<div xmlns=\"http://www.w3.org/1999/xhtml\"><h3>Urinalysis</h3><table class=\"hl7__eu__lab__report\"><thead><tr><th>Test</th><th>15-AUG-2017</th><th>Reference&#xA0;Range</th><th>Unit</th></tr></thead><tbody><tr><td>Glucose [Mass/volume] in Urine by Test strip</td><td><strong>2.4 H</strong></td><td>0.8 - 0</td><td>mg/dL</td></tr><tr><td>Glucose [Presence] in Urine by Test strip</td><td>++</td><td></td><td></td></tr><tr><td>Bilirubin.total [Mass/volume] in Urine by Test strip</td><td><strong>1.3 H</strong></td><td>0 - 1</td><td>mg/dL</td></tr><tr><td>Bilirubin.total [Presence] in Urine by Test strip</td><td>Finding of bilirubin in urine</td><td></td><td></td></tr><tr><td>Ketones [Mass/volume] in Urine by Test strip</td><td><strong>14.3 H</strong></td><td>0 - 4</td><td>mg/dL</td></tr><tr><td>Specific gravity of Urine by Test strip</td><td><strong>1.0 L</strong></td><td>1.005 - 1.03</td><td>{nominal}</td></tr><tr><td>pH of Urine by Test strip</td><td>6.3</td><td>4.6 - 7</td><td>pH</td></tr><tr><td>Protein [Mass/volume] in Urine by Test strip</td><td><strong>341.2 H</strong></td><td>0 - 14</td><td>mg/dL</td></tr><tr><td>Protein [Presence] in Urine by Test strip</td><td>Urine protein test = ++</td><td></td><td></td></tr><tr><td>Nitrite [Presence] in Urine by Test strip</td><td>Urine nitrite negative</td><td></td><td></td></tr><tr><td>Hemoglobin [Presence] in Urine by Test strip</td><td>Urine blood test = negative</td><td></td><td></td></tr><tr><td>Leukocyte esterase [Presence] in Urine by Test strip</td><td>Urine leukocyte test negative</td><td></td><td></td></tr></tbody></table></div>"
                },
                "title": "Urinalysis"
              },
              {
                "code": {
                  "coding": [
                    {
                      "code": "$LP7846-1",
                      "system": "http://loinc.org",
                      "display": "Specimen information"
                    }
                  ],
                  "text": "Specimen information"
                },
                "entry": [
                  {
                    "reference": "urn:uuid:35f4cc44-fcf6-41a1-879c-72ef1ff17fa1"
                  },
                  {
                    "reference": "urn:uuid:30eef1ca-4cea-40f2-98c7-e967b5a06f5f"
                  },
                  {
                    "reference": "urn:uuid:992c8873-a024-429a-9e9c-be4ecbd688bf"
                  },
                  {
                    "reference": "urn:uuid:4623842b-4117-492a-a0ce-f7c3c8b84337"
                  }
                ],
                "text": {
                  "status": "generated",
                  "div": "<div xmlns=\"http://www.w3.org/1999/xhtml\"><h3>Specimen information</h3><table class=\"hl7__eu__lab__report\"><thead><tr><th>Test</th><th>15-AUG-2017</th><th>Specimen</th><th></th></tr></thead><tbody><tr><td>Appearance of Urine</td><td>Cloudy urine</td><td>Urine</td><td></td></tr><tr><td>Odor of Urine</td><td>Urine smell ammoniacal</td><td>Urine</td><td></td></tr><tr><td>Clarity of Urine</td><td>Translucent</td><td>Urine</td><td></td></tr><tr><td>Color of Urine</td><td>Brown color</td><td>Urine</td><td></td></tr></tbody></table></div>"
                },
                "title": "Specimen information"
              }
            ],
            "title": "Laboratory Report"
          },
          {
            "text": {
              "status": "generated",
              "div": "<div xmlns=\"http://www.w3.org/1999/xhtml\"><h3>Annotation</h3><table class=\"hl7__eu__lab__report\"><tr><th>Conclusion and Recommendations based on this report and previous findings known to us</th></tr><tr><td>The patient shows significant renal impairment (elevated creatinine), marked proteinuria, and abnormal urine findings (cloudy, brown, low specific gravity, high bilirubin, ketones, and glucose). Blood glucose and HbA1c are low, suggesting hypoglycemia rather than diabetes. No evidence of urinary infection. Findings are consistent with possible nephrotic syndrome or advanced kidney disease; urgent nephrology evaluation is recommended.</td></tr></table></div>"
            },
            "code": {
              "coding": [
                {
                  "system": "http://loinc.org",
                  "code": "48767-8",
                  "display": "Annotation comment"
                }
              ]
            },
            "title": "Annotation comment"
          }
        ],
        "status": "final",
        "subject": {
          "reference": "urn:uuid:022f8237-be41-4547-804b-e0539622bd50",
          "display": "Meaghan Neary"
        },
        "date": "2017-08-15T00:11:04Z",
        "title": "Laboratory Report",
        "confidentiality": "N"
      }
    },
    {
      "fullUrl": "urn:uuid:b961cc6c-cd64-46e8-9fc7-d979be1d8f3d",
      "resource": {
        "resourceType": "DiagnosticReport",
        "id": "b961cc6c-cd64-46e8-9fc7-d979be1d8f3d",
        "meta": {
          "profile": [
            "http://hl7.eu/fhir/laboratory/StructureDefinition/DiagnosticReport-eu-lab"
          ]
        },
        "identifier": [
          {
            "assigner": {
              "display": "HL7 Europe"
            },
            "system": "urn:oid:2.16.840.1.113883.2.51.999",
            "value": "f93981bf-1f92-4783-83e1-d1904f818f68"
          }
        ],
        "extension": [
          {
            "url": "http://hl7.org/fhir/5.0/StructureDefinition/extension-DiagnosticReport.composition",
            "valueReference": {
              "reference": "urn:uuid:b66df6ad-7640-4be1-b1a2-2aaee32472d2"
            }
          }
        ],
        "category": [
          {
            "coding": [
              {
                "code": "26436-6",
                "system": "http://loinc.org",
                "display": "Laboratory studies (set)"
              }
            ]
          }
        ],
        "specimen": [
          {
            "reference": "urn:uuid:492e5fb4-413c-4620-98c0-746ed777b137"
          },
          {
            "reference": "urn:uuid:68d0131e-9492-4a11-a98b-f2b4e4565ee4"
          },
          {
            "reference": "urn:uuid:82d5f455-6cf8-4952-b947-bc84b09dc430"
          }
        ],
        "result": [
          {
            "reference": "urn:uuid:8deba6a0-2ec3-42e4-a611-60de039b49d5"
          },
          {
            "reference": "urn:uuid:04deb6b4-86d1-447f-b92d-bf075d49c2e7"
          },
          {
            "reference": "urn:uuid:c8799595-cf7d-493c-ace1-831dbdddcf45"
          },
          {
            "reference": "urn:uuid:ceda2a73-1131-4518-bbb1-072b1c5f6303"
          },
          {
            "reference": "urn:uuid:297c644a-bf99-459e-961d-516b55e0fe98"
          },
          {
            "reference": "urn:uuid:e2828282-c532-4786-8579-be8dc2c8e50e"
          },
          {
            "reference": "urn:uuid:8646e4b9-2fe0-4fbd-880c-1941f54ad160"
          },
          {
            "reference": "urn:uuid:eef23a09-9a69-42f6-b4b1-4734f4258c29"
          },
          {
            "reference": "urn:uuid:35f4cc44-fcf6-41a1-879c-72ef1ff17fa1"
          },
          {
            "reference": "urn:uuid:30eef1ca-4cea-40f2-98c7-e967b5a06f5f"
          },
          {
            "reference": "urn:uuid:992c8873-a024-429a-9e9c-be4ecbd688bf"
          },
          {
            "reference": "urn:uuid:4623842b-4117-492a-a0ce-f7c3c8b84337"
          },
          {
            "reference": "urn:uuid:7d9e02c9-e8e2-4b8c-80d0-0e515a2dda37"
          },
          {
            "reference": "urn:uuid:44e2e6aa-6efb-4a5c-b762-4d74d7eab5f6"
          },
          {
            "reference": "urn:uuid:8448996a-3ab0-41d6-b74d-29d19c909869"
          },
          {
            "reference": "urn:uuid:44af30eb-3ce1-4c1f-8ac2-8306e890bb5f"
          },
          {
            "reference": "urn:uuid:16a9aaa9-18e0-4d60-9124-f0e479567e87"
          },
          {
            "reference": "urn:uuid:986eef46-9917-4b32-a34e-de5f1b1755bf"
          },
          {
            "reference": "urn:uuid:a8e12e6a-5997-42f3-aa0e-e8871694d1f7"
          },
          {
            "reference": "urn:uuid:5f56bae0-8169-4a57-8758-66894443a758"
          },
          {
            "reference": "urn:uuid:d32a01df-3bdd-4689-9f12-3656a5f75c19"
          },
          {
            "reference": "urn:uuid:db51bf56-1e10-4bca-8619-96f0d75056e3"
          },
          {
            "reference": "urn:uuid:2f366d31-306d-49a2-9f50-ba37d375ff78"
          },
          {
            "reference": "urn:uuid:7338cfc4-87d9-4345-82c8-30b997ff9b7e"
          },
          {
            "reference": "urn:uuid:a3a6949c-4c11-4a73-a390-77f9adeb4343"
          },
          {
            "reference": "urn:uuid:549dea98-2ad7-40c8-9426-aaba8d84a083"
          },
          {
            "reference": "urn:uuid:a9311e54-e994-460c-902f-a1750099679d"
          },
          {
            "reference": "urn:uuid:ce1c39bb-2e12-443a-aacb-0d3ad2ec2e62"
          },
          {
            "reference": "urn:uuid:a6efde5a-b5c9-42d0-8039-3cbfbd891d3d"
          },
          {
            "reference": "urn:uuid:5e046d1b-2d6b-43ef-938a-17fa9e6bc7c8"
          },
          {
            "reference": "urn:uuid:4aeccc21-e4c9-429b-a2ae-f3da5523efd3"
          },
          {
            "reference": "urn:uuid:1bd30361-ebe8-476d-acb1-30ae84207f00"
          },
          {
            "reference": "urn:uuid:a33c5385-1386-460d-a931-959d69aa845c"
          },
          {
            "reference": "urn:uuid:cba43519-55e6-4bf2-927a-184d0d54d65d"
          }
        ],
        "status": "registered",
        "code": {
          "coding": [
            {
              "code": "11502-2",
              "system": "http://loinc.org",
              "display": "Laboratory report"
            }
          ]
        },
        "subject": {
          "reference": "urn:uuid:022f8237-be41-4547-804b-e0539622bd50",
          "display": "Meaghan Neary"
        }
      }
    },
    {
      "fullUrl": "urn:uuid:022f8237-be41-4547-804b-e0539622bd50",
      "resource": {
        "resourceType": "Patient",
        "id": "022f8237-be41-4547-804b-e0539622bd50",
        "meta": {
          "security": [
            {
              "system": "http://terminology.hl7.org/CodeSystem/v3-ActReason",
              "code": "HTEST"
            },
            {
              "system": "http://terminology.hl7.org/CodeSystem/v3-ActReason",
              "code": "TRAIN"
            }
          ],
          "tag": [
            {
              "system": "https://synderai.net/fhir/CodeSystem/tags",
              "code": "synthetic",
              "display": "SYNDERAI Synthetic data"
            }
          ],
          "profile": [
            "http://hl7.eu/fhir/base/StructureDefinition/patient-eu-core"
          ]
        },
        "identifier": [
          {
            "type": {
              "coding": [
                {
                  "code": "PT",
                  "system": "http://terminology.hl7.org/CodeSystem/v2-0203"
                }
              ]
            },
            "system": "http://ec.europa.eu/identifier/eci",
            "value": "1586-567257-8"
          },
          {
            "type": {
              "coding": [
                {
                  "code": "MR",
                  "system": "http://terminology.hl7.org/CodeSystem/v2-0203"
                }
              ]
            },
            "system": "http://local.setting.eu/identifier",
            "value": "443e6379-f231-b364-3ccb-644740a1aa2a"
          }
        ],
        "name": [
          {
            "family": "Neary"
          },
          {
            "given": [
              "Meaghan"
            ]
          },
          {
            "text": "Meaghan Neary"
          }
        ],
        "address": [
          {
            "line": [
              "64 Linskey Street"
            ],
            "use": "home",
            "type": "physical",
            "postalCode": "D02",
            "city": "Dublin",
            "country": "Ireland"
          }
        ],
        "telecom": [
          {
            "system": "phone",
            "value": "001-967-573-0911x465"
          }
        ],
        "extension": [
          {
            "url": "http://hl7.org/fhir/StructureDefinition/patient-nationality",
            "valueCodeableConcept": {
              "coding": [
                {
                  "code": "IE",
                  "system": "http://hl7.org/fhir/ValueSet/country"
                }
              ]
            }
          }
        ],
        "text": {
          "status": "generated",
          "div": "<div xmlns=\"http://www.w3.org/1999/xhtml\"><table class=\"hl7__ips\"><tr><td>Meaghan Neary</td><td>female</td><td>19-Dec-1960</td></tr></table></div>"
        },
        "gender": "female",
        "birthDate": "1960-12-19"
      }
    },
    {
      "fullUrl": "urn:uuid:42162017-f327-4493-92f7-4ba3b85fdae2",
      "resource": {
        "resourceType": "ServiceRequest",
        "id": "42162017-f327-4493-92f7-4ba3b85fdae2",
        "meta": {
          "profile": [
            "http://hl7.eu/fhir/laboratory/StructureDefinition/ServiceRequest-eu-lab"
          ]
        },
        "identifier": [
          {
            "system": "http://example.org",
            "value": "a6bd1d9a-59f4-4daf-9b97-8caa5b040efc"
          }
        ],
        "specimen": [
          {
            "reference": "urn:uuid:492e5fb4-413c-4620-98c0-746ed777b137"
          },
          {
            "reference": "urn:uuid:68d0131e-9492-4a11-a98b-f2b4e4565ee4"
          },
          {
            "reference": "urn:uuid:82d5f455-6cf8-4952-b947-bc84b09dc430"
          }
        ],
        "reasonCode": [
          {
            "coding": [
              {
                "code": "55822004",
                "system": "http://snomed.info/sct",
                "display": "Hyperlipidemia"
              }
            ]
          },
          {
            "coding": [
              {
                "code": "433144002",
                "system": "http://snomed.info/sct",
                "display": "Chronic kidney disease stage 3"
              }
            ]
          },
          {
            "coding": [
              {
                "code": "157141000119108",
                "system": "http://snomed.info/sct",
                "display": "Proteinuria due to type 2 diabetes mellitus"
              }
            ]
          },
          {
            "coding": [
              {
                "code": "431856006",
                "system": "http://snomed.info/sct",
                "display": "Chronic kidney disease stage 2"
              }
            ]
          },
          {
            "coding": [
              {
                "code": "90781000119102",
                "system": "http://snomed.info/sct",
                "display": "Microalbuminuria due to type 2 diabetes mellitus"
              }
            ]
          },
          {
            "coding": [
              {
                "code": "127013003",
                "system": "http://snomed.info/sct",
                "display": "Disorder of kidney due to diabetes mellitus"
              }
            ]
          },
          {
            "coding": [
              {
                "code": "431855005",
                "system": "http://snomed.info/sct",
                "display": "Chronic kidney disease stage 1"
              }
            ]
          },
          {
            "coding": [
              {
                "code": "237602007",
                "system": "http://snomed.info/sct",
                "display": "Metabolic syndrome X"
              }
            ]
          },
          {
            "coding": [
              {
                "code": "271737000",
                "system": "http://snomed.info/sct",
                "display": "Anemia"
              }
            ]
          },
          {
            "coding": [
              {
                "code": "15777000",
                "system": "http://snomed.info/sct",
                "display": "Prediabetes"
              }
            ]
          },
          {
            "coding": [
              {
                "code": "59621000",
                "system": "http://snomed.info/sct",
                "display": "Essential hypertension"
              }
            ]
          }
        ],
        "status": "active",
        "intent": "order",
        "code": {
          "coding": [
            {
              "code": "108252007",
              "system": "http://snomed.info/sct",
              "display": "Laboratory procedure"
            }
          ]
        },
        "subject": {
          "reference": "urn:uuid:022f8237-be41-4547-804b-e0539622bd50",
          "display": "Meaghan Neary"
        },
        "requester": {
          "reference": "urn:uuid:6e191278-071c-4e64-bcfb-00e478e94a72"
        }
      }
    },
    {
      "fullUrl": "urn:uuid:6e191278-071c-4e64-bcfb-00e478e94a72",
      "resource": {
        "resourceType": "PractitionerRole",
        "id": "6e191278-071c-4e64-bcfb-00e478e94a72",
        "meta": {
          "profile": [
            "http://hl7.eu/fhir/base/StructureDefinition/practitionerRole-eu"
          ]
        },
        "text": {
          "status": "generated",
          "div": "<div xmlns=\"http://www.w3.org/1999/xhtml\">Provider Role Id: 6e191278-071c-4e64-bcfb-00e478e94a72</div>"
        },
        "organization": {
          "reference": "urn:uuid:d068e87b-c2d0-47a7-adea-24147fe8f109"
        }
      }
    },
    {
      "fullUrl": "urn:uuid:d068e87b-c2d0-47a7-adea-24147fe8f109",
      "resource": {
        "resourceType": "Organization",
        "id": "d068e87b-c2d0-47a7-adea-24147fe8f109",
        "meta": {
          "profile": [
            "http://hl7.eu/fhir/base/StructureDefinition/organization-eu"
          ]
        },
        "identifier": [
          {
            "assigner": {
              "display": "HL7 Europe"
            },
            "system": "urn:oid:2.16.840.1.113883.2.51.999",
            "value": "3032daa8-6e5a-4e1a-94ae-902e6e33f2f0"
          }
        ],
        "address": [
          {
            "line": [
              "Parnell Square West nan"
            ],
            "city": "Dublin",
            "postalCode": "D01",
            "country": "Ireland"
          }
        ],
        "text": {
          "status": "generated",
          "div": "<div xmlns=\"http://www.w3.org/1999/xhtml\">Provider Organization: Rotunda Hospital</div>"
        },
        "name": "Rotunda Hospital"
      }
    },
    {
      "fullUrl": "urn:uuid:492e5fb4-413c-4620-98c0-746ed777b137",
      "resource": {
        "resourceType": "Specimen",
        "id": "492e5fb4-413c-4620-98c0-746ed777b137",
        "meta": {
          "profile": [
            "http://hl7.eu/fhir/laboratory/StructureDefinition/Specimen-eu-lab"
          ]
        },
        "collection": {
          "collectedDateTime": "2017-08-14"
        },
        "text": {
          "status": "generated",
          "div": "<div xmlns=\"http://www.w3.org/1999/xhtml\"><table class=\"hl7__eu__lab__report\"><tr><th>Specimen</th><th>Collection Date</th></tr><tr><td>Acellular blood (serum or plasma) specimen</td><td><span class=\"nb\">14-Aug-2017</span></td></tr></table></div>"
        },
        "type": {
          "coding": [
            {
              "code": "122592007",
              "system": "http://snomed.info/sct",
              "display": "Acellular blood (serum or plasma) specimen"
            }
          ]
        }
      }
    },
    {
      "fullUrl": "urn:uuid:68d0131e-9492-4a11-a98b-f2b4e4565ee4",
      "resource": {
        "resourceType": "Specimen",
        "id": "68d0131e-9492-4a11-a98b-f2b4e4565ee4",
        "meta": {
          "profile": [
            "http://hl7.eu/fhir/laboratory/StructureDefinition/Specimen-eu-lab"
          ]
        },
        "collection": {
          "collectedDateTime": "2017-08-14"
        },
        "text": {
          "status": "generated",
          "div": "<div xmlns=\"http://www.w3.org/1999/xhtml\"><table class=\"hl7__eu__lab__report\"><tr><th>Specimen</th><th>Collection Date</th></tr><tr><td>Urine specimen</td><td><span class=\"nb\">14-Aug-2017</span></td></tr></table></div>"
        },
        "type": {
          "coding": [
            {
              "code": "122575003",
              "system": "http://snomed.info/sct",
              "display": "Urine specimen"
            }
          ]
        }
      }
    },
    {
      "fullUrl": "urn:uuid:82d5f455-6cf8-4952-b947-bc84b09dc430",
      "resource": {
        "resourceType": "Specimen",
        "id": "82d5f455-6cf8-4952-b947-bc84b09dc430",
        "meta": {
          "profile": [
            "http://hl7.eu/fhir/laboratory/StructureDefinition/Specimen-eu-lab"
          ]
        },
        "collection": {
          "collectedDateTime": "2017-08-14"
        },
        "text": {
          "status": "generated",
          "div": "<div xmlns=\"http://www.w3.org/1999/xhtml\"><table class=\"hl7__eu__lab__report\"><tr><th>Specimen</th><th>Collection Date</th></tr><tr><td>Whole blood specimen (specimen)</td><td><span class=\"nb\">14-Aug-2017</span></td></tr></table></div>"
        },
        "type": {
          "coding": [
            {
              "code": "258580003",
              "system": "http://snomed.info/sct",
              "display": "Whole blood specimen (specimen)"
            }
          ]
        }
      }
    },
    {
      "fullUrl": "urn:uuid:8deba6a0-2ec3-42e4-a611-60de039b49d5",
      "resource": {
        "resourceType": "Observation",
        "id": "8deba6a0-2ec3-42e4-a611-60de039b49d5",
        "meta": {
          "profile": [
            "http://hl7.eu/fhir/laboratory/StructureDefinition/Observation-resultslab-eu-lab"
          ]
        },
        "performer": [
          {
            "display": "The Central European Lab"
          }
        ],
        "category": [
          {
            "coding": [
              {
                "system": "http://terminology.hl7.org/CodeSystem/observation-category",
                "code": "laboratory"
              }
            ]
          }
        ],
        "code": {
          "coding": [
            {
              "code": "2345-7",
              "system": "http://loinc.org",
              "display": "Glucose [Mass/volume] in Serum or Plasma"
            }
          ],
          "text": "Glucose [Mass/volume] in Serum or Plasma"
        },
        "valueQuantity": {
          "system": "http://unitsofmeasure.org",
          "value": 68.1,
          "unit": "mg/dL",
          "code": "mg/dL"
        },
        "referenceRange": [
          {
            "low": {
              "value": 70,
              "code": "mg/dL",
              "system": "http://unitsofmeasure.org"
            }
          },
          {
            "high": {
              "value": 99,
              "code": "mg/dL",
              "system": "http://unitsofmeasure.org"
            }
          }
        ],
        "interpretation": [
          {
            "coding": [
              {
                "code": "L",
                "system": "http://terminology.hl7.org/CodeSystem/v3-ObservationInterpretation",
                "display": "Low"
              }
            ]
          }
        ],
        "text": {
          "status": "generated",
          "div": "<div xmlns=\"http://www.w3.org/1999/xhtml\"><table class=\"hl7__eu__lab__report\"><tr><th>Test</th><th>15-Aug-2017</th><th>Reference&#xA0;Range</th><th>Unit</th></tr><tr><td>Glucose [Mass/volume] in Serum or Plasma</td><td>68.1</td><td>70 - 99</td><td>L</td><td>mg/dL</td></tr></table></div>"
        },
        "status": "final",
        "subject": {
          "reference": "urn:uuid:022f8237-be41-4547-804b-e0539622bd50",
          "display": "Meaghan Neary"
        },
        "effectiveDateTime": "2017-08-14T22:11:04Z",
        "specimen": {
          "reference": "urn:uuid:492e5fb4-413c-4620-98c0-746ed777b137"
        }
      }
    },
    {
      "fullUrl": "urn:uuid:04deb6b4-86d1-447f-b92d-bf075d49c2e7",
      "resource": {
        "resourceType": "Observation",
        "id": "04deb6b4-86d1-447f-b92d-bf075d49c2e7",
        "meta": {
          "profile": [
            "http://hl7.eu/fhir/laboratory/StructureDefinition/Observation-resultslab-eu-lab"
          ]
        },
        "performer": [
          {
            "display": "The Central European Lab"
          }
        ],
        "category": [
          {
            "coding": [
              {
                "system": "http://terminology.hl7.org/CodeSystem/observation-category",
                "code": "laboratory"
              }
            ]
          }
        ],
        "code": {
          "coding": [
            {
              "code": "3094-0",
              "system": "http://loinc.org",
              "display": "Urea nitrogen [Mass/volume] in Serum or Plasma"
            }
          ],
          "text": "Urea nitrogen [Mass/volume] in Serum or Plasma"
        },
        "valueQuantity": {
          "system": "http://unitsofmeasure.org",
          "value": 18.2,
          "unit": "mg/dL",
          "code": "mg/dL"
        },
        "referenceRange": [
          {
            "low": {
              "value": 7,
              "code": "mg/dL",
              "system": "http://unitsofmeasure.org"
            }
          },
          {
            "high": {
              "value": 50,
              "code": "mg/dL",
              "system": "http://unitsofmeasure.org"
            }
          }
        ],
        "text": {
          "status": "generated",
          "div": "<div xmlns=\"http://www.w3.org/1999/xhtml\"><table class=\"hl7__eu__lab__report\"><tr><th>Test</th><th>15-Aug-2017</th><th>Reference&#xA0;Range</th><th>Unit</th></tr><tr><td>Urea nitrogen [Mass/volume] in Serum or Plasma</td><td>18.2</td><td>7 - 50</td><td></td><td>mg/dL</td></tr></table></div>"
        },
        "status": "final",
        "subject": {
          "reference": "urn:uuid:022f8237-be41-4547-804b-e0539622bd50",
          "display": "Meaghan Neary"
        },
        "effectiveDateTime": "2017-08-14T22:11:04Z",
        "specimen": {
          "reference": "urn:uuid:492e5fb4-413c-4620-98c0-746ed777b137"
        }
      }
    },
    {
      "fullUrl": "urn:uuid:c8799595-cf7d-493c-ace1-831dbdddcf45",
      "resource": {
        "resourceType": "Observation",
        "id": "c8799595-cf7d-493c-ace1-831dbdddcf45",
        "meta": {
          "profile": [
            "http://hl7.eu/fhir/laboratory/StructureDefinition/Observation-resultslab-eu-lab"
          ]
        },
        "performer": [
          {
            "display": "The Central European Lab"
          }
        ],
        "category": [
          {
            "coding": [
              {
                "system": "http://terminology.hl7.org/CodeSystem/observation-category",
                "code": "laboratory"
              }
            ]
          }
        ],
        "code": {
          "coding": [
            {
              "code": "2160-0",
              "system": "http://loinc.org",
              "display": "Creatinine [Mass/volume] in Serum or Plasma"
            }
          ],
          "text": "Creatinine [Mass/volume] in Serum or Plasma"
        },
        "valueQuantity": {
          "system": "http://unitsofmeasure.org",
          "value": 2.1,
          "unit": "mg/dL",
          "code": "mg/dL"
        },
        "referenceRange": [
          {
            "low": {
              "value": 0.6,
              "code": "mg/dL",
              "system": "http://unitsofmeasure.org"
            }
          },
          {
            "high": {
              "value": 1.1,
              "code": "mg/dL",
              "system": "http://unitsofmeasure.org"
            }
          }
        ],
        "interpretation": [
          {
            "coding": [
              {
                "code": "H",
                "system": "http://terminology.hl7.org/CodeSystem/v3-ObservationInterpretation",
                "display": "High"
              }
            ]
          }
        ],
        "text": {
          "status": "generated",
          "div": "<div xmlns=\"http://www.w3.org/1999/xhtml\"><table class=\"hl7__eu__lab__report\"><tr><th>Test</th><th>15-Aug-2017</th><th>Reference&#xA0;Range</th><th>Unit</th></tr><tr><td>Creatinine [Mass/volume] in Serum or Plasma</td><td>2.1</td><td>0.6 - 1.1</td><td>H</td><td>mg/dL</td></tr></table></div>"
        },
        "status": "final",
        "subject": {
          "reference": "urn:uuid:022f8237-be41-4547-804b-e0539622bd50",
          "display": "Meaghan Neary"
        },
        "effectiveDateTime": "2017-08-14T22:11:04Z",
        "specimen": {
          "reference": "urn:uuid:492e5fb4-413c-4620-98c0-746ed777b137"
        }
      }
    },
    {
      "fullUrl": "urn:uuid:ceda2a73-1131-4518-bbb1-072b1c5f6303",
      "resource": {
        "resourceType": "Observation",
        "id": "ceda2a73-1131-4518-bbb1-072b1c5f6303",
        "meta": {
          "profile": [
            "http://hl7.eu/fhir/laboratory/StructureDefinition/Observation-resultslab-eu-lab"
          ]
        },
        "performer": [
          {
            "display": "The Central European Lab"
          }
        ],
        "category": [
          {
            "coding": [
              {
                "system": "http://terminology.hl7.org/CodeSystem/observation-category",
                "code": "laboratory"
              }
            ]
          }
        ],
        "code": {
          "coding": [
            {
              "code": "17861-6",
              "system": "http://loinc.org",
              "display": "Calcium [Mass/volume] in Serum or Plasma"
            }
          ],
          "text": "Calcium [Mass/volume] in Serum or Plasma"
        },
        "valueQuantity": {
          "system": "http://unitsofmeasure.org",
          "value": 9.1,
          "unit": "mg/dL",
          "code": "mg/dL"
        },
        "referenceRange": [
          {
            "low": {
              "value": 8.6,
              "code": "mg/dL",
              "system": "http://unitsofmeasure.org"
            }
          },
          {
            "high": {
              "value": 10.4,
              "code": "mg/dL",
              "system": "http://unitsofmeasure.org"
            }
          }
        ],
        "text": {
          "status": "generated",
          "div": "<div xmlns=\"http://www.w3.org/1999/xhtml\"><table class=\"hl7__eu__lab__report\"><tr><th>Test</th><th>15-Aug-2017</th><th>Reference&#xA0;Range</th><th>Unit</th></tr><tr><td>Calcium [Mass/volume] in Serum or Plasma</td><td>9.1</td><td>8.6 - 10.4</td><td></td><td>mg/dL</td></tr></table></div>"
        },
        "status": "final",
        "subject": {
          "reference": "urn:uuid:022f8237-be41-4547-804b-e0539622bd50",
          "display": "Meaghan Neary"
        },
        "effectiveDateTime": "2017-08-14T22:11:04Z",
        "specimen": {
          "reference": "urn:uuid:492e5fb4-413c-4620-98c0-746ed777b137"
        }
      }
    },
    {
      "fullUrl": "urn:uuid:297c644a-bf99-459e-961d-516b55e0fe98",
      "resource": {
        "resourceType": "Observation",
        "id": "297c644a-bf99-459e-961d-516b55e0fe98",
        "meta": {
          "profile": [
            "http://hl7.eu/fhir/laboratory/StructureDefinition/Observation-resultslab-eu-lab"
          ]
        },
        "performer": [
          {
            "display": "The Central European Lab"
          }
        ],
        "category": [
          {
            "coding": [
              {
                "system": "http://terminology.hl7.org/CodeSystem/observation-category",
                "code": "laboratory"
              }
            ]
          }
        ],
        "code": {
          "coding": [
            {
              "code": "2951-2",
              "system": "http://loinc.org",
              "display": "Sodium [Moles/volume] in Serum or Plasma"
            }
          ],
          "text": "Sodium [Moles/volume] in Serum or Plasma"
        },
        "valueQuantity": {
          "system": "http://unitsofmeasure.org",
          "value": 137.8,
          "unit": "mmol/L",
          "code": "mmol/L"
        },
        "referenceRange": [
          {
            "low": {
              "value": 135,
              "code": "mmol/L",
              "system": "http://unitsofmeasure.org"
            }
          },
          {
            "high": {
              "value": 145,
              "code": "mmol/L",
              "system": "http://unitsofmeasure.org"
            }
          }
        ],
        "text": {
          "status": "generated",
          "div": "<div xmlns=\"http://www.w3.org/1999/xhtml\"><table class=\"hl7__eu__lab__report\"><tr><th>Test</th><th>15-Aug-2017</th><th>Reference&#xA0;Range</th><th>Unit</th></tr><tr><td>Sodium [Moles/volume] in Serum or Plasma</td><td>137.8</td><td>135 - 145</td><td></td><td>mmol/L</td></tr></table></div>"
        },
        "status": "final",
        "subject": {
          "reference": "urn:uuid:022f8237-be41-4547-804b-e0539622bd50",
          "display": "Meaghan Neary"
        },
        "effectiveDateTime": "2017-08-14T22:11:04Z",
        "specimen": {
          "reference": "urn:uuid:492e5fb4-413c-4620-98c0-746ed777b137"
        }
      }
    },
    {
      "fullUrl": "urn:uuid:e2828282-c532-4786-8579-be8dc2c8e50e",
      "resource": {
        "resourceType": "Observation",
        "id": "e2828282-c532-4786-8579-be8dc2c8e50e",
        "meta": {
          "profile": [
            "http://hl7.eu/fhir/laboratory/StructureDefinition/Observation-resultslab-eu-lab"
          ]
        },
        "performer": [
          {
            "display": "The Central European Lab"
          }
        ],
        "category": [
          {
            "coding": [
              {
                "system": "http://terminology.hl7.org/CodeSystem/observation-category",
                "code": "laboratory"
              }
            ]
          }
        ],
        "code": {
          "coding": [
            {
              "code": "2823-3",
              "system": "http://loinc.org",
              "display": "Potassium [Moles/volume] in Serum or Plasma"
            }
          ],
          "text": "Potassium [Moles/volume] in Serum or Plasma"
        },
        "valueQuantity": {
          "system": "http://unitsofmeasure.org",
          "value": 4.2,
          "unit": "mmol/L",
          "code": "mmol/L"
        },
        "referenceRange": [
          {
            "low": {
              "value": 3.5,
              "code": "mmol/L",
              "system": "http://unitsofmeasure.org"
            }
          },
          {
            "high": {
              "value": 5.1,
              "code": "mmol/L",
              "system": "http://unitsofmeasure.org"
            }
          }
        ],
        "text": {
          "status": "generated",
          "div": "<div xmlns=\"http://www.w3.org/1999/xhtml\"><table class=\"hl7__eu__lab__report\"><tr><th>Test</th><th>15-Aug-2017</th><th>Reference&#xA0;Range</th><th>Unit</th></tr><tr><td>Potassium [Moles/volume] in Serum or Plasma</td><td>4.2</td><td>3.5 - 5.1</td><td></td><td>mmol/L</td></tr></table></div>"
        },
        "status": "final",
        "subject": {
          "reference": "urn:uuid:022f8237-be41-4547-804b-e0539622bd50",
          "display": "Meaghan Neary"
        },
        "effectiveDateTime": "2017-08-14T22:11:04Z",
        "specimen": {
          "reference": "urn:uuid:492e5fb4-413c-4620-98c0-746ed777b137"
        }
      }
    },
    {
      "fullUrl": "urn:uuid:8646e4b9-2fe0-4fbd-880c-1941f54ad160",
      "resource": {
        "resourceType": "Observation",
        "id": "8646e4b9-2fe0-4fbd-880c-1941f54ad160",
        "meta": {
          "profile": [
            "http://hl7.eu/fhir/laboratory/StructureDefinition/Observation-resultslab-eu-lab"
          ]
        },
        "performer": [
          {
            "display": "The Central European Lab"
          }
        ],
        "category": [
          {
            "coding": [
              {
                "system": "http://terminology.hl7.org/CodeSystem/observation-category",
                "code": "laboratory"
              }
            ]
          }
        ],
        "code": {
          "coding": [
            {
              "code": "2075-0",
              "system": "http://loinc.org",
              "display": "Chloride [Moles/volume] in Serum or Plasma"
            }
          ],
          "text": "Chloride [Moles/volume] in Serum or Plasma"
        },
        "valueQuantity": {
          "system": "http://unitsofmeasure.org",
          "value": 108.4,
          "unit": "mmol/L",
          "code": "mmol/L"
        },
        "referenceRange": [
          {
            "low": {
              "value": 98,
              "code": "mmol/L",
              "system": "http://unitsofmeasure.org"
            }
          },
          {
            "high": {
              "value": 108,
              "code": "mmol/L",
              "system": "http://unitsofmeasure.org"
            }
          }
        ],
        "interpretation": [
          {
            "coding": [
              {
                "code": "H",
                "system": "http://terminology.hl7.org/CodeSystem/v3-ObservationInterpretation",
                "display": "High"
              }
            ]
          }
        ],
        "text": {
          "status": "generated",
          "div": "<div xmlns=\"http://www.w3.org/1999/xhtml\"><table class=\"hl7__eu__lab__report\"><tr><th>Test</th><th>15-Aug-2017</th><th>Reference&#xA0;Range</th><th>Unit</th></tr><tr><td>Chloride [Moles/volume] in Serum or Plasma</td><td>108.4</td><td>98 - 108</td><td>H</td><td>mmol/L</td></tr></table></div>"
        },
        "status": "final",
        "subject": {
          "reference": "urn:uuid:022f8237-be41-4547-804b-e0539622bd50",
          "display": "Meaghan Neary"
        },
        "effectiveDateTime": "2017-08-14T22:11:04Z",
        "specimen": {
          "reference": "urn:uuid:492e5fb4-413c-4620-98c0-746ed777b137"
        }
      }
    },
    {
      "fullUrl": "urn:uuid:eef23a09-9a69-42f6-b4b1-4734f4258c29",
      "resource": {
        "resourceType": "Observation",
        "id": "eef23a09-9a69-42f6-b4b1-4734f4258c29",
        "meta": {
          "profile": [
            "http://hl7.eu/fhir/laboratory/StructureDefinition/Observation-resultslab-eu-lab"
          ]
        },
        "performer": [
          {
            "display": "The Central European Lab"
          }
        ],
        "category": [
          {
            "coding": [
              {
                "system": "http://terminology.hl7.org/CodeSystem/observation-category",
                "code": "laboratory"
              }
            ]
          }
        ],
        "code": {
          "coding": [
            {
              "code": "2028-9",
              "system": "http://loinc.org",
              "display": "Carbon dioxide, total [Moles/volume] in Serum or Plasma"
            }
          ],
          "text": "Carbon dioxide, total [Moles/volume] in Serum or Plasma"
        },
        "valueQuantity": {
          "system": "http://unitsofmeasure.org",
          "value": 27.7,
          "unit": "mmol/L",
          "code": "mmol/L"
        },
        "referenceRange": [
          {
            "low": {
              "value": 22,
              "code": "mmol/L",
              "system": "http://unitsofmeasure.org"
            }
          },
          {
            "high": {
              "value": 32,
              "code": "mmol/L",
              "system": "http://unitsofmeasure.org"
            }
          }
        ],
        "text": {
          "status": "generated",
          "div": "<div xmlns=\"http://www.w3.org/1999/xhtml\"><table class=\"hl7__eu__lab__report\"><tr><th>Test</th><th>15-Aug-2017</th><th>Reference&#xA0;Range</th><th>Unit</th></tr><tr><td>Carbon dioxide, total [Moles/volume] in Serum or Plasma</td><td>27.7</td><td>22 - 32</td><td></td><td>mmol/L</td></tr></table></div>"
        },
        "status": "final",
        "subject": {
          "reference": "urn:uuid:022f8237-be41-4547-804b-e0539622bd50",
          "display": "Meaghan Neary"
        },
        "effectiveDateTime": "2017-08-14T22:11:04Z",
        "specimen": {
          "reference": "urn:uuid:492e5fb4-413c-4620-98c0-746ed777b137"
        }
      }
    },
    {
      "fullUrl": "urn:uuid:35f4cc44-fcf6-41a1-879c-72ef1ff17fa1",
      "resource": {
        "resourceType": "Observation",
        "id": "35f4cc44-fcf6-41a1-879c-72ef1ff17fa1",
        "meta": {
          "profile": [
            "http://hl7.eu/fhir/laboratory/StructureDefinition/Observation-resultslab-eu-lab"
          ]
        },
        "performer": [
          {
            "display": "The Central European Lab"
          }
        ],
        "category": [
          {
            "coding": [
              {
                "system": "http://terminology.hl7.org/CodeSystem/observation-category",
                "code": "laboratory"
              }
            ]
          }
        ],
        "code": {
          "coding": [
            {
              "code": "5767-9",
              "system": "http://loinc.org",
              "display": "Appearance of Urine"
            }
          ],
          "text": "Appearance of Urine"
        },
        "text": {
          "status": "generated",
          "div": "<div xmlns=\"http://www.w3.org/1999/xhtml\"><table class=\"hl7__eu__lab__report\"><tr><th>Test</th><th>15-Aug-2017</th><th>Reference&#xA0;Range</th><th>Unit</th></tr><tr><td>Appearance of Urine</td></tr></table></div>"
        },
        "status": "final",
        "subject": {
          "reference": "urn:uuid:022f8237-be41-4547-804b-e0539622bd50",
          "display": "Meaghan Neary"
        },
        "effectiveDateTime": "2017-08-14T22:11:04Z",
        "specimen": {
          "reference": "urn:uuid:68d0131e-9492-4a11-a98b-f2b4e4565ee4"
        }
      }
    },
    {
      "fullUrl": "urn:uuid:30eef1ca-4cea-40f2-98c7-e967b5a06f5f",
      "resource": {
        "resourceType": "Observation",
        "id": "30eef1ca-4cea-40f2-98c7-e967b5a06f5f",
        "meta": {
          "profile": [
            "http://hl7.eu/fhir/laboratory/StructureDefinition/Observation-resultslab-eu-lab"
          ]
        },
        "performer": [
          {
            "display": "The Central European Lab"
          }
        ],
        "category": [
          {
            "coding": [
              {
                "system": "http://terminology.hl7.org/CodeSystem/observation-category",
                "code": "laboratory"
              }
            ]
          }
        ],
        "code": {
          "coding": [
            {
              "code": "34533-0",
              "system": "http://loinc.org",
              "display": "Odor of Urine"
            }
          ],
          "text": "Odor of Urine"
        },
        "text": {
          "status": "generated",
          "div": "<div xmlns=\"http://www.w3.org/1999/xhtml\"><table class=\"hl7__eu__lab__report\"><tr><th>Test</th><th>15-Aug-2017</th><th>Reference&#xA0;Range</th><th>Unit</th></tr><tr><td>Odor of Urine</td></tr></table></div>"
        },
        "status": "final",
        "subject": {
          "reference": "urn:uuid:022f8237-be41-4547-804b-e0539622bd50",
          "display": "Meaghan Neary"
        },
        "effectiveDateTime": "2017-08-14T22:11:04Z",
        "specimen": {
          "reference": "urn:uuid:68d0131e-9492-4a11-a98b-f2b4e4565ee4"
        }
      }
    },
    {
      "fullUrl": "urn:uuid:992c8873-a024-429a-9e9c-be4ecbd688bf",
      "resource": {
        "resourceType": "Observation",
        "id": "992c8873-a024-429a-9e9c-be4ecbd688bf",
        "meta": {
          "profile": [
            "http://hl7.eu/fhir/laboratory/StructureDefinition/Observation-resultslab-eu-lab"
          ]
        },
        "performer": [
          {
            "display": "The Central European Lab"
          }
        ],
        "category": [
          {
            "coding": [
              {
                "system": "http://terminology.hl7.org/CodeSystem/observation-category",
                "code": "laboratory"
              }
            ]
          }
        ],
        "code": {
          "coding": [
            {
              "code": "32167-9",
              "system": "http://loinc.org",
              "display": "Clarity of Urine"
            }
          ],
          "text": "Clarity of Urine"
        },
        "text": {
          "status": "generated",
          "div": "<div xmlns=\"http://www.w3.org/1999/xhtml\"><table class=\"hl7__eu__lab__report\"><tr><th>Test</th><th>15-Aug-2017</th><th>Reference&#xA0;Range</th><th>Unit</th></tr><tr><td>Clarity of Urine</td></tr></table></div>"
        },
        "status": "final",
        "subject": {
          "reference": "urn:uuid:022f8237-be41-4547-804b-e0539622bd50",
          "display": "Meaghan Neary"
        },
        "effectiveDateTime": "2017-08-14T22:11:04Z",
        "specimen": {
          "reference": "urn:uuid:68d0131e-9492-4a11-a98b-f2b4e4565ee4"
        }
      }
    },
    {
      "fullUrl": "urn:uuid:4623842b-4117-492a-a0ce-f7c3c8b84337",
      "resource": {
        "resourceType": "Observation",
        "id": "4623842b-4117-492a-a0ce-f7c3c8b84337",
        "meta": {
          "profile": [
            "http://hl7.eu/fhir/laboratory/StructureDefinition/Observation-resultslab-eu-lab"
          ]
        },
        "performer": [
          {
            "display": "The Central European Lab"
          }
        ],
        "category": [
          {
            "coding": [
              {
                "system": "http://terminology.hl7.org/CodeSystem/observation-category",
                "code": "laboratory"
              }
            ]
          }
        ],
        "code": {
          "coding": [
            {
              "code": "5778-6",
              "system": "http://loinc.org",
              "display": "Color of Urine"
            }
          ],
          "text": "Color of Urine"
        },
        "text": {
          "status": "generated",
          "div": "<div xmlns=\"http://www.w3.org/1999/xhtml\"><table class=\"hl7__eu__lab__report\"><tr><th>Test</th><th>15-Aug-2017</th><th>Reference&#xA0;Range</th><th>Unit</th></tr><tr><td>Color of Urine</td></tr></table></div>"
        },
        "status": "final",
        "subject": {
          "reference": "urn:uuid:022f8237-be41-4547-804b-e0539622bd50",
          "display": "Meaghan Neary"
        },
        "effectiveDateTime": "2017-08-14T22:11:04Z",
        "specimen": {
          "reference": "urn:uuid:68d0131e-9492-4a11-a98b-f2b4e4565ee4"
        }
      }
    },
    {
      "fullUrl": "urn:uuid:7d9e02c9-e8e2-4b8c-80d0-0e515a2dda37",
      "resource": {
        "resourceType": "Observation",
        "id": "7d9e02c9-e8e2-4b8c-80d0-0e515a2dda37",
        "meta": {
          "profile": [
            "http://hl7.eu/fhir/laboratory/StructureDefinition/Observation-resultslab-eu-lab"
          ]
        },
        "performer": [
          {
            "display": "The Central European Lab"
          }
        ],
        "category": [
          {
            "coding": [
              {
                "system": "http://terminology.hl7.org/CodeSystem/observation-category",
                "code": "laboratory"
              }
            ]
          }
        ],
        "code": {
          "coding": [
            {
              "code": "5792-7",
              "system": "http://loinc.org",
              "display": "Glucose [Mass/volume] in Urine by Test strip"
            }
          ],
          "text": "Glucose [Mass/volume] in Urine by Test strip"
        },
        "valueQuantity": {
          "system": "http://unitsofmeasure.org",
          "value": 2.4,
          "unit": "mg/dL",
          "code": "mg/dL"
        },
        "referenceRange": [
          {
            "low": {
              "value": 0.8,
              "code": "mg/dL",
              "system": "http://unitsofmeasure.org"
            }
          },
          {
            "high": {
              "value": 0,
              "code": "mg/dL",
              "system": "http://unitsofmeasure.org"
            }
          }
        ],
        "interpretation": [
          {
            "coding": [
              {
                "code": "H",
                "system": "http://terminology.hl7.org/CodeSystem/v3-ObservationInterpretation",
                "display": "High"
              }
            ]
          }
        ],
        "text": {
          "status": "generated",
          "div": "<div xmlns=\"http://www.w3.org/1999/xhtml\"><table class=\"hl7__eu__lab__report\"><tr><th>Test</th><th>15-Aug-2017</th><th>Reference&#xA0;Range</th><th>Unit</th></tr><tr><td>Glucose [Mass/volume] in Urine by Test strip</td><td>2.4</td><td>0.8 - 0</td><td>H</td><td>mg/dL</td></tr></table></div>"
        },
        "status": "final",
        "subject": {
          "reference": "urn:uuid:022f8237-be41-4547-804b-e0539622bd50",
          "display": "Meaghan Neary"
        },
        "effectiveDateTime": "2017-08-14T22:11:04Z",
        "specimen": {
          "reference": "urn:uuid:68d0131e-9492-4a11-a98b-f2b4e4565ee4"
        }
      }
    },
    {
      "fullUrl": "urn:uuid:44e2e6aa-6efb-4a5c-b762-4d74d7eab5f6",
      "resource": {
        "resourceType": "Observation",
        "id": "44e2e6aa-6efb-4a5c-b762-4d74d7eab5f6",
        "meta": {
          "profile": [
            "http://hl7.eu/fhir/laboratory/StructureDefinition/Observation-resultslab-eu-lab"
          ]
        },
        "performer": [
          {
            "display": "The Central European Lab"
          }
        ],
        "category": [
          {
            "coding": [
              {
                "system": "http://terminology.hl7.org/CodeSystem/observation-category",
                "code": "laboratory"
              }
            ]
          }
        ],
        "code": {
          "coding": [
            {
              "code": "25428-4",
              "system": "http://loinc.org",
              "display": "Glucose [Presence] in Urine by Test strip"
            }
          ],
          "text": "Glucose [Presence] in Urine by Test strip"
        },
        "text": {
          "status": "generated",
          "div": "<div xmlns=\"http://www.w3.org/1999/xhtml\"><table class=\"hl7__eu__lab__report\"><tr><th>Test</th><th>15-Aug-2017</th><th>Reference&#xA0;Range</th><th>Unit</th></tr><tr><td>Glucose [Presence] in Urine by Test strip</td></tr></table></div>"
        },
        "status": "final",
        "subject": {
          "reference": "urn:uuid:022f8237-be41-4547-804b-e0539622bd50",
          "display": "Meaghan Neary"
        },
        "effectiveDateTime": "2017-08-14T22:11:04Z",
        "specimen": {
          "reference": "urn:uuid:68d0131e-9492-4a11-a98b-f2b4e4565ee4"
        }
      }
    },
    {
      "fullUrl": "urn:uuid:8448996a-3ab0-41d6-b74d-29d19c909869",
      "resource": {
        "resourceType": "Observation",
        "id": "8448996a-3ab0-41d6-b74d-29d19c909869",
        "meta": {
          "profile": [
            "http://hl7.eu/fhir/laboratory/StructureDefinition/Observation-resultslab-eu-lab"
          ]
        },
        "performer": [
          {
            "display": "The Central European Lab"
          }
        ],
        "category": [
          {
            "coding": [
              {
                "system": "http://terminology.hl7.org/CodeSystem/observation-category",
                "code": "laboratory"
              }
            ]
          }
        ],
        "code": {
          "coding": [
            {
              "code": "20505-4",
              "system": "http://loinc.org",
              "display": "Bilirubin.total [Mass/volume] in Urine by Test strip"
            }
          ],
          "text": "Bilirubin.total [Mass/volume] in Urine by Test strip"
        },
        "valueQuantity": {
          "system": "http://unitsofmeasure.org",
          "value": 1.3,
          "unit": "mg/dL",
          "code": "mg/dL"
        },
        "referenceRange": [
          {
            "low": {
              "value": 0,
              "code": "mg/dL",
              "system": "http://unitsofmeasure.org"
            }
          },
          {
            "high": {
              "value": 1,
              "code": "mg/dL",
              "system": "http://unitsofmeasure.org"
            }
          }
        ],
        "interpretation": [
          {
            "coding": [
              {
                "code": "H",
                "system": "http://terminology.hl7.org/CodeSystem/v3-ObservationInterpretation",
                "display": "High"
              }
            ]
          }
        ],
        "text": {
          "status": "generated",
          "div": "<div xmlns=\"http://www.w3.org/1999/xhtml\"><table class=\"hl7__eu__lab__report\"><tr><th>Test</th><th>15-Aug-2017</th><th>Reference&#xA0;Range</th><th>Unit</th></tr><tr><td>Bilirubin.total [Mass/volume] in Urine by Test strip</td><td>1.3</td><td>0 - 1</td><td>H</td><td>mg/dL</td></tr></table></div>"
        },
        "status": "final",
        "subject": {
          "reference": "urn:uuid:022f8237-be41-4547-804b-e0539622bd50",
          "display": "Meaghan Neary"
        },
        "effectiveDateTime": "2017-08-14T22:11:04Z",
        "specimen": {
          "reference": "urn:uuid:68d0131e-9492-4a11-a98b-f2b4e4565ee4"
        }
      }
    },
    {
      "fullUrl": "urn:uuid:44af30eb-3ce1-4c1f-8ac2-8306e890bb5f",
      "resource": {
        "resourceType": "Observation",
        "id": "44af30eb-3ce1-4c1f-8ac2-8306e890bb5f",
        "meta": {
          "profile": [
            "http://hl7.eu/fhir/laboratory/StructureDefinition/Observation-resultslab-eu-lab"
          ]
        },
        "performer": [
          {
            "display": "The Central European Lab"
          }
        ],
        "category": [
          {
            "coding": [
              {
                "system": "http://terminology.hl7.org/CodeSystem/observation-category",
                "code": "laboratory"
              }
            ]
          }
        ],
        "code": {
          "coding": [
            {
              "code": "5770-3",
              "system": "http://loinc.org",
              "display": "Bilirubin.total [Presence] in Urine by Test strip"
            }
          ],
          "text": "Bilirubin.total [Presence] in Urine by Test strip"
        },
        "text": {
          "status": "generated",
          "div": "<div xmlns=\"http://www.w3.org/1999/xhtml\"><table class=\"hl7__eu__lab__report\"><tr><th>Test</th><th>15-Aug-2017</th><th>Reference&#xA0;Range</th><th>Unit</th></tr><tr><td>Bilirubin.total [Presence] in Urine by Test strip</td></tr></table></div>"
        },
        "status": "final",
        "subject": {
          "reference": "urn:uuid:022f8237-be41-4547-804b-e0539622bd50",
          "display": "Meaghan Neary"
        },
        "effectiveDateTime": "2017-08-14T22:11:04Z",
        "specimen": {
          "reference": "urn:uuid:68d0131e-9492-4a11-a98b-f2b4e4565ee4"
        }
      }
    },
    {
      "fullUrl": "urn:uuid:16a9aaa9-18e0-4d60-9124-f0e479567e87",
      "resource": {
        "resourceType": "Observation",
        "id": "16a9aaa9-18e0-4d60-9124-f0e479567e87",
        "meta": {
          "profile": [
            "http://hl7.eu/fhir/laboratory/StructureDefinition/Observation-resultslab-eu-lab"
          ]
        },
        "performer": [
          {
            "display": "The Central European Lab"
          }
        ],
        "category": [
          {
            "coding": [
              {
                "system": "http://terminology.hl7.org/CodeSystem/observation-category",
                "code": "laboratory"
              }
            ]
          }
        ],
        "code": {
          "coding": [
            {
              "code": "5797-6",
              "system": "http://loinc.org",
              "display": "Ketones [Mass/volume] in Urine by Test strip"
            }
          ],
          "text": "Ketones [Mass/volume] in Urine by Test strip"
        },
        "valueQuantity": {
          "system": "http://unitsofmeasure.org",
          "value": 14.3,
          "unit": "mg/dL",
          "code": "mg/dL"
        },
        "referenceRange": [
          {
            "low": {
              "value": 0,
              "code": "mg/dL",
              "system": "http://unitsofmeasure.org"
            }
          },
          {
            "high": {
              "value": 4,
              "code": "mg/dL",
              "system": "http://unitsofmeasure.org"
            }
          }
        ],
        "interpretation": [
          {
            "coding": [
              {
                "code": "H",
                "system": "http://terminology.hl7.org/CodeSystem/v3-ObservationInterpretation",
                "display": "High"
              }
            ]
          }
        ],
        "text": {
          "status": "generated",
          "div": "<div xmlns=\"http://www.w3.org/1999/xhtml\"><table class=\"hl7__eu__lab__report\"><tr><th>Test</th><th>15-Aug-2017</th><th>Reference&#xA0;Range</th><th>Unit</th></tr><tr><td>Ketones [Mass/volume] in Urine by Test strip</td><td>14.3</td><td>0 - 4</td><td>H</td><td>mg/dL</td></tr></table></div>"
        },
        "status": "final",
        "subject": {
          "reference": "urn:uuid:022f8237-be41-4547-804b-e0539622bd50",
          "display": "Meaghan Neary"
        },
        "effectiveDateTime": "2017-08-14T22:11:04Z",
        "specimen": {
          "reference": "urn:uuid:68d0131e-9492-4a11-a98b-f2b4e4565ee4"
        }
      }
    },
    {
      "fullUrl": "urn:uuid:986eef46-9917-4b32-a34e-de5f1b1755bf",
      "resource": {
        "resourceType": "Observation",
        "id": "986eef46-9917-4b32-a34e-de5f1b1755bf",
        "meta": {
          "profile": [
            "http://hl7.eu/fhir/laboratory/StructureDefinition/Observation-resultslab-eu-lab"
          ]
        },
        "performer": [
          {
            "display": "The Central European Lab"
          }
        ],
        "category": [
          {
            "coding": [
              {
                "system": "http://terminology.hl7.org/CodeSystem/observation-category",
                "code": "laboratory"
              }
            ]
          }
        ],
        "code": {
          "coding": [
            {
              "code": "2514-8",
              "system": "http://loinc.org",
              "display": "Ketones [Presence] in Urine by Test strip"
            }
          ],
          "text": "Ketones [Presence] in Urine by Test strip"
        },
        "text": {
          "status": "generated",
          "div": "<div xmlns=\"http://www.w3.org/1999/xhtml\"><table class=\"hl7__eu__lab__report\"><tr><th>Test</th><th>15-Aug-2017</th><th>Reference&#xA0;Range</th><th>Unit</th></tr><tr><td>Ketones [Presence] in Urine by Test strip</td></tr></table></div>"
        },
        "status": "final",
        "subject": {
          "reference": "urn:uuid:022f8237-be41-4547-804b-e0539622bd50",
          "display": "Meaghan Neary"
        },
        "effectiveDateTime": "2017-08-14T22:11:04Z",
        "specimen": {
          "reference": "urn:uuid:68d0131e-9492-4a11-a98b-f2b4e4565ee4"
        }
      }
    },
    {
      "fullUrl": "urn:uuid:a8e12e6a-5997-42f3-aa0e-e8871694d1f7",
      "resource": {
        "resourceType": "Observation",
        "id": "a8e12e6a-5997-42f3-aa0e-e8871694d1f7",
        "meta": {
          "profile": [
            "http://hl7.eu/fhir/laboratory/StructureDefinition/Observation-resultslab-eu-lab"
          ]
        },
        "performer": [
          {
            "display": "The Central European Lab"
          }
        ],
        "category": [
          {
            "coding": [
              {
                "system": "http://terminology.hl7.org/CodeSystem/observation-category",
                "code": "laboratory"
              }
            ]
          }
        ],
        "code": {
          "coding": [
            {
              "code": "5811-5",
              "system": "http://loinc.org",
              "display": "Specific gravity of Urine by Test strip"
            }
          ],
          "text": "Specific gravity of Urine by Test strip"
        },
        "valueQuantity": {
          "system": "http://unitsofmeasure.org",
          "value": 1,
          "unit": "{nominal}",
          "code": "{nominal}"
        },
        "referenceRange": [
          {
            "low": {
              "value": 1.005,
              "code": "g/mL",
              "system": "http://unitsofmeasure.org"
            }
          },
          {
            "high": {
              "value": 1.03,
              "code": "g/mL",
              "system": "http://unitsofmeasure.org"
            }
          }
        ],
        "interpretation": [
          {
            "coding": [
              {
                "code": "L",
                "system": "http://terminology.hl7.org/CodeSystem/v3-ObservationInterpretation",
                "display": "Low"
              }
            ]
          }
        ],
        "text": {
          "status": "generated",
          "div": "<div xmlns=\"http://www.w3.org/1999/xhtml\"><table class=\"hl7__eu__lab__report\"><tr><th>Test</th><th>15-Aug-2017</th><th>Reference&#xA0;Range</th><th>Unit</th></tr><tr><td>Specific gravity of Urine by Test strip</td><td>1.0</td><td>1.005 - 1.03</td><td>L</td><td>{nominal}</td></tr></table></div>"
        },
        "status": "final",
        "subject": {
          "reference": "urn:uuid:022f8237-be41-4547-804b-e0539622bd50",
          "display": "Meaghan Neary"
        },
        "effectiveDateTime": "2017-08-14T22:11:04Z",
        "specimen": {
          "reference": "urn:uuid:68d0131e-9492-4a11-a98b-f2b4e4565ee4"
        }
      }
    },
    {
      "fullUrl": "urn:uuid:5f56bae0-8169-4a57-8758-66894443a758",
      "resource": {
        "resourceType": "Observation",
        "id": "5f56bae0-8169-4a57-8758-66894443a758",
        "meta": {
          "profile": [
            "http://hl7.eu/fhir/laboratory/StructureDefinition/Observation-resultslab-eu-lab"
          ]
        },
        "performer": [
          {
            "display": "The Central European Lab"
          }
        ],
        "category": [
          {
            "coding": [
              {
                "system": "http://terminology.hl7.org/CodeSystem/observation-category",
                "code": "laboratory"
              }
            ]
          }
        ],
        "code": {
          "coding": [
            {
              "code": "5803-2",
              "system": "http://loinc.org",
              "display": "pH of Urine by Test strip"
            }
          ],
          "text": "pH of Urine by Test strip"
        },
        "valueQuantity": {
          "system": "http://unitsofmeasure.org",
          "value": 6.3,
          "unit": "pH",
          "code": "pH"
        },
        "referenceRange": [
          {
            "low": {
              "value": 4.6,
              "code": "pH",
              "system": "http://unitsofmeasure.org"
            }
          },
          {
            "high": {
              "value": 7,
              "code": "pH",
              "system": "http://unitsofmeasure.org"
            }
          }
        ],
        "text": {
          "status": "generated",
          "div": "<div xmlns=\"http://www.w3.org/1999/xhtml\"><table class=\"hl7__eu__lab__report\"><tr><th>Test</th><th>15-Aug-2017</th><th>Reference&#xA0;Range</th><th>Unit</th></tr><tr><td>pH of Urine by Test strip</td><td>6.3</td><td>4.6 - 7</td><td></td><td>pH</td></tr></table></div>"
        },
        "status": "final",
        "subject": {
          "reference": "urn:uuid:022f8237-be41-4547-804b-e0539622bd50",
          "display": "Meaghan Neary"
        },
        "effectiveDateTime": "2017-08-14T22:11:04Z",
        "specimen": {
          "reference": "urn:uuid:68d0131e-9492-4a11-a98b-f2b4e4565ee4"
        }
      }
    },
    {
      "fullUrl": "urn:uuid:d32a01df-3bdd-4689-9f12-3656a5f75c19",
      "resource": {
        "resourceType": "Observation",
        "id": "d32a01df-3bdd-4689-9f12-3656a5f75c19",
        "meta": {
          "profile": [
            "http://hl7.eu/fhir/laboratory/StructureDefinition/Observation-resultslab-eu-lab"
          ]
        },
        "performer": [
          {
            "display": "The Central European Lab"
          }
        ],
        "category": [
          {
            "coding": [
              {
                "system": "http://terminology.hl7.org/CodeSystem/observation-category",
                "code": "laboratory"
              }
            ]
          }
        ],
        "code": {
          "coding": [
            {
              "code": "5804-0",
              "system": "http://loinc.org",
              "display": "Protein [Mass/volume] in Urine by Test strip"
            }
          ],
          "text": "Protein [Mass/volume] in Urine by Test strip"
        },
        "valueQuantity": {
          "system": "http://unitsofmeasure.org",
          "value": 341.2,
          "unit": "mg/dL",
          "code": "mg/dL"
        },
        "referenceRange": [
          {
            "low": {
              "value": 0,
              "code": "mg/dL",
              "system": "http://unitsofmeasure.org"
            }
          },
          {
            "high": {
              "value": 14,
              "code": "mg/dL",
              "system": "http://unitsofmeasure.org"
            }
          }
        ],
        "interpretation": [
          {
            "coding": [
              {
                "code": "H",
                "system": "http://terminology.hl7.org/CodeSystem/v3-ObservationInterpretation",
                "display": "High"
              }
            ]
          }
        ],
        "text": {
          "status": "generated",
          "div": "<div xmlns=\"http://www.w3.org/1999/xhtml\"><table class=\"hl7__eu__lab__report\"><tr><th>Test</th><th>15-Aug-2017</th><th>Reference&#xA0;Range</th><th>Unit</th></tr><tr><td>Protein [Mass/volume] in Urine by Test strip</td><td>341.2</td><td>0 - 14</td><td>H</td><td>mg/dL</td></tr></table></div>"
        },
        "status": "final",
        "subject": {
          "reference": "urn:uuid:022f8237-be41-4547-804b-e0539622bd50",
          "display": "Meaghan Neary"
        },
        "effectiveDateTime": "2017-08-14T22:11:04Z",
        "specimen": {
          "reference": "urn:uuid:68d0131e-9492-4a11-a98b-f2b4e4565ee4"
        }
      }
    },
    {
      "fullUrl": "urn:uuid:db51bf56-1e10-4bca-8619-96f0d75056e3",
      "resource": {
        "resourceType": "Observation",
        "id": "db51bf56-1e10-4bca-8619-96f0d75056e3",
        "meta": {
          "profile": [
            "http://hl7.eu/fhir/laboratory/StructureDefinition/Observation-resultslab-eu-lab"
          ]
        },
        "performer": [
          {
            "display": "The Central European Lab"
          }
        ],
        "category": [
          {
            "coding": [
              {
                "system": "http://terminology.hl7.org/CodeSystem/observation-category",
                "code": "laboratory"
              }
            ]
          }
        ],
        "code": {
          "coding": [
            {
              "code": "20454-5",
              "system": "http://loinc.org",
              "display": "Protein [Presence] in Urine by Test strip"
            }
          ],
          "text": "Protein [Presence] in Urine by Test strip"
        },
        "text": {
          "status": "generated",
          "div": "<div xmlns=\"http://www.w3.org/1999/xhtml\"><table class=\"hl7__eu__lab__report\"><tr><th>Test</th><th>15-Aug-2017</th><th>Reference&#xA0;Range</th><th>Unit</th></tr><tr><td>Protein [Presence] in Urine by Test strip</td></tr></table></div>"
        },
        "status": "final",
        "subject": {
          "reference": "urn:uuid:022f8237-be41-4547-804b-e0539622bd50",
          "display": "Meaghan Neary"
        },
        "effectiveDateTime": "2017-08-14T22:11:04Z",
        "specimen": {
          "reference": "urn:uuid:68d0131e-9492-4a11-a98b-f2b4e4565ee4"
        }
      }
    },
    {
      "fullUrl": "urn:uuid:2f366d31-306d-49a2-9f50-ba37d375ff78",
      "resource": {
        "resourceType": "Observation",
        "id": "2f366d31-306d-49a2-9f50-ba37d375ff78",
        "meta": {
          "profile": [
            "http://hl7.eu/fhir/laboratory/StructureDefinition/Observation-resultslab-eu-lab"
          ]
        },
        "performer": [
          {
            "display": "The Central European Lab"
          }
        ],
        "category": [
          {
            "coding": [
              {
                "system": "http://terminology.hl7.org/CodeSystem/observation-category",
                "code": "laboratory"
              }
            ]
          }
        ],
        "code": {
          "coding": [
            {
              "code": "5802-4",
              "system": "http://loinc.org",
              "display": "Nitrite [Presence] in Urine by Test strip"
            }
          ],
          "text": "Nitrite [Presence] in Urine by Test strip"
        },
        "text": {
          "status": "generated",
          "div": "<div xmlns=\"http://www.w3.org/1999/xhtml\"><table class=\"hl7__eu__lab__report\"><tr><th>Test</th><th>15-Aug-2017</th><th>Reference&#xA0;Range</th><th>Unit</th></tr><tr><td>Nitrite [Presence] in Urine by Test strip</td></tr></table></div>"
        },
        "status": "final",
        "subject": {
          "reference": "urn:uuid:022f8237-be41-4547-804b-e0539622bd50",
          "display": "Meaghan Neary"
        },
        "effectiveDateTime": "2017-08-14T22:11:04Z",
        "specimen": {
          "reference": "urn:uuid:68d0131e-9492-4a11-a98b-f2b4e4565ee4"
        }
      }
    },
    {
      "fullUrl": "urn:uuid:7338cfc4-87d9-4345-82c8-30b997ff9b7e",
      "resource": {
        "resourceType": "Observation",
        "id": "7338cfc4-87d9-4345-82c8-30b997ff9b7e",
        "meta": {
          "profile": [
            "http://hl7.eu/fhir/laboratory/StructureDefinition/Observation-resultslab-eu-lab"
          ]
        },
        "performer": [
          {
            "display": "The Central European Lab"
          }
        ],
        "category": [
          {
            "coding": [
              {
                "system": "http://terminology.hl7.org/CodeSystem/observation-category",
                "code": "laboratory"
              }
            ]
          }
        ],
        "code": {
          "coding": [
            {
              "code": "5794-3",
              "system": "http://loinc.org",
              "display": "Hemoglobin [Presence] in Urine by Test strip"
            }
          ],
          "text": "Hemoglobin [Presence] in Urine by Test strip"
        },
        "text": {
          "status": "generated",
          "div": "<div xmlns=\"http://www.w3.org/1999/xhtml\"><table class=\"hl7__eu__lab__report\"><tr><th>Test</th><th>15-Aug-2017</th><th>Reference&#xA0;Range</th><th>Unit</th></tr><tr><td>Hemoglobin [Presence] in Urine by Test strip</td></tr></table></div>"
        },
        "status": "final",
        "subject": {
          "reference": "urn:uuid:022f8237-be41-4547-804b-e0539622bd50",
          "display": "Meaghan Neary"
        },
        "effectiveDateTime": "2017-08-14T22:11:04Z",
        "specimen": {
          "reference": "urn:uuid:68d0131e-9492-4a11-a98b-f2b4e4565ee4"
        }
      }
    },
    {
      "fullUrl": "urn:uuid:a3a6949c-4c11-4a73-a390-77f9adeb4343",
      "resource": {
        "resourceType": "Observation",
        "id": "a3a6949c-4c11-4a73-a390-77f9adeb4343",
        "meta": {
          "profile": [
            "http://hl7.eu/fhir/laboratory/StructureDefinition/Observation-resultslab-eu-lab"
          ]
        },
        "performer": [
          {
            "display": "The Central European Lab"
          }
        ],
        "category": [
          {
            "coding": [
              {
                "system": "http://terminology.hl7.org/CodeSystem/observation-category",
                "code": "laboratory"
              }
            ]
          }
        ],
        "code": {
          "coding": [
            {
              "code": "5799-2",
              "system": "http://loinc.org",
              "display": "Leukocyte esterase [Presence] in Urine by Test strip"
            }
          ],
          "text": "Leukocyte esterase [Presence] in Urine by Test strip"
        },
        "text": {
          "status": "generated",
          "div": "<div xmlns=\"http://www.w3.org/1999/xhtml\"><table class=\"hl7__eu__lab__report\"><tr><th>Test</th><th>15-Aug-2017</th><th>Reference&#xA0;Range</th><th>Unit</th></tr><tr><td>Leukocyte esterase [Presence] in Urine by Test strip</td></tr></table></div>"
        },
        "status": "final",
        "subject": {
          "reference": "urn:uuid:022f8237-be41-4547-804b-e0539622bd50",
          "display": "Meaghan Neary"
        },
        "effectiveDateTime": "2017-08-14T22:11:04Z",
        "specimen": {
          "reference": "urn:uuid:68d0131e-9492-4a11-a98b-f2b4e4565ee4"
        }
      }
    },
    {
      "fullUrl": "urn:uuid:549dea98-2ad7-40c8-9426-aaba8d84a083",
      "resource": {
        "resourceType": "Observation",
        "id": "549dea98-2ad7-40c8-9426-aaba8d84a083",
        "meta": {
          "profile": [
            "http://hl7.eu/fhir/laboratory/StructureDefinition/Observation-resultslab-eu-lab"
          ]
        },
        "performer": [
          {
            "display": "The Central European Lab"
          }
        ],
        "category": [
          {
            "coding": [
              {
                "system": "http://terminology.hl7.org/CodeSystem/observation-category",
                "code": "laboratory"
              }
            ]
          }
        ],
        "code": {
          "coding": [
            {
              "code": "4548-4",
              "system": "http://loinc.org",
              "display": "Hemoglobin A1c/Hemoglobin.total in Blood"
            }
          ],
          "text": "Hemoglobin A1c/Hemoglobin.total in Blood"
        },
        "valueQuantity": {
          "system": "http://unitsofmeasure.org",
          "value": 3.4,
          "unit": "%",
          "code": "%"
        },
        "referenceRange": [
          {
            "low": {
              "value": 4,
              "code": "%",
              "system": "http://unitsofmeasure.org"
            }
          },
          {
            "high": {
              "value": 6.4,
              "code": "%",
              "system": "http://unitsofmeasure.org"
            }
          }
        ],
        "interpretation": [
          {
            "coding": [
              {
                "code": "L",
                "system": "http://terminology.hl7.org/CodeSystem/v3-ObservationInterpretation",
                "display": "Low"
              }
            ]
          }
        ],
        "text": {
          "status": "generated",
          "div": "<div xmlns=\"http://www.w3.org/1999/xhtml\"><table class=\"hl7__eu__lab__report\"><tr><th>Test</th><th>15-Aug-2017</th><th>Reference&#xA0;Range</th><th>Unit</th></tr><tr><td>Hemoglobin A1c/Hemoglobin.total in Blood</td><td>3.4</td><td>4 - 6.4</td><td>L</td><td>%</td></tr></table></div>"
        },
        "status": "final",
        "subject": {
          "reference": "urn:uuid:022f8237-be41-4547-804b-e0539622bd50",
          "display": "Meaghan Neary"
        },
        "effectiveDateTime": "2017-08-14T22:11:04Z",
        "specimen": {
          "reference": "urn:uuid:82d5f455-6cf8-4952-b947-bc84b09dc430"
        }
      }
    },
    {
      "fullUrl": "urn:uuid:a9311e54-e994-460c-902f-a1750099679d",
      "resource": {
        "resourceType": "Observation",
        "id": "a9311e54-e994-460c-902f-a1750099679d",
        "meta": {
          "profile": [
            "http://hl7.eu/fhir/laboratory/StructureDefinition/Observation-resultslab-eu-lab"
          ]
        },
        "performer": [
          {
            "display": "The Central European Lab"
          }
        ],
        "category": [
          {
            "coding": [
              {
                "system": "http://terminology.hl7.org/CodeSystem/observation-category",
                "code": "laboratory"
              }
            ]
          }
        ],
        "code": {
          "coding": [
            {
              "code": "2339-0",
              "system": "http://loinc.org",
              "display": "Glucose [Mass/volume] in Blood"
            }
          ],
          "text": "Glucose [Mass/volume] in Blood"
        },
        "valueQuantity": {
          "system": "http://unitsofmeasure.org",
          "value": 68.1,
          "unit": "mg/dL",
          "code": "mg/dL"
        },
        "referenceRange": [
          {
            "low": {
              "value": 70,
              "code": "mg/dL",
              "system": "http://unitsofmeasure.org"
            }
          },
          {
            "high": {
              "value": 100,
              "code": "mg/dL",
              "system": "http://unitsofmeasure.org"
            }
          }
        ],
        "interpretation": [
          {
            "coding": [
              {
                "code": "L",
                "system": "http://terminology.hl7.org/CodeSystem/v3-ObservationInterpretation",
                "display": "Low"
              }
            ]
          }
        ],
        "text": {
          "status": "generated",
          "div": "<div xmlns=\"http://www.w3.org/1999/xhtml\"><table class=\"hl7__eu__lab__report\"><tr><th>Test</th><th>15-Aug-2017</th><th>Reference&#xA0;Range</th><th>Unit</th></tr><tr><td>Glucose [Mass/volume] in Blood</td><td>68.1</td><td>70 - 100</td><td>L</td><td>mg/dL</td></tr></table></div>"
        },
        "status": "final",
        "subject": {
          "reference": "urn:uuid:022f8237-be41-4547-804b-e0539622bd50",
          "display": "Meaghan Neary"
        },
        "effectiveDateTime": "2017-08-14T22:11:04Z",
        "specimen": {
          "reference": "urn:uuid:82d5f455-6cf8-4952-b947-bc84b09dc430"
        }
      }
    },
    {
      "fullUrl": "urn:uuid:ce1c39bb-2e12-443a-aacb-0d3ad2ec2e62",
      "resource": {
        "resourceType": "Observation",
        "id": "ce1c39bb-2e12-443a-aacb-0d3ad2ec2e62",
        "meta": {
          "profile": [
            "http://hl7.eu/fhir/laboratory/StructureDefinition/Observation-resultslab-eu-lab"
          ]
        },
        "performer": [
          {
            "display": "The Central European Lab"
          }
        ],
        "category": [
          {
            "coding": [
              {
                "system": "http://terminology.hl7.org/CodeSystem/observation-category",
                "code": "laboratory"
              }
            ]
          }
        ],
        "code": {
          "coding": [
            {
              "code": "6299-2",
              "system": "http://loinc.org",
              "display": "Urea nitrogen [Mass/volume] in Blood"
            }
          ],
          "text": "Urea nitrogen [Mass/volume] in Blood"
        },
        "valueQuantity": {
          "system": "http://unitsofmeasure.org",
          "value": 18.2,
          "unit": "mg/dL",
          "code": "mg/dL"
        },
        "referenceRange": [
          {
            "low": {
              "value": 7,
              "code": "mg/dL",
              "system": "http://unitsofmeasure.org"
            }
          },
          {
            "high": {
              "value": 43,
              "code": "mg/dL",
              "system": "http://unitsofmeasure.org"
            }
          }
        ],
        "text": {
          "status": "generated",
          "div": "<div xmlns=\"http://www.w3.org/1999/xhtml\"><table class=\"hl7__eu__lab__report\"><tr><th>Test</th><th>15-Aug-2017</th><th>Reference&#xA0;Range</th><th>Unit</th></tr><tr><td>Urea nitrogen [Mass/volume] in Blood</td><td>18.2</td><td>7 - 43</td><td></td><td>mg/dL</td></tr></table></div>"
        },
        "status": "final",
        "subject": {
          "reference": "urn:uuid:022f8237-be41-4547-804b-e0539622bd50",
          "display": "Meaghan Neary"
        },
        "effectiveDateTime": "2017-08-14T22:11:04Z",
        "specimen": {
          "reference": "urn:uuid:82d5f455-6cf8-4952-b947-bc84b09dc430"
        }
      }
    },
    {
      "fullUrl": "urn:uuid:a6efde5a-b5c9-42d0-8039-3cbfbd891d3d",
      "resource": {
        "resourceType": "Observation",
        "id": "a6efde5a-b5c9-42d0-8039-3cbfbd891d3d",
        "meta": {
          "profile": [
            "http://hl7.eu/fhir/laboratory/StructureDefinition/Observation-resultslab-eu-lab"
          ]
        },
        "performer": [
          {
            "display": "The Central European Lab"
          }
        ],
        "category": [
          {
            "coding": [
              {
                "system": "http://terminology.hl7.org/CodeSystem/observation-category",
                "code": "laboratory"
              }
            ]
          }
        ],
        "code": {
          "coding": [
            {
              "code": "38483-4",
              "system": "http://loinc.org",
              "display": "Creatinine [Mass/volume] in Blood"
            }
          ],
          "text": "Creatinine [Mass/volume] in Blood"
        },
        "valueQuantity": {
          "system": "http://unitsofmeasure.org",
          "value": 2.3,
          "unit": "mg/dL",
          "code": "mg/dL"
        },
        "referenceRange": [
          {
            "low": {
              "value": 0.6,
              "code": "mg/dL",
              "system": "http://unitsofmeasure.org"
            }
          },
          {
            "high": {
              "value": 1.1,
              "code": "mg/dL",
              "system": "http://unitsofmeasure.org"
            }
          }
        ],
        "interpretation": [
          {
            "coding": [
              {
                "code": "H",
                "system": "http://terminology.hl7.org/CodeSystem/v3-ObservationInterpretation",
                "display": "High"
              }
            ]
          }
        ],
        "text": {
          "status": "generated",
          "div": "<div xmlns=\"http://www.w3.org/1999/xhtml\"><table class=\"hl7__eu__lab__report\"><tr><th>Test</th><th>15-Aug-2017</th><th>Reference&#xA0;Range</th><th>Unit</th></tr><tr><td>Creatinine [Mass/volume] in Blood</td><td>2.3</td><td>0.6 - 1.1</td><td>H</td><td>mg/dL</td></tr></table></div>"
        },
        "status": "final",
        "subject": {
          "reference": "urn:uuid:022f8237-be41-4547-804b-e0539622bd50",
          "display": "Meaghan Neary"
        },
        "effectiveDateTime": "2017-08-14T22:11:04Z",
        "specimen": {
          "reference": "urn:uuid:82d5f455-6cf8-4952-b947-bc84b09dc430"
        }
      }
    },
    {
      "fullUrl": "urn:uuid:5e046d1b-2d6b-43ef-938a-17fa9e6bc7c8",
      "resource": {
        "resourceType": "Observation",
        "id": "5e046d1b-2d6b-43ef-938a-17fa9e6bc7c8",
        "meta": {
          "profile": [
            "http://hl7.eu/fhir/laboratory/StructureDefinition/Observation-resultslab-eu-lab"
          ]
        },
        "performer": [
          {
            "display": "The Central European Lab"
          }
        ],
        "category": [
          {
            "coding": [
              {
                "system": "http://terminology.hl7.org/CodeSystem/observation-category",
                "code": "laboratory"
              }
            ]
          }
        ],
        "code": {
          "coding": [
            {
              "code": "49765-1",
              "system": "http://loinc.org",
              "display": "Calcium [Mass/volume] in Blood"
            }
          ],
          "text": "Calcium [Mass/volume] in Blood"
        },
        "valueQuantity": {
          "system": "http://unitsofmeasure.org",
          "value": 9.1,
          "unit": "mg/dL",
          "code": "mg/dL"
        },
        "referenceRange": [
          {
            "low": {
              "value": 8.5,
              "code": "mg/dL",
              "system": "http://unitsofmeasure.org"
            }
          },
          {
            "high": {
              "value": 10.5,
              "code": "mg/dL",
              "system": "http://unitsofmeasure.org"
            }
          }
        ],
        "text": {
          "status": "generated",
          "div": "<div xmlns=\"http://www.w3.org/1999/xhtml\"><table class=\"hl7__eu__lab__report\"><tr><th>Test</th><th>15-Aug-2017</th><th>Reference&#xA0;Range</th><th>Unit</th></tr><tr><td>Calcium [Mass/volume] in Blood</td><td>9.1</td><td>8.5 - 10.5</td><td></td><td>mg/dL</td></tr></table></div>"
        },
        "status": "final",
        "subject": {
          "reference": "urn:uuid:022f8237-be41-4547-804b-e0539622bd50",
          "display": "Meaghan Neary"
        },
        "effectiveDateTime": "2017-08-14T22:11:04Z",
        "specimen": {
          "reference": "urn:uuid:82d5f455-6cf8-4952-b947-bc84b09dc430"
        }
      }
    },
    {
      "fullUrl": "urn:uuid:4aeccc21-e4c9-429b-a2ae-f3da5523efd3",
      "resource": {
        "resourceType": "Observation",
        "id": "4aeccc21-e4c9-429b-a2ae-f3da5523efd3",
        "meta": {
          "profile": [
            "http://hl7.eu/fhir/laboratory/StructureDefinition/Observation-resultslab-eu-lab"
          ]
        },
        "performer": [
          {
            "display": "The Central European Lab"
          }
        ],
        "category": [
          {
            "coding": [
              {
                "system": "http://terminology.hl7.org/CodeSystem/observation-category",
                "code": "laboratory"
              }
            ]
          }
        ],
        "code": {
          "coding": [
            {
              "code": "2947-0",
              "system": "http://loinc.org",
              "display": "Sodium [Moles/volume] in Blood"
            }
          ],
          "text": "Sodium [Moles/volume] in Blood"
        },
        "valueQuantity": {
          "system": "http://unitsofmeasure.org",
          "value": 137.8,
          "unit": "mmol/L",
          "code": "mmol/L"
        },
        "referenceRange": [
          {
            "low": {
              "value": 135,
              "code": "mmol/L",
              "system": "http://unitsofmeasure.org"
            }
          },
          {
            "high": {
              "value": 145,
              "code": "mmol/L",
              "system": "http://unitsofmeasure.org"
            }
          }
        ],
        "text": {
          "status": "generated",
          "div": "<div xmlns=\"http://www.w3.org/1999/xhtml\"><table class=\"hl7__eu__lab__report\"><tr><th>Test</th><th>15-Aug-2017</th><th>Reference&#xA0;Range</th><th>Unit</th></tr><tr><td>Sodium [Moles/volume] in Blood</td><td>137.8</td><td>135 - 145</td><td></td><td>mmol/L</td></tr></table></div>"
        },
        "status": "final",
        "subject": {
          "reference": "urn:uuid:022f8237-be41-4547-804b-e0539622bd50",
          "display": "Meaghan Neary"
        },
        "effectiveDateTime": "2017-08-14T22:11:04Z",
        "specimen": {
          "reference": "urn:uuid:82d5f455-6cf8-4952-b947-bc84b09dc430"
        }
      }
    },
    {
      "fullUrl": "urn:uuid:1bd30361-ebe8-476d-acb1-30ae84207f00",
      "resource": {
        "resourceType": "Observation",
        "id": "1bd30361-ebe8-476d-acb1-30ae84207f00",
        "meta": {
          "profile": [
            "http://hl7.eu/fhir/laboratory/StructureDefinition/Observation-resultslab-eu-lab"
          ]
        },
        "performer": [
          {
            "display": "The Central European Lab"
          }
        ],
        "category": [
          {
            "coding": [
              {
                "system": "http://terminology.hl7.org/CodeSystem/observation-category",
                "code": "laboratory"
              }
            ]
          }
        ],
        "code": {
          "coding": [
            {
              "code": "6298-4",
              "system": "http://loinc.org",
              "display": "Potassium [Moles/volume] in Blood"
            }
          ],
          "text": "Potassium [Moles/volume] in Blood"
        },
        "valueQuantity": {
          "system": "http://unitsofmeasure.org",
          "value": 4.2,
          "unit": "mmol/L",
          "code": "mmol/L"
        },
        "referenceRange": [
          {
            "low": {
              "value": 3.5,
              "code": "mmol/L",
              "system": "http://unitsofmeasure.org"
            }
          },
          {
            "high": {
              "value": 5.1,
              "code": "mmol/L",
              "system": "http://unitsofmeasure.org"
            }
          }
        ],
        "text": {
          "status": "generated",
          "div": "<div xmlns=\"http://www.w3.org/1999/xhtml\"><table class=\"hl7__eu__lab__report\"><tr><th>Test</th><th>15-Aug-2017</th><th>Reference&#xA0;Range</th><th>Unit</th></tr><tr><td>Potassium [Moles/volume] in Blood</td><td>4.2</td><td>3.5 - 5.1</td><td></td><td>mmol/L</td></tr></table></div>"
        },
        "status": "final",
        "subject": {
          "reference": "urn:uuid:022f8237-be41-4547-804b-e0539622bd50",
          "display": "Meaghan Neary"
        },
        "effectiveDateTime": "2017-08-14T22:11:04Z",
        "specimen": {
          "reference": "urn:uuid:82d5f455-6cf8-4952-b947-bc84b09dc430"
        }
      }
    },
    {
      "fullUrl": "urn:uuid:a33c5385-1386-460d-a931-959d69aa845c",
      "resource": {
        "resourceType": "Observation",
        "id": "a33c5385-1386-460d-a931-959d69aa845c",
        "meta": {
          "profile": [
            "http://hl7.eu/fhir/laboratory/StructureDefinition/Observation-resultslab-eu-lab"
          ]
        },
        "performer": [
          {
            "display": "The Central European Lab"
          }
        ],
        "category": [
          {
            "coding": [
              {
                "system": "http://terminology.hl7.org/CodeSystem/observation-category",
                "code": "laboratory"
              }
            ]
          }
        ],
        "code": {
          "coding": [
            {
              "code": "2069-3",
              "system": "http://loinc.org",
              "display": "Chloride [Moles/volume] in Blood"
            }
          ],
          "text": "Chloride [Moles/volume] in Blood"
        },
        "valueQuantity": {
          "system": "http://unitsofmeasure.org",
          "value": 108.4,
          "unit": "mmol/L",
          "code": "mmol/L"
        },
        "referenceRange": [
          {
            "low": {
              "value": 98,
              "code": "mmol/L",
              "system": "http://unitsofmeasure.org"
            }
          },
          {
            "high": {
              "value": 108,
              "code": "mmol/L",
              "system": "http://unitsofmeasure.org"
            }
          }
        ],
        "interpretation": [
          {
            "coding": [
              {
                "code": "H",
                "system": "http://terminology.hl7.org/CodeSystem/v3-ObservationInterpretation",
                "display": "High"
              }
            ]
          }
        ],
        "text": {
          "status": "generated",
          "div": "<div xmlns=\"http://www.w3.org/1999/xhtml\"><table class=\"hl7__eu__lab__report\"><tr><th>Test</th><th>15-Aug-2017</th><th>Reference&#xA0;Range</th><th>Unit</th></tr><tr><td>Chloride [Moles/volume] in Blood</td><td>108.4</td><td>98 - 108</td><td>H</td><td>mmol/L</td></tr></table></div>"
        },
        "status": "final",
        "subject": {
          "reference": "urn:uuid:022f8237-be41-4547-804b-e0539622bd50",
          "display": "Meaghan Neary"
        },
        "effectiveDateTime": "2017-08-14T22:11:04Z",
        "specimen": {
          "reference": "urn:uuid:82d5f455-6cf8-4952-b947-bc84b09dc430"
        }
      }
    },
    {
      "fullUrl": "urn:uuid:cba43519-55e6-4bf2-927a-184d0d54d65d",
      "resource": {
        "resourceType": "Observation",
        "id": "cba43519-55e6-4bf2-927a-184d0d54d65d",
        "meta": {
          "profile": [
            "http://hl7.eu/fhir/laboratory/StructureDefinition/Observation-resultslab-eu-lab"
          ]
        },
        "performer": [
          {
            "display": "The Central European Lab"
          }
        ],
        "category": [
          {
            "coding": [
              {
                "system": "http://terminology.hl7.org/CodeSystem/observation-category",
                "code": "laboratory"
              }
            ]
          }
        ],
        "code": {
          "coding": [
            {
              "code": "20565-8",
              "system": "http://loinc.org",
              "display": "Carbon dioxide, total [Moles/volume] in Blood"
            }
          ],
          "text": "Carbon dioxide, total [Moles/volume] in Blood"
        },
        "valueQuantity": {
          "system": "http://unitsofmeasure.org",
          "value": 27.7,
          "unit": "mmol/L",
          "code": "mmol/L"
        },
        "referenceRange": [
          {
            "low": {
              "value": 22,
              "code": "mmol/L",
              "system": "http://unitsofmeasure.org"
            }
          },
          {
            "high": {
              "value": 29,
              "code": "mmol/L",
              "system": "http://unitsofmeasure.org"
            }
          }
        ],
        "text": {
          "status": "generated",
          "div": "<div xmlns=\"http://www.w3.org/1999/xhtml\"><table class=\"hl7__eu__lab__report\"><tr><th>Test</th><th>15-Aug-2017</th><th>Reference&#xA0;Range</th><th>Unit</th></tr><tr><td>Carbon dioxide, total [Moles/volume] in Blood</td><td>27.7</td><td>22 - 29</td><td></td><td>mmol/L</td></tr></table></div>"
        },
        "status": "final",
        "subject": {
          "reference": "urn:uuid:022f8237-be41-4547-804b-e0539622bd50",
          "display": "Meaghan Neary"
        },
        "effectiveDateTime": "2017-08-14T22:11:04Z",
        "specimen": {
          "reference": "urn:uuid:82d5f455-6cf8-4952-b947-bc84b09dc430"
        }
      }
    },
    {
      "fullUrl": "urn:uuid:8bde2a9a-8b9a-4bdf-bae1-38b3d1301c5f",
      "resource": {
        "resourceType": "Device",
        "id": "8bde2a9a-8b9a-4bdf-bae1-38b3d1301c5f",
        "deviceName": [
          {
            "name": "SYNDERAI Synthetic Generator",
            "type": "manufacturer-name"
          }
        ],
        "version": [
          {
            "value": "5.0"
          }
        ],
        "text": {
          "status": "generated",
          "div": "<div xmlns=\"http://www.w3.org/1999/xhtml\">SYNDERAI Synthetic Generator v5.0</div>"
        },
        "status": "active\"",
        "distinctIdentifier": "synderai-generator-50",
        "manufacturer": "SYNDERAI Project"
      }
    },
    {
      "fullUrl": "urn:uuid:0ec7bb80-e5d0-4f46-8f82-6ccd105602a4",
      "resource": {
        "resourceType": "Provenance",
        "id": "0ec7bb80-e5d0-4f46-8f82-6ccd105602a4",
        "target": [
          {
            "reference": "Patient/022f8237-be41-4547-804b-e0539622bd50"
          },
          {
            "reference": "Bundle/882c1a53-1969-4646-96d1-0da0cff654aa"
          },
          {
            "reference": "Composition/4e25620c-5b6d-4301-bb8e-0b9f7038d3aa"
          },
          {
            "reference": "PractitionerRole/d639d76b-2842-4b93-86be-b284f3b2a1a4"
          },
          {
            "reference": "Practitioner/6a9191b9-2377-491b-9aba-7204cea3858a"
          },
          {
            "reference": "PractitionerRole/6e191278-071c-4e64-bcfb-00e478e94a72"
          },
          {
            "reference": "Organization/d068e87b-c2d0-47a7-adea-24147fe8f109"
          }
        ],
        "activity": {
          "text": "Synthetic Example Data Generation"
        },
        "policy": [
          "https://synderai.net/synderai-synthetic-data-policy"
        ],
        "agent": [
          {
            "type": {
              "text": "author"
            },
            "who": {
              "reference": "Device/8bde2a9a-8b9a-4bdf-bae1-38b3d1301c5f"
            }
          }
        ],
        "reason": [
          {
            "text": "Interoperability Testing and Training (non-clinical use)"
          }
        ],
        "text": {
          "status": "generated",
          "div": "<div xmlns=\"http://www.w3.org/1999/xhtml\">Provenance for SYNDERAI Synthetic Example Data Resource</div>"
        },
        "recorded": "2017-08-15T00:11:04Z"
      }
    },
    {
      "fullUrl": "urn:uuid:d639d76b-2842-4b93-86be-b284f3b2a1a4",
      "resource": {
        "resourceType": "PractitionerRole",
        "id": "d639d76b-2842-4b93-86be-b284f3b2a1a4",
        "meta": {
          "profile": [
            "http://hl7.eu/fhir/base/StructureDefinition/practitionerRole-eu"
          ]
        },
        "text": {
          "status": "generated",
          "div": "<div xmlns=\"http://www.w3.org/1999/xhtml\">Laboratory Role Id: d639d76b-2842-4b93-86be-b284f3b2a1a4</div>"
        },
        "practitioner": {
          "reference": "urn:uuid:6a9191b9-2377-491b-9aba-7204cea3858a"
        }
      }
    },
    {
      "fullUrl": "urn:uuid:6a9191b9-2377-491b-9aba-7204cea3858a",
      "resource": {
        "resourceType": "Practitioner",
        "id": "6a9191b9-2377-491b-9aba-7204cea3858a",
        "meta": {
          "profile": [
            "http://hl7.eu/fhir/base/StructureDefinition/practitioner-eu"
          ]
        },
        "identifier": [
          {
            "assigner": {
              "display": "HL7 Europe"
            },
            "system": "urn:oid:2.16.840.1.113883.2.51.999",
            "value": "5f057219-6fa8-467b-8605-d5ec978386e7"
          }
        ],
        "name": [
          {
            "prefix": [
              "dr"
            ],
            "given": [
              "Ex"
            ],
            "family": "Ample"
          }
        ],
        "address": [
          {
            "line": [
              "Laboratoire Central Européenne",
              "Boulevard du Jardin Botanique 32"
            ],
            "postalCode": "1000",
            "city": "Brussels",
            "country": "Belgium"
          }
        ],
        "text": {
          "status": "generated",
          "div": "<div xmlns=\"http://www.w3.org/1999/xhtml\">Laboratory: Laboratoire Central Européenne, 1000 Brussels, Belgium</div>"
        }
      }
    }
  ],
  "type": "document",
  "timestamp": "2017-08-15T00:11:04Z"
}
