{
  "resourceType": "Bundle",
  "id": "3ba1bdca-a1b9-48c8-8104-d63921947105",
  "meta": {
    "profile": [
      "http://hl7.eu/fhir/laboratory/StructureDefinition/Bundle-eu-lab"
    ]
  },
  "identifier": {
    "assigner": {
      "display": "HL7 Europe"
    },
    "system": "urn:oid:2.16.840.1.113883.2.51.999",
    "value": "e3d7f408-54b7-486d-8732-dac692d1b7dd"
  },
  "entry": [
    {
      "fullUrl": "urn:uuid:2e578b24-141c-45b1-9894-3a926c2e79ed",
      "resource": {
        "resourceType": "Composition",
        "id": "2e578b24-141c-45b1-9894-3a926c2e79ed",
        "meta": {
          "profile": [
            "http://hl7.eu/fhir/laboratory/StructureDefinition/Composition-eu-lab"
          ]
        },
        "identifier": {
          "assigner": {
            "display": "HL7 Europe"
          },
          "system": "urn:oid:2.16.840.1.113883.2.51.999",
          "value": "06fbc62a-fa6e-4cab-955e-f296b20ea57b"
        },
        "author": [
          {
            "reference": "urn:uuid:bcdbdaa4-6c3c-41d4-941a-19dfa5ba9421"
          }
        ],
        "category": [
          {
            "coding": [
              {
                "code": "26436-6",
                "system": "http://loinc.org",
                "display": "Laboratory studies (set)"
              }
            ]
          }
        ],
        "type": {
          "coding": [
            {
              "code": "11502-2",
              "system": "http://loinc.org",
              "display": "Laboratory report"
            }
          ],
          "text": "Laboratory Report"
        },
        "section": [
          {
            "code": {
              "coding": [
                {
                  "code": "26436-6",
                  "system": "http://loinc.org",
                  "display": "Laboratory studies (set)"
                }
              ],
              "text": "Laboratory studies"
            },
            "section": [
              {
                "code": {
                  "coding": [
                    {
                      "code": "$18719-5",
                      "system": "http://loinc.org",
                      "display": "Chemistry studies (set)"
                    }
                  ],
                  "text": "Chemistry"
                },
                "entry": [
                  {
                    "reference": "urn:uuid:525be186-d698-41e3-ab8d-d4fa2cc930cc"
                  },
                  {
                    "reference": "urn:uuid:1d4ed396-cc04-46b3-ac5c-8d498fd17512"
                  },
                  {
                    "reference": "urn:uuid:8a77776d-ff54-4562-af55-73f05b4011e6"
                  },
                  {
                    "reference": "urn:uuid:1b173f73-060c-40c6-915e-fa5708fb2c94"
                  },
                  {
                    "reference": "urn:uuid:c266bbc6-45d5-4df3-8f47-bd0b30d664ce"
                  },
                  {
                    "reference": "urn:uuid:32460ecf-82e9-4db2-9204-9ccfd87beb83"
                  },
                  {
                    "reference": "urn:uuid:e402d593-f348-4d8f-81c6-19bbe4f9f3f2"
                  },
                  {
                    "reference": "urn:uuid:d3b9e7a2-feac-4c6d-807f-baf764c8b67b"
                  },
                  {
                    "reference": "urn:uuid:d373d9eb-a9e5-402c-a3fa-7c33e46f495f"
                  },
                  {
                    "reference": "urn:uuid:7ba35806-3ada-4200-ae0d-8fa258122b97"
                  },
                  {
                    "reference": "urn:uuid:23f5d22e-d67a-4c4f-8a02-f512a0e63005"
                  },
                  {
                    "reference": "urn:uuid:2d1e3b66-efaa-4853-8e9c-800fb05d8554"
                  },
                  {
                    "reference": "urn:uuid:33327f3a-69ef-4dc9-b928-064a635646cc"
                  }
                ],
                "text": {
                  "status": "generated",
                  "div": "<div xmlns=\"http://www.w3.org/1999/xhtml\"><h3>Chemistry</h3><table class=\"hl7__eu__lab__report\"><thead><tr><th>Test</th><th>22-NOV-2016</th><th>Reference&#xA0;Range</th><th>Unit</th></tr></thead><tbody><tr><td>Hemoglobin A1c/Hemoglobin.total in Blood</td><td><strong>6.2 H</strong></td><td>4.8 - 5.7</td><td>%</td></tr><tr><td>Glucose [Mass/volume] in Blood</td><td><strong>69.4 L</strong></td><td>70 - 99</td><td>mg/dL</td></tr><tr><td>Urea nitrogen [Mass/volume] in Blood</td><td>19.3</td><td>7 - 20</td><td>mg/dL</td></tr><tr><td>Creatinine [Mass/volume] in Blood</td><td>0.9</td><td>0.6 - 1.1</td><td>mg/dL</td></tr><tr><td>Calcium [Mass/volume] in Blood</td><td>8.7</td><td>8.5 - 10.5</td><td>mg/dL</td></tr><tr><td>Sodium [Moles/volume] in Blood</td><td>142.7</td><td>135 - 145</td><td>mmol/L</td></tr><tr><td>Potassium [Moles/volume] in Blood</td><td>5.0</td><td>3.5 - 5.3</td><td>mmol/L</td></tr><tr><td>Chloride [Moles/volume] in Blood</td><td>106.1</td><td>98 - 114</td><td>mmol/L</td></tr><tr><td>Carbon dioxide, total [Moles/volume] in Blood</td><td>22.9</td><td>22 - 29</td><td>mmol/L</td></tr><tr><td>Cholesterol [Mass/volume] in Serum or Plasma</td><td>146.5</td><td>125 - 200</td><td>mg/dL</td></tr><tr><td>Triglyceride [Mass/volume] in Serum or Plasma</td><td>135.6</td><td>35 - 150</td><td>mg/dL</td></tr><tr><td>Cholesterol in LDL [Mass/volume] in Serum or Plasma by Direct assay</td><td>63.6</td><td>0 - 130</td><td>mg/dL</td></tr><tr><td>Cholesterol in HDL [Mass/volume] in Serum or Plasma</td><td>55.8</td><td>40 - 60</td><td>mg/dL</td></tr></tbody></table></div>"
                },
                "title": "Chemistry"
              }
            ],
            "title": "Laboratory Report"
          },
          {
            "text": {
              "status": "generated",
              "div": "<div xmlns=\"http://www.w3.org/1999/xhtml\"><h3>Annotation</h3><table class=\"hl7__eu__lab__report\"><tr><th>Conclusion and Recommendations based on this report and previous findings known to us</th></tr><tr><td>The patient shows mildly elevated HbA1c, indicating impaired glucose regulation or possible early diabetes, despite a slightly low fasting glucose. Renal function, electrolytes, and lipid profile are within normal limits. Recommend further evaluation for glucose metabolism and monitoring for diabetes risk; no acute abnormalities detected in other parameters.</td></tr></table></div>"
            },
            "code": {
              "coding": [
                {
                  "system": "http://loinc.org",
                  "code": "48767-8",
                  "display": "Annotation comment"
                }
              ]
            },
            "title": "Annotation comment"
          }
        ],
        "status": "final",
        "subject": {
          "reference": "urn:uuid:8c37038d-0844-4cbb-8bae-188cbd5b8cc6",
          "display": "Aniela Sacharczuk"
        },
        "date": "2016-11-22T06:26:59Z",
        "title": "Laboratory Report",
        "confidentiality": "N"
      }
    },
    {
      "fullUrl": "urn:uuid:7be072b8-5f1e-41b6-96f2-ba5d0434ee89",
      "resource": {
        "resourceType": "DiagnosticReport",
        "id": "7be072b8-5f1e-41b6-96f2-ba5d0434ee89",
        "meta": {
          "profile": [
            "http://hl7.eu/fhir/laboratory/StructureDefinition/DiagnosticReport-eu-lab"
          ]
        },
        "identifier": [
          {
            "assigner": {
              "display": "HL7 Europe"
            },
            "system": "urn:oid:2.16.840.1.113883.2.51.999",
            "value": "6566698c-fc92-433d-bf73-607e6957746e"
          }
        ],
        "extension": [
          {
            "url": "http://hl7.org/fhir/5.0/StructureDefinition/extension-DiagnosticReport.composition",
            "valueReference": {
              "reference": "urn:uuid:06fbc62a-fa6e-4cab-955e-f296b20ea57b"
            }
          }
        ],
        "category": [
          {
            "coding": [
              {
                "code": "26436-6",
                "system": "http://loinc.org",
                "display": "Laboratory studies (set)"
              }
            ]
          }
        ],
        "specimen": [
          {
            "reference": "urn:uuid:a278a977-ebe8-4f44-b26a-497ed38eb47b"
          },
          {
            "reference": "urn:uuid:f66db3bf-9b0c-4225-bfe5-7f18bc1263cd"
          }
        ],
        "result": [
          {
            "reference": "urn:uuid:525be186-d698-41e3-ab8d-d4fa2cc930cc"
          },
          {
            "reference": "urn:uuid:1d4ed396-cc04-46b3-ac5c-8d498fd17512"
          },
          {
            "reference": "urn:uuid:8a77776d-ff54-4562-af55-73f05b4011e6"
          },
          {
            "reference": "urn:uuid:1b173f73-060c-40c6-915e-fa5708fb2c94"
          },
          {
            "reference": "urn:uuid:c266bbc6-45d5-4df3-8f47-bd0b30d664ce"
          },
          {
            "reference": "urn:uuid:32460ecf-82e9-4db2-9204-9ccfd87beb83"
          },
          {
            "reference": "urn:uuid:e402d593-f348-4d8f-81c6-19bbe4f9f3f2"
          },
          {
            "reference": "urn:uuid:d3b9e7a2-feac-4c6d-807f-baf764c8b67b"
          },
          {
            "reference": "urn:uuid:d373d9eb-a9e5-402c-a3fa-7c33e46f495f"
          },
          {
            "reference": "urn:uuid:7ba35806-3ada-4200-ae0d-8fa258122b97"
          },
          {
            "reference": "urn:uuid:23f5d22e-d67a-4c4f-8a02-f512a0e63005"
          },
          {
            "reference": "urn:uuid:2d1e3b66-efaa-4853-8e9c-800fb05d8554"
          },
          {
            "reference": "urn:uuid:33327f3a-69ef-4dc9-b928-064a635646cc"
          }
        ],
        "status": "registered",
        "code": {
          "coding": [
            {
              "code": "11502-2",
              "system": "http://loinc.org",
              "display": "Laboratory report"
            }
          ]
        },
        "subject": {
          "reference": "urn:uuid:8c37038d-0844-4cbb-8bae-188cbd5b8cc6",
          "display": "Aniela Sacharczuk"
        }
      }
    },
    {
      "fullUrl": "urn:uuid:8c37038d-0844-4cbb-8bae-188cbd5b8cc6",
      "resource": {
        "resourceType": "Patient",
        "id": "8c37038d-0844-4cbb-8bae-188cbd5b8cc6",
        "meta": {
          "security": [
            {
              "system": "http://terminology.hl7.org/CodeSystem/v3-ActReason",
              "code": "HTEST"
            },
            {
              "system": "http://terminology.hl7.org/CodeSystem/v3-ActReason",
              "code": "TRAIN"
            }
          ],
          "tag": [
            {
              "system": "https://synderai.net/fhir/CodeSystem/tags",
              "code": "synthetic",
              "display": "SYNDERAI Synthetic data"
            }
          ],
          "profile": [
            "http://hl7.eu/fhir/base/StructureDefinition/patient-eu-core"
          ]
        },
        "identifier": [
          {
            "type": {
              "coding": [
                {
                  "code": "PT",
                  "system": "http://terminology.hl7.org/CodeSystem/v2-0203"
                }
              ]
            },
            "system": "http://ec.europa.eu/identifier/eci",
            "value": "3843-787162-7"
          },
          {
            "type": {
              "coding": [
                {
                  "code": "MR",
                  "system": "http://terminology.hl7.org/CodeSystem/v2-0203"
                }
              ]
            },
            "system": "http://local.setting.eu/identifier",
            "value": "cd2e7aac-e2c0-8306-b862-9ed4c443c8b5"
          }
        ],
        "name": [
          {
            "family": "Sacharczuk"
          },
          {
            "given": [
              "Aniela"
            ]
          },
          {
            "text": "Aniela Sacharczuk"
          }
        ],
        "address": [
          {
            "line": [
              "plac Szpitalna 13"
            ],
            "use": "home",
            "type": "physical",
            "postalCode": "27-600",
            "city": "Sandomierz",
            "country": "Poland"
          }
        ],
        "telecom": [
          {
            "system": "phone",
            "value": "+48 536 227 035"
          }
        ],
        "extension": [
          {
            "url": "http://hl7.org/fhir/StructureDefinition/patient-nationality",
            "valueCodeableConcept": {
              "coding": [
                {
                  "code": "PL",
                  "system": "http://hl7.org/fhir/ValueSet/country"
                }
              ]
            }
          }
        ],
        "text": {
          "status": "generated",
          "div": "<div xmlns=\"http://www.w3.org/1999/xhtml\"><table class=\"hl7__ips\"><tr><td>Aniela Sacharczuk</td><td>female</td><td>02-Nov-1970</td></tr></table></div>"
        },
        "gender": "female",
        "birthDate": "1970-11-02"
      }
    },
    {
      "fullUrl": "urn:uuid:7c7646d2-9cee-4bac-82e5-1ee09a5cb623",
      "resource": {
        "resourceType": "ServiceRequest",
        "id": "7c7646d2-9cee-4bac-82e5-1ee09a5cb623",
        "meta": {
          "profile": [
            "http://hl7.eu/fhir/laboratory/StructureDefinition/ServiceRequest-eu-lab"
          ]
        },
        "identifier": [
          {
            "system": "http://example.org",
            "value": "aa06f75d-464b-4401-8c44-e938994f28d0"
          }
        ],
        "specimen": [
          {
            "reference": "urn:uuid:a278a977-ebe8-4f44-b26a-497ed38eb47b"
          },
          {
            "reference": "urn:uuid:f66db3bf-9b0c-4225-bfe5-7f18bc1263cd"
          }
        ],
        "reasonCode": [
          {
            "coding": [
              {
                "code": "237602007",
                "system": "http://snomed.info/sct",
                "display": "Metabolic syndrome X"
              }
            ]
          },
          {
            "coding": [
              {
                "code": "15777000",
                "system": "http://snomed.info/sct",
                "display": "Prediabetes"
              }
            ]
          },
          {
            "coding": [
              {
                "code": "59621000",
                "system": "http://snomed.info/sct",
                "display": "Essential hypertension"
              }
            ]
          }
        ],
        "status": "active",
        "intent": "order",
        "code": {
          "coding": [
            {
              "code": "108252007",
              "system": "http://snomed.info/sct",
              "display": "Laboratory procedure"
            }
          ]
        },
        "subject": {
          "reference": "urn:uuid:8c37038d-0844-4cbb-8bae-188cbd5b8cc6",
          "display": "Aniela Sacharczuk"
        },
        "requester": {
          "reference": "urn:uuid:b6ef44f2-baac-44e7-9e73-874f5ab1571e"
        }
      }
    },
    {
      "fullUrl": "urn:uuid:b6ef44f2-baac-44e7-9e73-874f5ab1571e",
      "resource": {
        "resourceType": "PractitionerRole",
        "id": "b6ef44f2-baac-44e7-9e73-874f5ab1571e",
        "meta": {
          "profile": [
            "http://hl7.eu/fhir/base/StructureDefinition/practitionerRole-eu"
          ]
        },
        "text": {
          "status": "generated",
          "div": "<div xmlns=\"http://www.w3.org/1999/xhtml\">Provider Role Id: b6ef44f2-baac-44e7-9e73-874f5ab1571e</div>"
        },
        "organization": {
          "reference": "urn:uuid:46cf9cbd-003b-4ec4-a54c-ef0dc0a26dea"
        }
      }
    },
    {
      "fullUrl": "urn:uuid:46cf9cbd-003b-4ec4-a54c-ef0dc0a26dea",
      "resource": {
        "resourceType": "Organization",
        "id": "46cf9cbd-003b-4ec4-a54c-ef0dc0a26dea",
        "meta": {
          "profile": [
            "http://hl7.eu/fhir/base/StructureDefinition/organization-eu"
          ]
        },
        "identifier": [
          {
            "assigner": {
              "display": "HL7 Europe"
            },
            "system": "urn:oid:2.16.840.1.113883.2.51.999",
            "value": "dcddbe53-3f41-4cd6-91a5-84912ac37db9"
          }
        ],
        "address": [
          {
            "line": [
              "Józefa Piłsudskiego 17"
            ],
            "city": "Gorzyce",
            "postalCode": "39-432",
            "country": "Poland"
          }
        ],
        "text": {
          "status": "generated",
          "div": "<div xmlns=\"http://www.w3.org/1999/xhtml\">Provider Organization: Ośrodek Zdrowia</div>"
        },
        "name": "Ośrodek Zdrowia"
      }
    },
    {
      "fullUrl": "urn:uuid:a278a977-ebe8-4f44-b26a-497ed38eb47b",
      "resource": {
        "resourceType": "Specimen",
        "id": "a278a977-ebe8-4f44-b26a-497ed38eb47b",
        "meta": {
          "profile": [
            "http://hl7.eu/fhir/laboratory/StructureDefinition/Specimen-eu-lab"
          ]
        },
        "collection": {
          "collectedDateTime": "2016-11-22"
        },
        "text": {
          "status": "generated",
          "div": "<div xmlns=\"http://www.w3.org/1999/xhtml\"><table class=\"hl7__eu__lab__report\"><tr><th>Specimen</th><th>Collection Date</th></tr><tr><td>Whole blood specimen (specimen)</td><td><span class=\"nb\">22-Nov-2016</span></td></tr></table></div>"
        },
        "type": {
          "coding": [
            {
              "code": "258580003",
              "system": "http://snomed.info/sct",
              "display": "Whole blood specimen (specimen)"
            }
          ]
        }
      }
    },
    {
      "fullUrl": "urn:uuid:f66db3bf-9b0c-4225-bfe5-7f18bc1263cd",
      "resource": {
        "resourceType": "Specimen",
        "id": "f66db3bf-9b0c-4225-bfe5-7f18bc1263cd",
        "meta": {
          "profile": [
            "http://hl7.eu/fhir/laboratory/StructureDefinition/Specimen-eu-lab"
          ]
        },
        "collection": {
          "collectedDateTime": "2016-11-22"
        },
        "text": {
          "status": "generated",
          "div": "<div xmlns=\"http://www.w3.org/1999/xhtml\"><table class=\"hl7__eu__lab__report\"><tr><th>Specimen</th><th>Collection Date</th></tr><tr><td>Acellular blood (serum or plasma) specimen</td><td><span class=\"nb\">22-Nov-2016</span></td></tr></table></div>"
        },
        "type": {
          "coding": [
            {
              "code": "122592007",
              "system": "http://snomed.info/sct",
              "display": "Acellular blood (serum or plasma) specimen"
            }
          ]
        }
      }
    },
    {
      "fullUrl": "urn:uuid:525be186-d698-41e3-ab8d-d4fa2cc930cc",
      "resource": {
        "resourceType": "Observation",
        "id": "525be186-d698-41e3-ab8d-d4fa2cc930cc",
        "meta": {
          "profile": [
            "http://hl7.eu/fhir/laboratory/StructureDefinition/Observation-resultslab-eu-lab"
          ]
        },
        "performer": [
          {
            "display": "The Central European Lab"
          }
        ],
        "category": [
          {
            "coding": [
              {
                "system": "http://terminology.hl7.org/CodeSystem/observation-category",
                "code": "laboratory"
              }
            ]
          }
        ],
        "code": {
          "coding": [
            {
              "code": "4548-4",
              "system": "http://loinc.org",
              "display": "Hemoglobin A1c/Hemoglobin.total in Blood"
            }
          ],
          "text": "Hemoglobin A1c/Hemoglobin.total in Blood"
        },
        "valueQuantity": {
          "system": "http://unitsofmeasure.org",
          "value": 6.2,
          "unit": "%",
          "code": "%"
        },
        "referenceRange": [
          {
            "low": {
              "value": 4.8,
              "code": "%",
              "system": "http://unitsofmeasure.org"
            }
          },
          {
            "high": {
              "value": 5.7,
              "code": "%",
              "system": "http://unitsofmeasure.org"
            }
          }
        ],
        "interpretation": [
          {
            "coding": [
              {
                "code": "H",
                "system": "http://terminology.hl7.org/CodeSystem/v3-ObservationInterpretation",
                "display": "High"
              }
            ]
          }
        ],
        "text": {
          "status": "generated",
          "div": "<div xmlns=\"http://www.w3.org/1999/xhtml\"><table class=\"hl7__eu__lab__report\"><tr><th>Test</th><th>22-Nov-2016</th><th>Reference&#xA0;Range</th><th>Unit</th></tr><tr><td>Hemoglobin A1c/Hemoglobin.total in Blood</td><td>6.2</td><td>4.8 - 5.7</td><td>H</td><td>%</td></tr></table></div>"
        },
        "status": "final",
        "subject": {
          "reference": "urn:uuid:8c37038d-0844-4cbb-8bae-188cbd5b8cc6",
          "display": "Aniela Sacharczuk"
        },
        "effectiveDateTime": "2016-11-22T05:26:59Z",
        "specimen": {
          "reference": "urn:uuid:a278a977-ebe8-4f44-b26a-497ed38eb47b"
        }
      }
    },
    {
      "fullUrl": "urn:uuid:1d4ed396-cc04-46b3-ac5c-8d498fd17512",
      "resource": {
        "resourceType": "Observation",
        "id": "1d4ed396-cc04-46b3-ac5c-8d498fd17512",
        "meta": {
          "profile": [
            "http://hl7.eu/fhir/laboratory/StructureDefinition/Observation-resultslab-eu-lab"
          ]
        },
        "performer": [
          {
            "display": "The Central European Lab"
          }
        ],
        "category": [
          {
            "coding": [
              {
                "system": "http://terminology.hl7.org/CodeSystem/observation-category",
                "code": "laboratory"
              }
            ]
          }
        ],
        "code": {
          "coding": [
            {
              "code": "2339-0",
              "system": "http://loinc.org",
              "display": "Glucose [Mass/volume] in Blood"
            }
          ],
          "text": "Glucose [Mass/volume] in Blood"
        },
        "valueQuantity": {
          "system": "http://unitsofmeasure.org",
          "value": 69.4,
          "unit": "mg/dL",
          "code": "mg/dL"
        },
        "referenceRange": [
          {
            "low": {
              "value": 70,
              "code": "mg/dL",
              "system": "http://unitsofmeasure.org"
            }
          },
          {
            "high": {
              "value": 99,
              "code": "mg/dL",
              "system": "http://unitsofmeasure.org"
            }
          }
        ],
        "interpretation": [
          {
            "coding": [
              {
                "code": "L",
                "system": "http://terminology.hl7.org/CodeSystem/v3-ObservationInterpretation",
                "display": "Low"
              }
            ]
          }
        ],
        "text": {
          "status": "generated",
          "div": "<div xmlns=\"http://www.w3.org/1999/xhtml\"><table class=\"hl7__eu__lab__report\"><tr><th>Test</th><th>22-Nov-2016</th><th>Reference&#xA0;Range</th><th>Unit</th></tr><tr><td>Glucose [Mass/volume] in Blood</td><td>69.4</td><td>70 - 99</td><td>L</td><td>mg/dL</td></tr></table></div>"
        },
        "status": "final",
        "subject": {
          "reference": "urn:uuid:8c37038d-0844-4cbb-8bae-188cbd5b8cc6",
          "display": "Aniela Sacharczuk"
        },
        "effectiveDateTime": "2016-11-22T05:26:59Z",
        "specimen": {
          "reference": "urn:uuid:a278a977-ebe8-4f44-b26a-497ed38eb47b"
        }
      }
    },
    {
      "fullUrl": "urn:uuid:8a77776d-ff54-4562-af55-73f05b4011e6",
      "resource": {
        "resourceType": "Observation",
        "id": "8a77776d-ff54-4562-af55-73f05b4011e6",
        "meta": {
          "profile": [
            "http://hl7.eu/fhir/laboratory/StructureDefinition/Observation-resultslab-eu-lab"
          ]
        },
        "performer": [
          {
            "display": "The Central European Lab"
          }
        ],
        "category": [
          {
            "coding": [
              {
                "system": "http://terminology.hl7.org/CodeSystem/observation-category",
                "code": "laboratory"
              }
            ]
          }
        ],
        "code": {
          "coding": [
            {
              "code": "6299-2",
              "system": "http://loinc.org",
              "display": "Urea nitrogen [Mass/volume] in Blood"
            }
          ],
          "text": "Urea nitrogen [Mass/volume] in Blood"
        },
        "valueQuantity": {
          "system": "http://unitsofmeasure.org",
          "value": 19.3,
          "unit": "mg/dL",
          "code": "mg/dL"
        },
        "referenceRange": [
          {
            "low": {
              "value": 7,
              "code": "mg/dL",
              "system": "http://unitsofmeasure.org"
            }
          },
          {
            "high": {
              "value": 20,
              "code": "mg/dL",
              "system": "http://unitsofmeasure.org"
            }
          }
        ],
        "text": {
          "status": "generated",
          "div": "<div xmlns=\"http://www.w3.org/1999/xhtml\"><table class=\"hl7__eu__lab__report\"><tr><th>Test</th><th>22-Nov-2016</th><th>Reference&#xA0;Range</th><th>Unit</th></tr><tr><td>Urea nitrogen [Mass/volume] in Blood</td><td>19.3</td><td>7 - 20</td><td></td><td>mg/dL</td></tr></table></div>"
        },
        "status": "final",
        "subject": {
          "reference": "urn:uuid:8c37038d-0844-4cbb-8bae-188cbd5b8cc6",
          "display": "Aniela Sacharczuk"
        },
        "effectiveDateTime": "2016-11-22T05:26:59Z",
        "specimen": {
          "reference": "urn:uuid:a278a977-ebe8-4f44-b26a-497ed38eb47b"
        }
      }
    },
    {
      "fullUrl": "urn:uuid:1b173f73-060c-40c6-915e-fa5708fb2c94",
      "resource": {
        "resourceType": "Observation",
        "id": "1b173f73-060c-40c6-915e-fa5708fb2c94",
        "meta": {
          "profile": [
            "http://hl7.eu/fhir/laboratory/StructureDefinition/Observation-resultslab-eu-lab"
          ]
        },
        "performer": [
          {
            "display": "The Central European Lab"
          }
        ],
        "category": [
          {
            "coding": [
              {
                "system": "http://terminology.hl7.org/CodeSystem/observation-category",
                "code": "laboratory"
              }
            ]
          }
        ],
        "code": {
          "coding": [
            {
              "code": "38483-4",
              "system": "http://loinc.org",
              "display": "Creatinine [Mass/volume] in Blood"
            }
          ],
          "text": "Creatinine [Mass/volume] in Blood"
        },
        "valueQuantity": {
          "system": "http://unitsofmeasure.org",
          "value": 0.9,
          "unit": "mg/dL",
          "code": "mg/dL"
        },
        "referenceRange": [
          {
            "low": {
              "value": 0.6,
              "code": "mg/dL",
              "system": "http://unitsofmeasure.org"
            }
          },
          {
            "high": {
              "value": 1.1,
              "code": "mg/dL",
              "system": "http://unitsofmeasure.org"
            }
          }
        ],
        "text": {
          "status": "generated",
          "div": "<div xmlns=\"http://www.w3.org/1999/xhtml\"><table class=\"hl7__eu__lab__report\"><tr><th>Test</th><th>22-Nov-2016</th><th>Reference&#xA0;Range</th><th>Unit</th></tr><tr><td>Creatinine [Mass/volume] in Blood</td><td>0.9</td><td>0.6 - 1.1</td><td></td><td>mg/dL</td></tr></table></div>"
        },
        "status": "final",
        "subject": {
          "reference": "urn:uuid:8c37038d-0844-4cbb-8bae-188cbd5b8cc6",
          "display": "Aniela Sacharczuk"
        },
        "effectiveDateTime": "2016-11-22T05:26:59Z",
        "specimen": {
          "reference": "urn:uuid:a278a977-ebe8-4f44-b26a-497ed38eb47b"
        }
      }
    },
    {
      "fullUrl": "urn:uuid:c266bbc6-45d5-4df3-8f47-bd0b30d664ce",
      "resource": {
        "resourceType": "Observation",
        "id": "c266bbc6-45d5-4df3-8f47-bd0b30d664ce",
        "meta": {
          "profile": [
            "http://hl7.eu/fhir/laboratory/StructureDefinition/Observation-resultslab-eu-lab"
          ]
        },
        "performer": [
          {
            "display": "The Central European Lab"
          }
        ],
        "category": [
          {
            "coding": [
              {
                "system": "http://terminology.hl7.org/CodeSystem/observation-category",
                "code": "laboratory"
              }
            ]
          }
        ],
        "code": {
          "coding": [
            {
              "code": "49765-1",
              "system": "http://loinc.org",
              "display": "Calcium [Mass/volume] in Blood"
            }
          ],
          "text": "Calcium [Mass/volume] in Blood"
        },
        "valueQuantity": {
          "system": "http://unitsofmeasure.org",
          "value": 8.7,
          "unit": "mg/dL",
          "code": "mg/dL"
        },
        "referenceRange": [
          {
            "low": {
              "value": 8.5,
              "code": "mg/dL",
              "system": "http://unitsofmeasure.org"
            }
          },
          {
            "high": {
              "value": 10.5,
              "code": "mg/dL",
              "system": "http://unitsofmeasure.org"
            }
          }
        ],
        "text": {
          "status": "generated",
          "div": "<div xmlns=\"http://www.w3.org/1999/xhtml\"><table class=\"hl7__eu__lab__report\"><tr><th>Test</th><th>22-Nov-2016</th><th>Reference&#xA0;Range</th><th>Unit</th></tr><tr><td>Calcium [Mass/volume] in Blood</td><td>8.7</td><td>8.5 - 10.5</td><td></td><td>mg/dL</td></tr></table></div>"
        },
        "status": "final",
        "subject": {
          "reference": "urn:uuid:8c37038d-0844-4cbb-8bae-188cbd5b8cc6",
          "display": "Aniela Sacharczuk"
        },
        "effectiveDateTime": "2016-11-22T05:26:59Z",
        "specimen": {
          "reference": "urn:uuid:a278a977-ebe8-4f44-b26a-497ed38eb47b"
        }
      }
    },
    {
      "fullUrl": "urn:uuid:32460ecf-82e9-4db2-9204-9ccfd87beb83",
      "resource": {
        "resourceType": "Observation",
        "id": "32460ecf-82e9-4db2-9204-9ccfd87beb83",
        "meta": {
          "profile": [
            "http://hl7.eu/fhir/laboratory/StructureDefinition/Observation-resultslab-eu-lab"
          ]
        },
        "performer": [
          {
            "display": "The Central European Lab"
          }
        ],
        "category": [
          {
            "coding": [
              {
                "system": "http://terminology.hl7.org/CodeSystem/observation-category",
                "code": "laboratory"
              }
            ]
          }
        ],
        "code": {
          "coding": [
            {
              "code": "2947-0",
              "system": "http://loinc.org",
              "display": "Sodium [Moles/volume] in Blood"
            }
          ],
          "text": "Sodium [Moles/volume] in Blood"
        },
        "valueQuantity": {
          "system": "http://unitsofmeasure.org",
          "value": 142.7,
          "unit": "mmol/L",
          "code": "mmol/L"
        },
        "referenceRange": [
          {
            "low": {
              "value": 135,
              "code": "mmol/L",
              "system": "http://unitsofmeasure.org"
            }
          },
          {
            "high": {
              "value": 145,
              "code": "mmol/L",
              "system": "http://unitsofmeasure.org"
            }
          }
        ],
        "text": {
          "status": "generated",
          "div": "<div xmlns=\"http://www.w3.org/1999/xhtml\"><table class=\"hl7__eu__lab__report\"><tr><th>Test</th><th>22-Nov-2016</th><th>Reference&#xA0;Range</th><th>Unit</th></tr><tr><td>Sodium [Moles/volume] in Blood</td><td>142.7</td><td>135 - 145</td><td></td><td>mmol/L</td></tr></table></div>"
        },
        "status": "final",
        "subject": {
          "reference": "urn:uuid:8c37038d-0844-4cbb-8bae-188cbd5b8cc6",
          "display": "Aniela Sacharczuk"
        },
        "effectiveDateTime": "2016-11-22T05:26:59Z",
        "specimen": {
          "reference": "urn:uuid:a278a977-ebe8-4f44-b26a-497ed38eb47b"
        }
      }
    },
    {
      "fullUrl": "urn:uuid:e402d593-f348-4d8f-81c6-19bbe4f9f3f2",
      "resource": {
        "resourceType": "Observation",
        "id": "e402d593-f348-4d8f-81c6-19bbe4f9f3f2",
        "meta": {
          "profile": [
            "http://hl7.eu/fhir/laboratory/StructureDefinition/Observation-resultslab-eu-lab"
          ]
        },
        "performer": [
          {
            "display": "The Central European Lab"
          }
        ],
        "category": [
          {
            "coding": [
              {
                "system": "http://terminology.hl7.org/CodeSystem/observation-category",
                "code": "laboratory"
              }
            ]
          }
        ],
        "code": {
          "coding": [
            {
              "code": "6298-4",
              "system": "http://loinc.org",
              "display": "Potassium [Moles/volume] in Blood"
            }
          ],
          "text": "Potassium [Moles/volume] in Blood"
        },
        "valueQuantity": {
          "system": "http://unitsofmeasure.org",
          "value": 5,
          "unit": "mmol/L",
          "code": "mmol/L"
        },
        "referenceRange": [
          {
            "low": {
              "value": 3.5,
              "code": "mmol/L",
              "system": "http://unitsofmeasure.org"
            }
          },
          {
            "high": {
              "value": 5.3,
              "code": "mmol/L",
              "system": "http://unitsofmeasure.org"
            }
          }
        ],
        "text": {
          "status": "generated",
          "div": "<div xmlns=\"http://www.w3.org/1999/xhtml\"><table class=\"hl7__eu__lab__report\"><tr><th>Test</th><th>22-Nov-2016</th><th>Reference&#xA0;Range</th><th>Unit</th></tr><tr><td>Potassium [Moles/volume] in Blood</td><td>5.0</td><td>3.5 - 5.3</td><td></td><td>mmol/L</td></tr></table></div>"
        },
        "status": "final",
        "subject": {
          "reference": "urn:uuid:8c37038d-0844-4cbb-8bae-188cbd5b8cc6",
          "display": "Aniela Sacharczuk"
        },
        "effectiveDateTime": "2016-11-22T05:26:59Z",
        "specimen": {
          "reference": "urn:uuid:a278a977-ebe8-4f44-b26a-497ed38eb47b"
        }
      }
    },
    {
      "fullUrl": "urn:uuid:d3b9e7a2-feac-4c6d-807f-baf764c8b67b",
      "resource": {
        "resourceType": "Observation",
        "id": "d3b9e7a2-feac-4c6d-807f-baf764c8b67b",
        "meta": {
          "profile": [
            "http://hl7.eu/fhir/laboratory/StructureDefinition/Observation-resultslab-eu-lab"
          ]
        },
        "performer": [
          {
            "display": "The Central European Lab"
          }
        ],
        "category": [
          {
            "coding": [
              {
                "system": "http://terminology.hl7.org/CodeSystem/observation-category",
                "code": "laboratory"
              }
            ]
          }
        ],
        "code": {
          "coding": [
            {
              "code": "2069-3",
              "system": "http://loinc.org",
              "display": "Chloride [Moles/volume] in Blood"
            }
          ],
          "text": "Chloride [Moles/volume] in Blood"
        },
        "valueQuantity": {
          "system": "http://unitsofmeasure.org",
          "value": 106.1,
          "unit": "mmol/L",
          "code": "mmol/L"
        },
        "referenceRange": [
          {
            "low": {
              "value": 98,
              "code": "mmol/L",
              "system": "http://unitsofmeasure.org"
            }
          },
          {
            "high": {
              "value": 114,
              "code": "mmol/L",
              "system": "http://unitsofmeasure.org"
            }
          }
        ],
        "text": {
          "status": "generated",
          "div": "<div xmlns=\"http://www.w3.org/1999/xhtml\"><table class=\"hl7__eu__lab__report\"><tr><th>Test</th><th>22-Nov-2016</th><th>Reference&#xA0;Range</th><th>Unit</th></tr><tr><td>Chloride [Moles/volume] in Blood</td><td>106.1</td><td>98 - 114</td><td></td><td>mmol/L</td></tr></table></div>"
        },
        "status": "final",
        "subject": {
          "reference": "urn:uuid:8c37038d-0844-4cbb-8bae-188cbd5b8cc6",
          "display": "Aniela Sacharczuk"
        },
        "effectiveDateTime": "2016-11-22T05:26:59Z",
        "specimen": {
          "reference": "urn:uuid:a278a977-ebe8-4f44-b26a-497ed38eb47b"
        }
      }
    },
    {
      "fullUrl": "urn:uuid:d373d9eb-a9e5-402c-a3fa-7c33e46f495f",
      "resource": {
        "resourceType": "Observation",
        "id": "d373d9eb-a9e5-402c-a3fa-7c33e46f495f",
        "meta": {
          "profile": [
            "http://hl7.eu/fhir/laboratory/StructureDefinition/Observation-resultslab-eu-lab"
          ]
        },
        "performer": [
          {
            "display": "The Central European Lab"
          }
        ],
        "category": [
          {
            "coding": [
              {
                "system": "http://terminology.hl7.org/CodeSystem/observation-category",
                "code": "laboratory"
              }
            ]
          }
        ],
        "code": {
          "coding": [
            {
              "code": "20565-8",
              "system": "http://loinc.org",
              "display": "Carbon dioxide, total [Moles/volume] in Blood"
            }
          ],
          "text": "Carbon dioxide, total [Moles/volume] in Blood"
        },
        "valueQuantity": {
          "system": "http://unitsofmeasure.org",
          "value": 22.9,
          "unit": "mmol/L",
          "code": "mmol/L"
        },
        "referenceRange": [
          {
            "low": {
              "value": 22,
              "code": "mmol/L",
              "system": "http://unitsofmeasure.org"
            }
          },
          {
            "high": {
              "value": 29,
              "code": "mmol/L",
              "system": "http://unitsofmeasure.org"
            }
          }
        ],
        "text": {
          "status": "generated",
          "div": "<div xmlns=\"http://www.w3.org/1999/xhtml\"><table class=\"hl7__eu__lab__report\"><tr><th>Test</th><th>22-Nov-2016</th><th>Reference&#xA0;Range</th><th>Unit</th></tr><tr><td>Carbon dioxide, total [Moles/volume] in Blood</td><td>22.9</td><td>22 - 29</td><td></td><td>mmol/L</td></tr></table></div>"
        },
        "status": "final",
        "subject": {
          "reference": "urn:uuid:8c37038d-0844-4cbb-8bae-188cbd5b8cc6",
          "display": "Aniela Sacharczuk"
        },
        "effectiveDateTime": "2016-11-22T05:26:59Z",
        "specimen": {
          "reference": "urn:uuid:a278a977-ebe8-4f44-b26a-497ed38eb47b"
        }
      }
    },
    {
      "fullUrl": "urn:uuid:7ba35806-3ada-4200-ae0d-8fa258122b97",
      "resource": {
        "resourceType": "Observation",
        "id": "7ba35806-3ada-4200-ae0d-8fa258122b97",
        "meta": {
          "profile": [
            "http://hl7.eu/fhir/laboratory/StructureDefinition/Observation-resultslab-eu-lab"
          ]
        },
        "performer": [
          {
            "display": "The Central European Lab"
          }
        ],
        "category": [
          {
            "coding": [
              {
                "system": "http://terminology.hl7.org/CodeSystem/observation-category",
                "code": "laboratory"
              }
            ]
          }
        ],
        "code": {
          "coding": [
            {
              "code": "2093-3",
              "system": "http://loinc.org",
              "display": "Cholesterol [Mass/volume] in Serum or Plasma"
            }
          ],
          "text": "Cholesterol [Mass/volume] in Serum or Plasma"
        },
        "valueQuantity": {
          "system": "http://unitsofmeasure.org",
          "value": 146.5,
          "unit": "mg/dL",
          "code": "mg/dL"
        },
        "referenceRange": [
          {
            "low": {
              "value": 125,
              "code": "mg/dL",
              "system": "http://unitsofmeasure.org"
            }
          },
          {
            "high": {
              "value": 200,
              "code": "mg/dL",
              "system": "http://unitsofmeasure.org"
            }
          }
        ],
        "text": {
          "status": "generated",
          "div": "<div xmlns=\"http://www.w3.org/1999/xhtml\"><table class=\"hl7__eu__lab__report\"><tr><th>Test</th><th>22-Nov-2016</th><th>Reference&#xA0;Range</th><th>Unit</th></tr><tr><td>Cholesterol [Mass/volume] in Serum or Plasma</td><td>146.5</td><td>125 - 200</td><td></td><td>mg/dL</td></tr></table></div>"
        },
        "status": "final",
        "subject": {
          "reference": "urn:uuid:8c37038d-0844-4cbb-8bae-188cbd5b8cc6",
          "display": "Aniela Sacharczuk"
        },
        "effectiveDateTime": "2016-11-22T05:26:59Z",
        "specimen": {
          "reference": "urn:uuid:f66db3bf-9b0c-4225-bfe5-7f18bc1263cd"
        }
      }
    },
    {
      "fullUrl": "urn:uuid:23f5d22e-d67a-4c4f-8a02-f512a0e63005",
      "resource": {
        "resourceType": "Observation",
        "id": "23f5d22e-d67a-4c4f-8a02-f512a0e63005",
        "meta": {
          "profile": [
            "http://hl7.eu/fhir/laboratory/StructureDefinition/Observation-resultslab-eu-lab"
          ]
        },
        "performer": [
          {
            "display": "The Central European Lab"
          }
        ],
        "category": [
          {
            "coding": [
              {
                "system": "http://terminology.hl7.org/CodeSystem/observation-category",
                "code": "laboratory"
              }
            ]
          }
        ],
        "code": {
          "coding": [
            {
              "code": "2571-8",
              "system": "http://loinc.org",
              "display": "Triglyceride [Mass/volume] in Serum or Plasma"
            }
          ],
          "text": "Triglyceride [Mass/volume] in Serum or Plasma"
        },
        "valueQuantity": {
          "system": "http://unitsofmeasure.org",
          "value": 135.6,
          "unit": "mg/dL",
          "code": "mg/dL"
        },
        "referenceRange": [
          {
            "low": {
              "value": 35,
              "code": "mg/dL",
              "system": "http://unitsofmeasure.org"
            }
          },
          {
            "high": {
              "value": 150,
              "code": "mg/dL",
              "system": "http://unitsofmeasure.org"
            }
          }
        ],
        "text": {
          "status": "generated",
          "div": "<div xmlns=\"http://www.w3.org/1999/xhtml\"><table class=\"hl7__eu__lab__report\"><tr><th>Test</th><th>22-Nov-2016</th><th>Reference&#xA0;Range</th><th>Unit</th></tr><tr><td>Triglyceride [Mass/volume] in Serum or Plasma</td><td>135.6</td><td>35 - 150</td><td></td><td>mg/dL</td></tr></table></div>"
        },
        "status": "final",
        "subject": {
          "reference": "urn:uuid:8c37038d-0844-4cbb-8bae-188cbd5b8cc6",
          "display": "Aniela Sacharczuk"
        },
        "effectiveDateTime": "2016-11-22T05:26:59Z",
        "specimen": {
          "reference": "urn:uuid:f66db3bf-9b0c-4225-bfe5-7f18bc1263cd"
        }
      }
    },
    {
      "fullUrl": "urn:uuid:2d1e3b66-efaa-4853-8e9c-800fb05d8554",
      "resource": {
        "resourceType": "Observation",
        "id": "2d1e3b66-efaa-4853-8e9c-800fb05d8554",
        "meta": {
          "profile": [
            "http://hl7.eu/fhir/laboratory/StructureDefinition/Observation-resultslab-eu-lab"
          ]
        },
        "performer": [
          {
            "display": "The Central European Lab"
          }
        ],
        "category": [
          {
            "coding": [
              {
                "system": "http://terminology.hl7.org/CodeSystem/observation-category",
                "code": "laboratory"
              }
            ]
          }
        ],
        "code": {
          "coding": [
            {
              "code": "18262-6",
              "system": "http://loinc.org",
              "display": "Cholesterol in LDL [Mass/volume] in Serum or Plasma by Direct assay"
            }
          ],
          "text": "Cholesterol in LDL [Mass/volume] in Serum or Plasma by Direct assay"
        },
        "valueQuantity": {
          "system": "http://unitsofmeasure.org",
          "value": 63.6,
          "unit": "mg/dL",
          "code": "mg/dL"
        },
        "referenceRange": [
          {
            "low": {
              "value": 0,
              "code": "mg/dL",
              "system": "http://unitsofmeasure.org"
            }
          },
          {
            "high": {
              "value": 130,
              "code": "mg/dL",
              "system": "http://unitsofmeasure.org"
            }
          }
        ],
        "text": {
          "status": "generated",
          "div": "<div xmlns=\"http://www.w3.org/1999/xhtml\"><table class=\"hl7__eu__lab__report\"><tr><th>Test</th><th>22-Nov-2016</th><th>Reference&#xA0;Range</th><th>Unit</th></tr><tr><td>Cholesterol in LDL [Mass/volume] in Serum or Plasma by Direct assay</td><td>63.6</td><td>0 - 130</td><td></td><td>mg/dL</td></tr></table></div>"
        },
        "status": "final",
        "subject": {
          "reference": "urn:uuid:8c37038d-0844-4cbb-8bae-188cbd5b8cc6",
          "display": "Aniela Sacharczuk"
        },
        "effectiveDateTime": "2016-11-22T05:26:59Z",
        "specimen": {
          "reference": "urn:uuid:f66db3bf-9b0c-4225-bfe5-7f18bc1263cd"
        }
      }
    },
    {
      "fullUrl": "urn:uuid:33327f3a-69ef-4dc9-b928-064a635646cc",
      "resource": {
        "resourceType": "Observation",
        "id": "33327f3a-69ef-4dc9-b928-064a635646cc",
        "meta": {
          "profile": [
            "http://hl7.eu/fhir/laboratory/StructureDefinition/Observation-resultslab-eu-lab"
          ]
        },
        "performer": [
          {
            "display": "The Central European Lab"
          }
        ],
        "category": [
          {
            "coding": [
              {
                "system": "http://terminology.hl7.org/CodeSystem/observation-category",
                "code": "laboratory"
              }
            ]
          }
        ],
        "code": {
          "coding": [
            {
              "code": "2085-9",
              "system": "http://loinc.org",
              "display": "Cholesterol in HDL [Mass/volume] in Serum or Plasma"
            }
          ],
          "text": "Cholesterol in HDL [Mass/volume] in Serum or Plasma"
        },
        "valueQuantity": {
          "system": "http://unitsofmeasure.org",
          "value": 55.8,
          "unit": "mg/dL",
          "code": "mg/dL"
        },
        "referenceRange": [
          {
            "low": {
              "value": 40,
              "code": "mg/dL",
              "system": "http://unitsofmeasure.org"
            }
          },
          {
            "high": {
              "value": 60,
              "code": "mg/dL",
              "system": "http://unitsofmeasure.org"
            }
          }
        ],
        "text": {
          "status": "generated",
          "div": "<div xmlns=\"http://www.w3.org/1999/xhtml\"><table class=\"hl7__eu__lab__report\"><tr><th>Test</th><th>22-Nov-2016</th><th>Reference&#xA0;Range</th><th>Unit</th></tr><tr><td>Cholesterol in HDL [Mass/volume] in Serum or Plasma</td><td>55.8</td><td>40 - 60</td><td></td><td>mg/dL</td></tr></table></div>"
        },
        "status": "final",
        "subject": {
          "reference": "urn:uuid:8c37038d-0844-4cbb-8bae-188cbd5b8cc6",
          "display": "Aniela Sacharczuk"
        },
        "effectiveDateTime": "2016-11-22T05:26:59Z",
        "specimen": {
          "reference": "urn:uuid:f66db3bf-9b0c-4225-bfe5-7f18bc1263cd"
        }
      }
    },
    {
      "fullUrl": "urn:uuid:0cd25d24-9fd8-450e-bb8c-7d4c84c81647",
      "resource": {
        "resourceType": "Device",
        "id": "0cd25d24-9fd8-450e-bb8c-7d4c84c81647",
        "deviceName": [
          {
            "name": "SYNDERAI Synthetic Generator",
            "type": "manufacturer-name"
          }
        ],
        "version": [
          {
            "value": "5.0"
          }
        ],
        "text": {
          "status": "generated",
          "div": "<div xmlns=\"http://www.w3.org/1999/xhtml\">SYNDERAI Synthetic Generator v5.0</div>"
        },
        "status": "active\"",
        "distinctIdentifier": "synderai-generator-50",
        "manufacturer": "SYNDERAI Project"
      }
    },
    {
      "fullUrl": "urn:uuid:8d6f9982-aebe-4399-aa3f-b468e20ee472",
      "resource": {
        "resourceType": "Provenance",
        "id": "8d6f9982-aebe-4399-aa3f-b468e20ee472",
        "target": [
          {
            "reference": "Patient/8c37038d-0844-4cbb-8bae-188cbd5b8cc6"
          },
          {
            "reference": "Bundle/3ba1bdca-a1b9-48c8-8104-d63921947105"
          },
          {
            "reference": "Composition/2e578b24-141c-45b1-9894-3a926c2e79ed"
          },
          {
            "reference": "PractitionerRole/bcdbdaa4-6c3c-41d4-941a-19dfa5ba9421"
          },
          {
            "reference": "Practitioner/080f0134-0bf8-4174-8d55-39a1b18f2598"
          },
          {
            "reference": "PractitionerRole/b6ef44f2-baac-44e7-9e73-874f5ab1571e"
          },
          {
            "reference": "Organization/46cf9cbd-003b-4ec4-a54c-ef0dc0a26dea"
          }
        ],
        "activity": {
          "text": "Synthetic Example Data Generation"
        },
        "policy": [
          "https://synderai.net/synderai-synthetic-data-policy"
        ],
        "agent": [
          {
            "type": {
              "text": "author"
            },
            "who": {
              "reference": "Device/0cd25d24-9fd8-450e-bb8c-7d4c84c81647"
            }
          }
        ],
        "reason": [
          {
            "text": "Interoperability Testing and Training (non-clinical use)"
          }
        ],
        "text": {
          "status": "generated",
          "div": "<div xmlns=\"http://www.w3.org/1999/xhtml\">Provenance for SYNDERAI Synthetic Example Data Resource</div>"
        },
        "recorded": "2016-11-22T06:26:59Z"
      }
    },
    {
      "fullUrl": "urn:uuid:bcdbdaa4-6c3c-41d4-941a-19dfa5ba9421",
      "resource": {
        "resourceType": "PractitionerRole",
        "id": "bcdbdaa4-6c3c-41d4-941a-19dfa5ba9421",
        "meta": {
          "profile": [
            "http://hl7.eu/fhir/base/StructureDefinition/practitionerRole-eu"
          ]
        },
        "text": {
          "status": "generated",
          "div": "<div xmlns=\"http://www.w3.org/1999/xhtml\">Laboratory Role Id: bcdbdaa4-6c3c-41d4-941a-19dfa5ba9421</div>"
        },
        "practitioner": {
          "reference": "urn:uuid:080f0134-0bf8-4174-8d55-39a1b18f2598"
        }
      }
    },
    {
      "fullUrl": "urn:uuid:080f0134-0bf8-4174-8d55-39a1b18f2598",
      "resource": {
        "resourceType": "Practitioner",
        "id": "080f0134-0bf8-4174-8d55-39a1b18f2598",
        "meta": {
          "profile": [
            "http://hl7.eu/fhir/base/StructureDefinition/practitioner-eu"
          ]
        },
        "identifier": [
          {
            "assigner": {
              "display": "HL7 Europe"
            },
            "system": "urn:oid:2.16.840.1.113883.2.51.999",
            "value": "2753ebc2-fbb6-434e-bcc0-7be523415388"
          }
        ],
        "name": [
          {
            "prefix": [
              "dr"
            ],
            "given": [
              "Ex"
            ],
            "family": "Ample"
          }
        ],
        "address": [
          {
            "line": [
              "Laboratoire Central Européenne",
              "Boulevard du Jardin Botanique 32"
            ],
            "postalCode": "1000",
            "city": "Brussels",
            "country": "Belgium"
          }
        ],
        "text": {
          "status": "generated",
          "div": "<div xmlns=\"http://www.w3.org/1999/xhtml\">Laboratory: Laboratoire Central Européenne, 1000 Brussels, Belgium</div>"
        }
      }
    }
  ],
  "type": "document",
  "timestamp": "2016-11-22T06:26:59Z"
}
