{
  "resourceType": "Bundle",
  "id": "88f04642-1003-4380-8eb2-6df4c0519c63",
  "meta": {
    "profile": [
      "http://hl7.eu/fhir/laboratory/StructureDefinition/Bundle-eu-lab"
    ]
  },
  "identifier": {
    "assigner": {
      "display": "HL7 Europe"
    },
    "system": "urn:oid:2.16.840.1.113883.2.51.999",
    "value": "4d0eee36-1290-4b95-93d2-b0fa2ec08786"
  },
  "entry": [
    {
      "fullUrl": "urn:uuid:deaac192-65b8-4915-8b18-5cfd68ad4efa",
      "resource": {
        "resourceType": "Composition",
        "id": "deaac192-65b8-4915-8b18-5cfd68ad4efa",
        "meta": {
          "profile": [
            "http://hl7.eu/fhir/laboratory/StructureDefinition/Composition-eu-lab"
          ]
        },
        "identifier": {
          "assigner": {
            "display": "HL7 Europe"
          },
          "system": "urn:oid:2.16.840.1.113883.2.51.999",
          "value": "9f4edc66-4196-48ef-b1ba-711e093b00b3"
        },
        "author": [
          {
            "reference": "urn:uuid:04889f49-1401-432a-86a9-fcc07ea97200"
          }
        ],
        "category": [
          {
            "coding": [
              {
                "code": "26436-6",
                "system": "http://loinc.org",
                "display": "Laboratory studies (set)"
              }
            ]
          }
        ],
        "type": {
          "coding": [
            {
              "code": "11502-2",
              "system": "http://loinc.org",
              "display": "Laboratory report"
            }
          ],
          "text": "Laboratory Report"
        },
        "section": [
          {
            "code": {
              "coding": [
                {
                  "code": "26436-6",
                  "system": "http://loinc.org",
                  "display": "Laboratory studies (set)"
                }
              ],
              "text": "Laboratory studies"
            },
            "section": [
              {
                "code": {
                  "coding": [
                    {
                      "code": "$18719-5",
                      "system": "http://loinc.org",
                      "display": "Chemistry studies (set)"
                    }
                  ],
                  "text": "Chemistry"
                },
                "entry": [
                  {
                    "reference": "urn:uuid:368e9d5c-30d8-43cc-a911-865015166f14"
                  },
                  {
                    "reference": "urn:uuid:4f0b2b2c-2e66-4772-bd5e-1af1d5eed4f8"
                  },
                  {
                    "reference": "urn:uuid:c3b0a8d3-5f4f-4b4a-af25-48d1a924b04c"
                  },
                  {
                    "reference": "urn:uuid:38b89c98-1ef0-4018-b8ee-840c18d82d09"
                  },
                  {
                    "reference": "urn:uuid:004519f4-3d35-484b-ad0a-9fdc21181a11"
                  },
                  {
                    "reference": "urn:uuid:d6bd14ef-c292-44af-9c1b-c39b5045a390"
                  },
                  {
                    "reference": "urn:uuid:d0ae0aa1-21e7-436e-81ee-fd736ccd1693"
                  },
                  {
                    "reference": "urn:uuid:21f576d6-83eb-4538-82de-1343361a0e22"
                  },
                  {
                    "reference": "urn:uuid:5baef626-6fd9-46f1-9e2f-208db8ec9491"
                  },
                  {
                    "reference": "urn:uuid:91efb945-dafc-425f-8440-e2df5a9c726d"
                  },
                  {
                    "reference": "urn:uuid:e4506894-a918-479b-b5c5-f69643dee6ff"
                  },
                  {
                    "reference": "urn:uuid:1dd76638-b244-4659-8cb1-11486005c06f"
                  },
                  {
                    "reference": "urn:uuid:f84b52b2-0cb8-467f-86f8-9bee3cf7ce74"
                  },
                  {
                    "reference": "urn:uuid:60f23c03-0b84-498a-86d8-9f07a56a07c8"
                  },
                  {
                    "reference": "urn:uuid:42f4da1a-7f26-40ad-9b7f-f64385991a87"
                  },
                  {
                    "reference": "urn:uuid:2711e9d7-1f2b-4390-aa87-a3ca1d0970e5"
                  },
                  {
                    "reference": "urn:uuid:bcca9715-23c0-4b6d-bfc6-c2b1e0e46af3"
                  },
                  {
                    "reference": "urn:uuid:fd011dd7-9e6a-4331-bdd1-51968a1a6acd"
                  }
                ],
                "text": {
                  "status": "generated",
                  "div": "<div xmlns=\"http://www.w3.org/1999/xhtml\"><h3>Chemistry</h3><table class=\"hl7__eu__lab__report\"><thead><tr><th>Test</th><th>18-NOV-2024</th><th>Reference&#xA0;Range</th><th>Unit</th></tr></thead><tbody><tr><td>Glucose [Mass/volume] in Serum or Plasma</td><td><strong>69.8 L</strong></td><td>70 - 99</td><td>mg/dL</td></tr><tr><td>Urea nitrogen [Mass/volume] in Serum or Plasma</td><td>19.6</td><td>7 - 50</td><td>mg/dL</td></tr><tr><td>Creatinine [Mass/volume] in Serum or Plasma</td><td><strong>2.1 H</strong></td><td>0.6 - 1.1</td><td>mg/dL</td></tr><tr><td>Calcium [Mass/volume] in Serum or Plasma</td><td>8.8</td><td>8.6 - 10.4</td><td>mg/dL</td></tr><tr><td>Sodium [Moles/volume] in Serum or Plasma</td><td>143.2</td><td>135 - 145</td><td>mmol/L</td></tr><tr><td>Potassium [Moles/volume] in Serum or Plasma</td><td>4.8</td><td>3.5 - 5.1</td><td>mmol/L</td></tr><tr><td>Chloride [Moles/volume] in Serum or Plasma</td><td>103.9</td><td>98 - 108</td><td>mmol/L</td></tr><tr><td>Carbon dioxide, total [Moles/volume] in Serum or Plasma</td><td>27.4</td><td>22 - 32</td><td>mmol/L</td></tr><tr><td>Ketones [Presence] in Urine by Test strip</td><td>Urine ketone test = ++</td><td></td><td></td></tr><tr><td>Hemoglobin A1c/Hemoglobin.total in Blood</td><td>4.0</td><td>4 - 6.4</td><td>%</td></tr><tr><td>Glucose [Mass/volume] in Blood</td><td><strong>69.8 L</strong></td><td>70 - 100</td><td>mg/dL</td></tr><tr><td>Urea nitrogen [Mass/volume] in Blood</td><td>19.6</td><td>7 - 43</td><td>mg/dL</td></tr><tr><td>Creatinine [Mass/volume] in Blood</td><td><strong>4.3 H</strong></td><td>0.6 - 1.1</td><td>mg/dL</td></tr><tr><td>Calcium [Mass/volume] in Blood</td><td>8.8</td><td>8.5 - 10.5</td><td>mg/dL</td></tr><tr><td>Sodium [Moles/volume] in Blood</td><td>143.2</td><td>135 - 145</td><td>mmol/L</td></tr><tr><td>Potassium [Moles/volume] in Blood</td><td>4.8</td><td>3.5 - 5.1</td><td>mmol/L</td></tr><tr><td>Chloride [Moles/volume] in Blood</td><td>103.9</td><td>98 - 108</td><td>mmol/L</td></tr><tr><td>Carbon dioxide, total [Moles/volume] in Blood</td><td>27.4</td><td>22 - 29</td><td>mmol/L</td></tr></tbody></table></div>"
                },
                "title": "Chemistry"
              },
              {
                "code": {
                  "coding": [
                    {
                      "code": "$18729-4",
                      "system": "http://loinc.org",
                      "display": "Urinalysis studies (set)"
                    }
                  ],
                  "text": "Urinalysis"
                },
                "entry": [
                  {
                    "reference": "urn:uuid:e54ba267-f4b4-4687-aed0-8ac275b1400f"
                  },
                  {
                    "reference": "urn:uuid:cb3db973-02cb-4fbb-8a2d-4efa4ba463bf"
                  },
                  {
                    "reference": "urn:uuid:13657f4e-0549-42d0-bb7a-ec58094860a8"
                  },
                  {
                    "reference": "urn:uuid:4310b40e-c287-4bae-9dcf-76824b9326ae"
                  },
                  {
                    "reference": "urn:uuid:039a034e-712c-465e-88bb-092b37e1866b"
                  },
                  {
                    "reference": "urn:uuid:fb915cdf-2b0d-4c27-b9ff-3f7f1a65a496"
                  },
                  {
                    "reference": "urn:uuid:79eaeb24-4636-4c0f-a0cc-8de9ae0426dc"
                  },
                  {
                    "reference": "urn:uuid:419be0dc-7e9d-4a8d-8000-06e9b52fe49e"
                  },
                  {
                    "reference": "urn:uuid:83c38850-8377-4bdc-aefb-41845fcd2b9e"
                  },
                  {
                    "reference": "urn:uuid:b29fdda2-14e0-4732-ba5e-f28ae4a33e61"
                  },
                  {
                    "reference": "urn:uuid:0b3f8dff-195b-4cf0-9554-170e4c18a3aa"
                  },
                  {
                    "reference": "urn:uuid:907ce482-903d-44d0-9592-420a3f123b25"
                  }
                ],
                "text": {
                  "status": "generated",
                  "div": "<div xmlns=\"http://www.w3.org/1999/xhtml\"><h3>Urinalysis</h3><table class=\"hl7__eu__lab__report\"><thead><tr><th>Test</th><th>18-NOV-2024</th><th>Reference&#xA0;Range</th><th>Unit</th></tr></thead><tbody><tr><td>Glucose [Mass/volume] in Urine by Test strip</td><td><strong>2.4 H</strong></td><td>0.8 - 0</td><td>mg/dL</td></tr><tr><td>Glucose [Presence] in Urine by Test strip</td><td>++</td><td></td><td></td></tr><tr><td>Bilirubin.total [Mass/volume] in Urine by Test strip</td><td>0.7</td><td>0 - 1</td><td>mg/dL</td></tr><tr><td>Bilirubin.total [Presence] in Urine by Test strip</td><td>Finding of bilirubin in urine</td><td></td><td></td></tr><tr><td>Ketones [Mass/volume] in Urine by Test strip</td><td><strong>17.4 H</strong></td><td>0 - 4</td><td>mg/dL</td></tr><tr><td>Specific gravity of Urine by Test strip</td><td><strong>1.0 L</strong></td><td>1.005 - 1.03</td><td>{nominal}</td></tr><tr><td>pH of Urine by Test strip</td><td>6.2</td><td>4.6 - 7</td><td>pH</td></tr><tr><td>Protein [Mass/volume] in Urine by Test strip</td><td><strong>282.2 H</strong></td><td>0 - 14</td><td>mg/dL</td></tr><tr><td>Protein [Presence] in Urine by Test strip</td><td>Urine protein test = ++</td><td></td><td></td></tr><tr><td>Nitrite [Presence] in Urine by Test strip</td><td>Urine nitrite negative</td><td></td><td></td></tr><tr><td>Hemoglobin [Presence] in Urine by Test strip</td><td>Urine blood test = negative</td><td></td><td></td></tr><tr><td>Leukocyte esterase [Presence] in Urine by Test strip</td><td>Urine leukocyte test negative</td><td></td><td></td></tr></tbody></table></div>"
                },
                "title": "Urinalysis"
              },
              {
                "code": {
                  "coding": [
                    {
                      "code": "$LP7846-1",
                      "system": "http://loinc.org",
                      "display": "Specimen information"
                    }
                  ],
                  "text": "Specimen information"
                },
                "entry": [
                  {
                    "reference": "urn:uuid:bacd0286-0b19-4b94-930c-001624dee7b8"
                  },
                  {
                    "reference": "urn:uuid:d4c2142f-e0d7-47fb-80bb-1bd9a46eeb1b"
                  },
                  {
                    "reference": "urn:uuid:629ea448-a3c7-4159-bab4-163d4e8d1c53"
                  },
                  {
                    "reference": "urn:uuid:17ef1d87-9640-49ae-9270-2bf10e8420e7"
                  }
                ],
                "text": {
                  "status": "generated",
                  "div": "<div xmlns=\"http://www.w3.org/1999/xhtml\"><h3>Specimen information</h3><table class=\"hl7__eu__lab__report\"><thead><tr><th>Test</th><th>18-NOV-2024</th><th>Specimen</th><th></th></tr></thead><tbody><tr><td>Appearance of Urine</td><td>Cloudy urine</td><td>Urine</td><td></td></tr><tr><td>Odor of Urine</td><td>Urine smell ammoniacal</td><td>Urine</td><td></td></tr><tr><td>Clarity of Urine</td><td>Translucent</td><td>Urine</td><td></td></tr><tr><td>Color of Urine</td><td>Brown color</td><td>Urine</td><td></td></tr></tbody></table></div>"
                },
                "title": "Specimen information"
              }
            ],
            "title": "Laboratory Report"
          },
          {
            "text": {
              "status": "generated",
              "div": "<div xmlns=\"http://www.w3.org/1999/xhtml\"><h3>Annotation</h3><table class=\"hl7__eu__lab__report\"><tr><th>Conclusion and Recommendations based on this report and previous findings known to us</th></tr><tr><td>The patient shows significant renal impairment (markedly elevated creatinine), proteinuria, glucosuria, and ketonuria, with low-normal blood glucose and normal HbA1c, suggesting possible acute or chronic kidney disease with impaired tubular function rather than diabetes. Urine is abnormal in appearance and color but lacks infection markers. Further nephrological evaluation is recommended.</td></tr></table></div>"
            },
            "code": {
              "coding": [
                {
                  "system": "http://loinc.org",
                  "code": "48767-8",
                  "display": "Annotation comment"
                }
              ]
            },
            "title": "Annotation comment"
          }
        ],
        "status": "final",
        "subject": {
          "reference": "urn:uuid:151f9d75-12b2-4bd9-b4a0-912381443006",
          "display": "Meaghan Neary"
        },
        "date": "2024-11-18T23:11:04Z",
        "title": "Laboratory Report",
        "confidentiality": "N"
      }
    },
    {
      "fullUrl": "urn:uuid:bb9827b7-be18-4209-97f5-e0506b2ebdf3",
      "resource": {
        "resourceType": "DiagnosticReport",
        "id": "bb9827b7-be18-4209-97f5-e0506b2ebdf3",
        "meta": {
          "profile": [
            "http://hl7.eu/fhir/laboratory/StructureDefinition/DiagnosticReport-eu-lab"
          ]
        },
        "identifier": [
          {
            "assigner": {
              "display": "HL7 Europe"
            },
            "system": "urn:oid:2.16.840.1.113883.2.51.999",
            "value": "bbbb0703-b2d1-4dcd-b2b8-85c5fb98014f"
          }
        ],
        "extension": [
          {
            "url": "http://hl7.org/fhir/5.0/StructureDefinition/extension-DiagnosticReport.composition",
            "valueReference": {
              "reference": "urn:uuid:9f4edc66-4196-48ef-b1ba-711e093b00b3"
            }
          }
        ],
        "category": [
          {
            "coding": [
              {
                "code": "26436-6",
                "system": "http://loinc.org",
                "display": "Laboratory studies (set)"
              }
            ]
          }
        ],
        "specimen": [
          {
            "reference": "urn:uuid:f5b74097-8b02-485e-b400-09d501b4559b"
          },
          {
            "reference": "urn:uuid:f745819b-d9ec-4886-afe4-1917cd96b023"
          },
          {
            "reference": "urn:uuid:1d412051-52f6-45dc-af7c-978b06752a57"
          }
        ],
        "result": [
          {
            "reference": "urn:uuid:368e9d5c-30d8-43cc-a911-865015166f14"
          },
          {
            "reference": "urn:uuid:4f0b2b2c-2e66-4772-bd5e-1af1d5eed4f8"
          },
          {
            "reference": "urn:uuid:c3b0a8d3-5f4f-4b4a-af25-48d1a924b04c"
          },
          {
            "reference": "urn:uuid:38b89c98-1ef0-4018-b8ee-840c18d82d09"
          },
          {
            "reference": "urn:uuid:004519f4-3d35-484b-ad0a-9fdc21181a11"
          },
          {
            "reference": "urn:uuid:d6bd14ef-c292-44af-9c1b-c39b5045a390"
          },
          {
            "reference": "urn:uuid:d0ae0aa1-21e7-436e-81ee-fd736ccd1693"
          },
          {
            "reference": "urn:uuid:21f576d6-83eb-4538-82de-1343361a0e22"
          },
          {
            "reference": "urn:uuid:bacd0286-0b19-4b94-930c-001624dee7b8"
          },
          {
            "reference": "urn:uuid:d4c2142f-e0d7-47fb-80bb-1bd9a46eeb1b"
          },
          {
            "reference": "urn:uuid:629ea448-a3c7-4159-bab4-163d4e8d1c53"
          },
          {
            "reference": "urn:uuid:17ef1d87-9640-49ae-9270-2bf10e8420e7"
          },
          {
            "reference": "urn:uuid:e54ba267-f4b4-4687-aed0-8ac275b1400f"
          },
          {
            "reference": "urn:uuid:cb3db973-02cb-4fbb-8a2d-4efa4ba463bf"
          },
          {
            "reference": "urn:uuid:13657f4e-0549-42d0-bb7a-ec58094860a8"
          },
          {
            "reference": "urn:uuid:4310b40e-c287-4bae-9dcf-76824b9326ae"
          },
          {
            "reference": "urn:uuid:039a034e-712c-465e-88bb-092b37e1866b"
          },
          {
            "reference": "urn:uuid:5baef626-6fd9-46f1-9e2f-208db8ec9491"
          },
          {
            "reference": "urn:uuid:fb915cdf-2b0d-4c27-b9ff-3f7f1a65a496"
          },
          {
            "reference": "urn:uuid:79eaeb24-4636-4c0f-a0cc-8de9ae0426dc"
          },
          {
            "reference": "urn:uuid:419be0dc-7e9d-4a8d-8000-06e9b52fe49e"
          },
          {
            "reference": "urn:uuid:83c38850-8377-4bdc-aefb-41845fcd2b9e"
          },
          {
            "reference": "urn:uuid:b29fdda2-14e0-4732-ba5e-f28ae4a33e61"
          },
          {
            "reference": "urn:uuid:0b3f8dff-195b-4cf0-9554-170e4c18a3aa"
          },
          {
            "reference": "urn:uuid:907ce482-903d-44d0-9592-420a3f123b25"
          },
          {
            "reference": "urn:uuid:91efb945-dafc-425f-8440-e2df5a9c726d"
          },
          {
            "reference": "urn:uuid:e4506894-a918-479b-b5c5-f69643dee6ff"
          },
          {
            "reference": "urn:uuid:1dd76638-b244-4659-8cb1-11486005c06f"
          },
          {
            "reference": "urn:uuid:f84b52b2-0cb8-467f-86f8-9bee3cf7ce74"
          },
          {
            "reference": "urn:uuid:60f23c03-0b84-498a-86d8-9f07a56a07c8"
          },
          {
            "reference": "urn:uuid:42f4da1a-7f26-40ad-9b7f-f64385991a87"
          },
          {
            "reference": "urn:uuid:2711e9d7-1f2b-4390-aa87-a3ca1d0970e5"
          },
          {
            "reference": "urn:uuid:bcca9715-23c0-4b6d-bfc6-c2b1e0e46af3"
          },
          {
            "reference": "urn:uuid:fd011dd7-9e6a-4331-bdd1-51968a1a6acd"
          }
        ],
        "status": "registered",
        "code": {
          "coding": [
            {
              "code": "11502-2",
              "system": "http://loinc.org",
              "display": "Laboratory report"
            }
          ]
        },
        "subject": {
          "reference": "urn:uuid:151f9d75-12b2-4bd9-b4a0-912381443006",
          "display": "Meaghan Neary"
        }
      }
    },
    {
      "fullUrl": "urn:uuid:151f9d75-12b2-4bd9-b4a0-912381443006",
      "resource": {
        "resourceType": "Patient",
        "id": "151f9d75-12b2-4bd9-b4a0-912381443006",
        "meta": {
          "security": [
            {
              "system": "http://terminology.hl7.org/CodeSystem/v3-ActReason",
              "code": "HTEST"
            },
            {
              "system": "http://terminology.hl7.org/CodeSystem/v3-ActReason",
              "code": "TRAIN"
            }
          ],
          "tag": [
            {
              "system": "https://synderai.net/fhir/CodeSystem/tags",
              "code": "synthetic",
              "display": "SYNDERAI Synthetic data"
            }
          ],
          "profile": [
            "http://hl7.eu/fhir/base/StructureDefinition/patient-eu-core"
          ]
        },
        "identifier": [
          {
            "type": {
              "coding": [
                {
                  "code": "PT",
                  "system": "http://terminology.hl7.org/CodeSystem/v2-0203"
                }
              ]
            },
            "system": "http://ec.europa.eu/identifier/eci",
            "value": "1586-567257-8"
          },
          {
            "type": {
              "coding": [
                {
                  "code": "MR",
                  "system": "http://terminology.hl7.org/CodeSystem/v2-0203"
                }
              ]
            },
            "system": "http://local.setting.eu/identifier",
            "value": "443e6379-f231-b364-3ccb-644740a1aa2a"
          }
        ],
        "name": [
          {
            "family": "Neary"
          },
          {
            "given": [
              "Meaghan"
            ]
          },
          {
            "text": "Meaghan Neary"
          }
        ],
        "address": [
          {
            "line": [
              "64 Linskey Street"
            ],
            "use": "home",
            "type": "physical",
            "postalCode": "D02",
            "city": "Dublin",
            "country": "Ireland"
          }
        ],
        "telecom": [
          {
            "system": "phone",
            "value": "001-967-573-0911x465"
          }
        ],
        "extension": [
          {
            "url": "http://hl7.org/fhir/StructureDefinition/patient-nationality",
            "valueCodeableConcept": {
              "coding": [
                {
                  "code": "IE",
                  "system": "http://hl7.org/fhir/ValueSet/country"
                }
              ]
            }
          }
        ],
        "text": {
          "status": "generated",
          "div": "<div xmlns=\"http://www.w3.org/1999/xhtml\"><table class=\"hl7__ips\"><tr><td>Meaghan Neary</td><td>female</td><td>19-Dec-1960</td></tr></table></div>"
        },
        "gender": "female",
        "birthDate": "1960-12-19"
      }
    },
    {
      "fullUrl": "urn:uuid:e2c628db-7d1e-4ece-bb5b-25e3c735f506",
      "resource": {
        "resourceType": "ServiceRequest",
        "id": "e2c628db-7d1e-4ece-bb5b-25e3c735f506",
        "meta": {
          "profile": [
            "http://hl7.eu/fhir/laboratory/StructureDefinition/ServiceRequest-eu-lab"
          ]
        },
        "identifier": [
          {
            "system": "http://example.org",
            "value": "54fb9f61-1438-400c-b7e4-b0224df5728f"
          }
        ],
        "specimen": [
          {
            "reference": "urn:uuid:f5b74097-8b02-485e-b400-09d501b4559b"
          },
          {
            "reference": "urn:uuid:f745819b-d9ec-4886-afe4-1917cd96b023"
          },
          {
            "reference": "urn:uuid:1d412051-52f6-45dc-af7c-978b06752a57"
          }
        ],
        "reasonCode": [
          {
            "coding": [
              {
                "code": "55822004",
                "system": "http://snomed.info/sct",
                "display": "Hyperlipidemia"
              }
            ]
          },
          {
            "coding": [
              {
                "code": "433144002",
                "system": "http://snomed.info/sct",
                "display": "Chronic kidney disease stage 3"
              }
            ]
          },
          {
            "coding": [
              {
                "code": "157141000119108",
                "system": "http://snomed.info/sct",
                "display": "Proteinuria due to type 2 diabetes mellitus"
              }
            ]
          },
          {
            "coding": [
              {
                "code": "431856006",
                "system": "http://snomed.info/sct",
                "display": "Chronic kidney disease stage 2"
              }
            ]
          },
          {
            "coding": [
              {
                "code": "90781000119102",
                "system": "http://snomed.info/sct",
                "display": "Microalbuminuria due to type 2 diabetes mellitus"
              }
            ]
          },
          {
            "coding": [
              {
                "code": "127013003",
                "system": "http://snomed.info/sct",
                "display": "Disorder of kidney due to diabetes mellitus"
              }
            ]
          },
          {
            "coding": [
              {
                "code": "431855005",
                "system": "http://snomed.info/sct",
                "display": "Chronic kidney disease stage 1"
              }
            ]
          },
          {
            "coding": [
              {
                "code": "237602007",
                "system": "http://snomed.info/sct",
                "display": "Metabolic syndrome X"
              }
            ]
          },
          {
            "coding": [
              {
                "code": "271737000",
                "system": "http://snomed.info/sct",
                "display": "Anemia"
              }
            ]
          },
          {
            "coding": [
              {
                "code": "15777000",
                "system": "http://snomed.info/sct",
                "display": "Prediabetes"
              }
            ]
          },
          {
            "coding": [
              {
                "code": "59621000",
                "system": "http://snomed.info/sct",
                "display": "Essential hypertension"
              }
            ]
          }
        ],
        "status": "active",
        "intent": "order",
        "code": {
          "coding": [
            {
              "code": "108252007",
              "system": "http://snomed.info/sct",
              "display": "Laboratory procedure"
            }
          ]
        },
        "subject": {
          "reference": "urn:uuid:151f9d75-12b2-4bd9-b4a0-912381443006",
          "display": "Meaghan Neary"
        },
        "requester": {
          "reference": "urn:uuid:573ca448-cb85-4d20-a79f-47c57925e19e"
        }
      }
    },
    {
      "fullUrl": "urn:uuid:573ca448-cb85-4d20-a79f-47c57925e19e",
      "resource": {
        "resourceType": "PractitionerRole",
        "id": "573ca448-cb85-4d20-a79f-47c57925e19e",
        "meta": {
          "profile": [
            "http://hl7.eu/fhir/base/StructureDefinition/practitionerRole-eu"
          ]
        },
        "text": {
          "status": "generated",
          "div": "<div xmlns=\"http://www.w3.org/1999/xhtml\">Provider Role Id: 573ca448-cb85-4d20-a79f-47c57925e19e</div>"
        },
        "organization": {
          "reference": "urn:uuid:72a9acbc-9e7b-40bc-aeca-d3ecd915278c"
        }
      }
    },
    {
      "fullUrl": "urn:uuid:72a9acbc-9e7b-40bc-aeca-d3ecd915278c",
      "resource": {
        "resourceType": "Organization",
        "id": "72a9acbc-9e7b-40bc-aeca-d3ecd915278c",
        "meta": {
          "profile": [
            "http://hl7.eu/fhir/base/StructureDefinition/organization-eu"
          ]
        },
        "identifier": [
          {
            "assigner": {
              "display": "HL7 Europe"
            },
            "system": "urn:oid:2.16.840.1.113883.2.51.999",
            "value": "04c5df5d-5c4a-44fd-acee-7515305aaba2"
          }
        ],
        "address": [
          {
            "line": [
              "Parnell Square West nan"
            ],
            "city": "Dublin",
            "postalCode": "D01",
            "country": "Ireland"
          }
        ],
        "text": {
          "status": "generated",
          "div": "<div xmlns=\"http://www.w3.org/1999/xhtml\">Provider Organization: Rotunda Hospital</div>"
        },
        "name": "Rotunda Hospital"
      }
    },
    {
      "fullUrl": "urn:uuid:f5b74097-8b02-485e-b400-09d501b4559b",
      "resource": {
        "resourceType": "Specimen",
        "id": "f5b74097-8b02-485e-b400-09d501b4559b",
        "meta": {
          "profile": [
            "http://hl7.eu/fhir/laboratory/StructureDefinition/Specimen-eu-lab"
          ]
        },
        "collection": {
          "collectedDateTime": "2024-11-18"
        },
        "text": {
          "status": "generated",
          "div": "<div xmlns=\"http://www.w3.org/1999/xhtml\"><table class=\"hl7__eu__lab__report\"><tr><th>Specimen</th><th>Collection Date</th></tr><tr><td>Acellular blood (serum or plasma) specimen</td><td><span class=\"nb\">18-Nov-2024</span></td></tr></table></div>"
        },
        "type": {
          "coding": [
            {
              "code": "122592007",
              "system": "http://snomed.info/sct",
              "display": "Acellular blood (serum or plasma) specimen"
            }
          ]
        }
      }
    },
    {
      "fullUrl": "urn:uuid:f745819b-d9ec-4886-afe4-1917cd96b023",
      "resource": {
        "resourceType": "Specimen",
        "id": "f745819b-d9ec-4886-afe4-1917cd96b023",
        "meta": {
          "profile": [
            "http://hl7.eu/fhir/laboratory/StructureDefinition/Specimen-eu-lab"
          ]
        },
        "collection": {
          "collectedDateTime": "2024-11-18"
        },
        "text": {
          "status": "generated",
          "div": "<div xmlns=\"http://www.w3.org/1999/xhtml\"><table class=\"hl7__eu__lab__report\"><tr><th>Specimen</th><th>Collection Date</th></tr><tr><td>Urine specimen</td><td><span class=\"nb\">18-Nov-2024</span></td></tr></table></div>"
        },
        "type": {
          "coding": [
            {
              "code": "122575003",
              "system": "http://snomed.info/sct",
              "display": "Urine specimen"
            }
          ]
        }
      }
    },
    {
      "fullUrl": "urn:uuid:1d412051-52f6-45dc-af7c-978b06752a57",
      "resource": {
        "resourceType": "Specimen",
        "id": "1d412051-52f6-45dc-af7c-978b06752a57",
        "meta": {
          "profile": [
            "http://hl7.eu/fhir/laboratory/StructureDefinition/Specimen-eu-lab"
          ]
        },
        "collection": {
          "collectedDateTime": "2024-11-18"
        },
        "text": {
          "status": "generated",
          "div": "<div xmlns=\"http://www.w3.org/1999/xhtml\"><table class=\"hl7__eu__lab__report\"><tr><th>Specimen</th><th>Collection Date</th></tr><tr><td>Whole blood specimen (specimen)</td><td><span class=\"nb\">18-Nov-2024</span></td></tr></table></div>"
        },
        "type": {
          "coding": [
            {
              "code": "258580003",
              "system": "http://snomed.info/sct",
              "display": "Whole blood specimen (specimen)"
            }
          ]
        }
      }
    },
    {
      "fullUrl": "urn:uuid:368e9d5c-30d8-43cc-a911-865015166f14",
      "resource": {
        "resourceType": "Observation",
        "id": "368e9d5c-30d8-43cc-a911-865015166f14",
        "meta": {
          "profile": [
            "http://hl7.eu/fhir/laboratory/StructureDefinition/Observation-resultslab-eu-lab"
          ]
        },
        "performer": [
          {
            "display": "The Central European Lab"
          }
        ],
        "category": [
          {
            "coding": [
              {
                "system": "http://terminology.hl7.org/CodeSystem/observation-category",
                "code": "laboratory"
              }
            ]
          }
        ],
        "code": {
          "coding": [
            {
              "code": "2345-7",
              "system": "http://loinc.org",
              "display": "Glucose [Mass/volume] in Serum or Plasma"
            }
          ],
          "text": "Glucose [Mass/volume] in Serum or Plasma"
        },
        "valueQuantity": {
          "system": "http://unitsofmeasure.org",
          "value": 69.8,
          "unit": "mg/dL",
          "code": "mg/dL"
        },
        "referenceRange": [
          {
            "low": {
              "value": 70,
              "code": "mg/dL",
              "system": "http://unitsofmeasure.org"
            }
          },
          {
            "high": {
              "value": 99,
              "code": "mg/dL",
              "system": "http://unitsofmeasure.org"
            }
          }
        ],
        "interpretation": [
          {
            "coding": [
              {
                "code": "L",
                "system": "http://terminology.hl7.org/CodeSystem/v3-ObservationInterpretation",
                "display": "Low"
              }
            ]
          }
        ],
        "text": {
          "status": "generated",
          "div": "<div xmlns=\"http://www.w3.org/1999/xhtml\"><table class=\"hl7__eu__lab__report\"><tr><th>Test</th><th>18-Nov-2024</th><th>Reference&#xA0;Range</th><th>Unit</th></tr><tr><td>Glucose [Mass/volume] in Serum or Plasma</td><td>69.8</td><td>70 - 99</td><td>L</td><td>mg/dL</td></tr></table></div>"
        },
        "status": "final",
        "subject": {
          "reference": "urn:uuid:151f9d75-12b2-4bd9-b4a0-912381443006",
          "display": "Meaghan Neary"
        },
        "effectiveDateTime": "2024-11-18T22:11:04Z",
        "specimen": {
          "reference": "urn:uuid:f5b74097-8b02-485e-b400-09d501b4559b"
        }
      }
    },
    {
      "fullUrl": "urn:uuid:4f0b2b2c-2e66-4772-bd5e-1af1d5eed4f8",
      "resource": {
        "resourceType": "Observation",
        "id": "4f0b2b2c-2e66-4772-bd5e-1af1d5eed4f8",
        "meta": {
          "profile": [
            "http://hl7.eu/fhir/laboratory/StructureDefinition/Observation-resultslab-eu-lab"
          ]
        },
        "performer": [
          {
            "display": "The Central European Lab"
          }
        ],
        "category": [
          {
            "coding": [
              {
                "system": "http://terminology.hl7.org/CodeSystem/observation-category",
                "code": "laboratory"
              }
            ]
          }
        ],
        "code": {
          "coding": [
            {
              "code": "3094-0",
              "system": "http://loinc.org",
              "display": "Urea nitrogen [Mass/volume] in Serum or Plasma"
            }
          ],
          "text": "Urea nitrogen [Mass/volume] in Serum or Plasma"
        },
        "valueQuantity": {
          "system": "http://unitsofmeasure.org",
          "value": 19.6,
          "unit": "mg/dL",
          "code": "mg/dL"
        },
        "referenceRange": [
          {
            "low": {
              "value": 7,
              "code": "mg/dL",
              "system": "http://unitsofmeasure.org"
            }
          },
          {
            "high": {
              "value": 50,
              "code": "mg/dL",
              "system": "http://unitsofmeasure.org"
            }
          }
        ],
        "text": {
          "status": "generated",
          "div": "<div xmlns=\"http://www.w3.org/1999/xhtml\"><table class=\"hl7__eu__lab__report\"><tr><th>Test</th><th>18-Nov-2024</th><th>Reference&#xA0;Range</th><th>Unit</th></tr><tr><td>Urea nitrogen [Mass/volume] in Serum or Plasma</td><td>19.6</td><td>7 - 50</td><td></td><td>mg/dL</td></tr></table></div>"
        },
        "status": "final",
        "subject": {
          "reference": "urn:uuid:151f9d75-12b2-4bd9-b4a0-912381443006",
          "display": "Meaghan Neary"
        },
        "effectiveDateTime": "2024-11-18T22:11:04Z",
        "specimen": {
          "reference": "urn:uuid:f5b74097-8b02-485e-b400-09d501b4559b"
        }
      }
    },
    {
      "fullUrl": "urn:uuid:c3b0a8d3-5f4f-4b4a-af25-48d1a924b04c",
      "resource": {
        "resourceType": "Observation",
        "id": "c3b0a8d3-5f4f-4b4a-af25-48d1a924b04c",
        "meta": {
          "profile": [
            "http://hl7.eu/fhir/laboratory/StructureDefinition/Observation-resultslab-eu-lab"
          ]
        },
        "performer": [
          {
            "display": "The Central European Lab"
          }
        ],
        "category": [
          {
            "coding": [
              {
                "system": "http://terminology.hl7.org/CodeSystem/observation-category",
                "code": "laboratory"
              }
            ]
          }
        ],
        "code": {
          "coding": [
            {
              "code": "2160-0",
              "system": "http://loinc.org",
              "display": "Creatinine [Mass/volume] in Serum or Plasma"
            }
          ],
          "text": "Creatinine [Mass/volume] in Serum or Plasma"
        },
        "valueQuantity": {
          "system": "http://unitsofmeasure.org",
          "value": 2.1,
          "unit": "mg/dL",
          "code": "mg/dL"
        },
        "referenceRange": [
          {
            "low": {
              "value": 0.6,
              "code": "mg/dL",
              "system": "http://unitsofmeasure.org"
            }
          },
          {
            "high": {
              "value": 1.1,
              "code": "mg/dL",
              "system": "http://unitsofmeasure.org"
            }
          }
        ],
        "interpretation": [
          {
            "coding": [
              {
                "code": "H",
                "system": "http://terminology.hl7.org/CodeSystem/v3-ObservationInterpretation",
                "display": "High"
              }
            ]
          }
        ],
        "text": {
          "status": "generated",
          "div": "<div xmlns=\"http://www.w3.org/1999/xhtml\"><table class=\"hl7__eu__lab__report\"><tr><th>Test</th><th>18-Nov-2024</th><th>Reference&#xA0;Range</th><th>Unit</th></tr><tr><td>Creatinine [Mass/volume] in Serum or Plasma</td><td>2.1</td><td>0.6 - 1.1</td><td>H</td><td>mg/dL</td></tr></table></div>"
        },
        "status": "final",
        "subject": {
          "reference": "urn:uuid:151f9d75-12b2-4bd9-b4a0-912381443006",
          "display": "Meaghan Neary"
        },
        "effectiveDateTime": "2024-11-18T22:11:04Z",
        "specimen": {
          "reference": "urn:uuid:f5b74097-8b02-485e-b400-09d501b4559b"
        }
      }
    },
    {
      "fullUrl": "urn:uuid:38b89c98-1ef0-4018-b8ee-840c18d82d09",
      "resource": {
        "resourceType": "Observation",
        "id": "38b89c98-1ef0-4018-b8ee-840c18d82d09",
        "meta": {
          "profile": [
            "http://hl7.eu/fhir/laboratory/StructureDefinition/Observation-resultslab-eu-lab"
          ]
        },
        "performer": [
          {
            "display": "The Central European Lab"
          }
        ],
        "category": [
          {
            "coding": [
              {
                "system": "http://terminology.hl7.org/CodeSystem/observation-category",
                "code": "laboratory"
              }
            ]
          }
        ],
        "code": {
          "coding": [
            {
              "code": "17861-6",
              "system": "http://loinc.org",
              "display": "Calcium [Mass/volume] in Serum or Plasma"
            }
          ],
          "text": "Calcium [Mass/volume] in Serum or Plasma"
        },
        "valueQuantity": {
          "system": "http://unitsofmeasure.org",
          "value": 8.8,
          "unit": "mg/dL",
          "code": "mg/dL"
        },
        "referenceRange": [
          {
            "low": {
              "value": 8.6,
              "code": "mg/dL",
              "system": "http://unitsofmeasure.org"
            }
          },
          {
            "high": {
              "value": 10.4,
              "code": "mg/dL",
              "system": "http://unitsofmeasure.org"
            }
          }
        ],
        "text": {
          "status": "generated",
          "div": "<div xmlns=\"http://www.w3.org/1999/xhtml\"><table class=\"hl7__eu__lab__report\"><tr><th>Test</th><th>18-Nov-2024</th><th>Reference&#xA0;Range</th><th>Unit</th></tr><tr><td>Calcium [Mass/volume] in Serum or Plasma</td><td>8.8</td><td>8.6 - 10.4</td><td></td><td>mg/dL</td></tr></table></div>"
        },
        "status": "final",
        "subject": {
          "reference": "urn:uuid:151f9d75-12b2-4bd9-b4a0-912381443006",
          "display": "Meaghan Neary"
        },
        "effectiveDateTime": "2024-11-18T22:11:04Z",
        "specimen": {
          "reference": "urn:uuid:f5b74097-8b02-485e-b400-09d501b4559b"
        }
      }
    },
    {
      "fullUrl": "urn:uuid:004519f4-3d35-484b-ad0a-9fdc21181a11",
      "resource": {
        "resourceType": "Observation",
        "id": "004519f4-3d35-484b-ad0a-9fdc21181a11",
        "meta": {
          "profile": [
            "http://hl7.eu/fhir/laboratory/StructureDefinition/Observation-resultslab-eu-lab"
          ]
        },
        "performer": [
          {
            "display": "The Central European Lab"
          }
        ],
        "category": [
          {
            "coding": [
              {
                "system": "http://terminology.hl7.org/CodeSystem/observation-category",
                "code": "laboratory"
              }
            ]
          }
        ],
        "code": {
          "coding": [
            {
              "code": "2951-2",
              "system": "http://loinc.org",
              "display": "Sodium [Moles/volume] in Serum or Plasma"
            }
          ],
          "text": "Sodium [Moles/volume] in Serum or Plasma"
        },
        "valueQuantity": {
          "system": "http://unitsofmeasure.org",
          "value": 143.2,
          "unit": "mmol/L",
          "code": "mmol/L"
        },
        "referenceRange": [
          {
            "low": {
              "value": 135,
              "code": "mmol/L",
              "system": "http://unitsofmeasure.org"
            }
          },
          {
            "high": {
              "value": 145,
              "code": "mmol/L",
              "system": "http://unitsofmeasure.org"
            }
          }
        ],
        "text": {
          "status": "generated",
          "div": "<div xmlns=\"http://www.w3.org/1999/xhtml\"><table class=\"hl7__eu__lab__report\"><tr><th>Test</th><th>18-Nov-2024</th><th>Reference&#xA0;Range</th><th>Unit</th></tr><tr><td>Sodium [Moles/volume] in Serum or Plasma</td><td>143.2</td><td>135 - 145</td><td></td><td>mmol/L</td></tr></table></div>"
        },
        "status": "final",
        "subject": {
          "reference": "urn:uuid:151f9d75-12b2-4bd9-b4a0-912381443006",
          "display": "Meaghan Neary"
        },
        "effectiveDateTime": "2024-11-18T22:11:04Z",
        "specimen": {
          "reference": "urn:uuid:f5b74097-8b02-485e-b400-09d501b4559b"
        }
      }
    },
    {
      "fullUrl": "urn:uuid:d6bd14ef-c292-44af-9c1b-c39b5045a390",
      "resource": {
        "resourceType": "Observation",
        "id": "d6bd14ef-c292-44af-9c1b-c39b5045a390",
        "meta": {
          "profile": [
            "http://hl7.eu/fhir/laboratory/StructureDefinition/Observation-resultslab-eu-lab"
          ]
        },
        "performer": [
          {
            "display": "The Central European Lab"
          }
        ],
        "category": [
          {
            "coding": [
              {
                "system": "http://terminology.hl7.org/CodeSystem/observation-category",
                "code": "laboratory"
              }
            ]
          }
        ],
        "code": {
          "coding": [
            {
              "code": "2823-3",
              "system": "http://loinc.org",
              "display": "Potassium [Moles/volume] in Serum or Plasma"
            }
          ],
          "text": "Potassium [Moles/volume] in Serum or Plasma"
        },
        "valueQuantity": {
          "system": "http://unitsofmeasure.org",
          "value": 4.8,
          "unit": "mmol/L",
          "code": "mmol/L"
        },
        "referenceRange": [
          {
            "low": {
              "value": 3.5,
              "code": "mmol/L",
              "system": "http://unitsofmeasure.org"
            }
          },
          {
            "high": {
              "value": 5.1,
              "code": "mmol/L",
              "system": "http://unitsofmeasure.org"
            }
          }
        ],
        "text": {
          "status": "generated",
          "div": "<div xmlns=\"http://www.w3.org/1999/xhtml\"><table class=\"hl7__eu__lab__report\"><tr><th>Test</th><th>18-Nov-2024</th><th>Reference&#xA0;Range</th><th>Unit</th></tr><tr><td>Potassium [Moles/volume] in Serum or Plasma</td><td>4.8</td><td>3.5 - 5.1</td><td></td><td>mmol/L</td></tr></table></div>"
        },
        "status": "final",
        "subject": {
          "reference": "urn:uuid:151f9d75-12b2-4bd9-b4a0-912381443006",
          "display": "Meaghan Neary"
        },
        "effectiveDateTime": "2024-11-18T22:11:04Z",
        "specimen": {
          "reference": "urn:uuid:f5b74097-8b02-485e-b400-09d501b4559b"
        }
      }
    },
    {
      "fullUrl": "urn:uuid:d0ae0aa1-21e7-436e-81ee-fd736ccd1693",
      "resource": {
        "resourceType": "Observation",
        "id": "d0ae0aa1-21e7-436e-81ee-fd736ccd1693",
        "meta": {
          "profile": [
            "http://hl7.eu/fhir/laboratory/StructureDefinition/Observation-resultslab-eu-lab"
          ]
        },
        "performer": [
          {
            "display": "The Central European Lab"
          }
        ],
        "category": [
          {
            "coding": [
              {
                "system": "http://terminology.hl7.org/CodeSystem/observation-category",
                "code": "laboratory"
              }
            ]
          }
        ],
        "code": {
          "coding": [
            {
              "code": "2075-0",
              "system": "http://loinc.org",
              "display": "Chloride [Moles/volume] in Serum or Plasma"
            }
          ],
          "text": "Chloride [Moles/volume] in Serum or Plasma"
        },
        "valueQuantity": {
          "system": "http://unitsofmeasure.org",
          "value": 103.9,
          "unit": "mmol/L",
          "code": "mmol/L"
        },
        "referenceRange": [
          {
            "low": {
              "value": 98,
              "code": "mmol/L",
              "system": "http://unitsofmeasure.org"
            }
          },
          {
            "high": {
              "value": 108,
              "code": "mmol/L",
              "system": "http://unitsofmeasure.org"
            }
          }
        ],
        "text": {
          "status": "generated",
          "div": "<div xmlns=\"http://www.w3.org/1999/xhtml\"><table class=\"hl7__eu__lab__report\"><tr><th>Test</th><th>18-Nov-2024</th><th>Reference&#xA0;Range</th><th>Unit</th></tr><tr><td>Chloride [Moles/volume] in Serum or Plasma</td><td>103.9</td><td>98 - 108</td><td></td><td>mmol/L</td></tr></table></div>"
        },
        "status": "final",
        "subject": {
          "reference": "urn:uuid:151f9d75-12b2-4bd9-b4a0-912381443006",
          "display": "Meaghan Neary"
        },
        "effectiveDateTime": "2024-11-18T22:11:04Z",
        "specimen": {
          "reference": "urn:uuid:f5b74097-8b02-485e-b400-09d501b4559b"
        }
      }
    },
    {
      "fullUrl": "urn:uuid:21f576d6-83eb-4538-82de-1343361a0e22",
      "resource": {
        "resourceType": "Observation",
        "id": "21f576d6-83eb-4538-82de-1343361a0e22",
        "meta": {
          "profile": [
            "http://hl7.eu/fhir/laboratory/StructureDefinition/Observation-resultslab-eu-lab"
          ]
        },
        "performer": [
          {
            "display": "The Central European Lab"
          }
        ],
        "category": [
          {
            "coding": [
              {
                "system": "http://terminology.hl7.org/CodeSystem/observation-category",
                "code": "laboratory"
              }
            ]
          }
        ],
        "code": {
          "coding": [
            {
              "code": "2028-9",
              "system": "http://loinc.org",
              "display": "Carbon dioxide, total [Moles/volume] in Serum or Plasma"
            }
          ],
          "text": "Carbon dioxide, total [Moles/volume] in Serum or Plasma"
        },
        "valueQuantity": {
          "system": "http://unitsofmeasure.org",
          "value": 27.4,
          "unit": "mmol/L",
          "code": "mmol/L"
        },
        "referenceRange": [
          {
            "low": {
              "value": 22,
              "code": "mmol/L",
              "system": "http://unitsofmeasure.org"
            }
          },
          {
            "high": {
              "value": 32,
              "code": "mmol/L",
              "system": "http://unitsofmeasure.org"
            }
          }
        ],
        "text": {
          "status": "generated",
          "div": "<div xmlns=\"http://www.w3.org/1999/xhtml\"><table class=\"hl7__eu__lab__report\"><tr><th>Test</th><th>18-Nov-2024</th><th>Reference&#xA0;Range</th><th>Unit</th></tr><tr><td>Carbon dioxide, total [Moles/volume] in Serum or Plasma</td><td>27.4</td><td>22 - 32</td><td></td><td>mmol/L</td></tr></table></div>"
        },
        "status": "final",
        "subject": {
          "reference": "urn:uuid:151f9d75-12b2-4bd9-b4a0-912381443006",
          "display": "Meaghan Neary"
        },
        "effectiveDateTime": "2024-11-18T22:11:04Z",
        "specimen": {
          "reference": "urn:uuid:f5b74097-8b02-485e-b400-09d501b4559b"
        }
      }
    },
    {
      "fullUrl": "urn:uuid:bacd0286-0b19-4b94-930c-001624dee7b8",
      "resource": {
        "resourceType": "Observation",
        "id": "bacd0286-0b19-4b94-930c-001624dee7b8",
        "meta": {
          "profile": [
            "http://hl7.eu/fhir/laboratory/StructureDefinition/Observation-resultslab-eu-lab"
          ]
        },
        "performer": [
          {
            "display": "The Central European Lab"
          }
        ],
        "category": [
          {
            "coding": [
              {
                "system": "http://terminology.hl7.org/CodeSystem/observation-category",
                "code": "laboratory"
              }
            ]
          }
        ],
        "code": {
          "coding": [
            {
              "code": "5767-9",
              "system": "http://loinc.org",
              "display": "Appearance of Urine"
            }
          ],
          "text": "Appearance of Urine"
        },
        "text": {
          "status": "generated",
          "div": "<div xmlns=\"http://www.w3.org/1999/xhtml\"><table class=\"hl7__eu__lab__report\"><tr><th>Test</th><th>18-Nov-2024</th><th>Reference&#xA0;Range</th><th>Unit</th></tr><tr><td>Appearance of Urine</td></tr></table></div>"
        },
        "status": "final",
        "subject": {
          "reference": "urn:uuid:151f9d75-12b2-4bd9-b4a0-912381443006",
          "display": "Meaghan Neary"
        },
        "effectiveDateTime": "2024-11-18T22:11:04Z",
        "specimen": {
          "reference": "urn:uuid:f745819b-d9ec-4886-afe4-1917cd96b023"
        }
      }
    },
    {
      "fullUrl": "urn:uuid:d4c2142f-e0d7-47fb-80bb-1bd9a46eeb1b",
      "resource": {
        "resourceType": "Observation",
        "id": "d4c2142f-e0d7-47fb-80bb-1bd9a46eeb1b",
        "meta": {
          "profile": [
            "http://hl7.eu/fhir/laboratory/StructureDefinition/Observation-resultslab-eu-lab"
          ]
        },
        "performer": [
          {
            "display": "The Central European Lab"
          }
        ],
        "category": [
          {
            "coding": [
              {
                "system": "http://terminology.hl7.org/CodeSystem/observation-category",
                "code": "laboratory"
              }
            ]
          }
        ],
        "code": {
          "coding": [
            {
              "code": "34533-0",
              "system": "http://loinc.org",
              "display": "Odor of Urine"
            }
          ],
          "text": "Odor of Urine"
        },
        "text": {
          "status": "generated",
          "div": "<div xmlns=\"http://www.w3.org/1999/xhtml\"><table class=\"hl7__eu__lab__report\"><tr><th>Test</th><th>18-Nov-2024</th><th>Reference&#xA0;Range</th><th>Unit</th></tr><tr><td>Odor of Urine</td></tr></table></div>"
        },
        "status": "final",
        "subject": {
          "reference": "urn:uuid:151f9d75-12b2-4bd9-b4a0-912381443006",
          "display": "Meaghan Neary"
        },
        "effectiveDateTime": "2024-11-18T22:11:04Z",
        "specimen": {
          "reference": "urn:uuid:f745819b-d9ec-4886-afe4-1917cd96b023"
        }
      }
    },
    {
      "fullUrl": "urn:uuid:629ea448-a3c7-4159-bab4-163d4e8d1c53",
      "resource": {
        "resourceType": "Observation",
        "id": "629ea448-a3c7-4159-bab4-163d4e8d1c53",
        "meta": {
          "profile": [
            "http://hl7.eu/fhir/laboratory/StructureDefinition/Observation-resultslab-eu-lab"
          ]
        },
        "performer": [
          {
            "display": "The Central European Lab"
          }
        ],
        "category": [
          {
            "coding": [
              {
                "system": "http://terminology.hl7.org/CodeSystem/observation-category",
                "code": "laboratory"
              }
            ]
          }
        ],
        "code": {
          "coding": [
            {
              "code": "32167-9",
              "system": "http://loinc.org",
              "display": "Clarity of Urine"
            }
          ],
          "text": "Clarity of Urine"
        },
        "text": {
          "status": "generated",
          "div": "<div xmlns=\"http://www.w3.org/1999/xhtml\"><table class=\"hl7__eu__lab__report\"><tr><th>Test</th><th>18-Nov-2024</th><th>Reference&#xA0;Range</th><th>Unit</th></tr><tr><td>Clarity of Urine</td></tr></table></div>"
        },
        "status": "final",
        "subject": {
          "reference": "urn:uuid:151f9d75-12b2-4bd9-b4a0-912381443006",
          "display": "Meaghan Neary"
        },
        "effectiveDateTime": "2024-11-18T22:11:04Z",
        "specimen": {
          "reference": "urn:uuid:f745819b-d9ec-4886-afe4-1917cd96b023"
        }
      }
    },
    {
      "fullUrl": "urn:uuid:17ef1d87-9640-49ae-9270-2bf10e8420e7",
      "resource": {
        "resourceType": "Observation",
        "id": "17ef1d87-9640-49ae-9270-2bf10e8420e7",
        "meta": {
          "profile": [
            "http://hl7.eu/fhir/laboratory/StructureDefinition/Observation-resultslab-eu-lab"
          ]
        },
        "performer": [
          {
            "display": "The Central European Lab"
          }
        ],
        "category": [
          {
            "coding": [
              {
                "system": "http://terminology.hl7.org/CodeSystem/observation-category",
                "code": "laboratory"
              }
            ]
          }
        ],
        "code": {
          "coding": [
            {
              "code": "5778-6",
              "system": "http://loinc.org",
              "display": "Color of Urine"
            }
          ],
          "text": "Color of Urine"
        },
        "text": {
          "status": "generated",
          "div": "<div xmlns=\"http://www.w3.org/1999/xhtml\"><table class=\"hl7__eu__lab__report\"><tr><th>Test</th><th>18-Nov-2024</th><th>Reference&#xA0;Range</th><th>Unit</th></tr><tr><td>Color of Urine</td></tr></table></div>"
        },
        "status": "final",
        "subject": {
          "reference": "urn:uuid:151f9d75-12b2-4bd9-b4a0-912381443006",
          "display": "Meaghan Neary"
        },
        "effectiveDateTime": "2024-11-18T22:11:04Z",
        "specimen": {
          "reference": "urn:uuid:f745819b-d9ec-4886-afe4-1917cd96b023"
        }
      }
    },
    {
      "fullUrl": "urn:uuid:e54ba267-f4b4-4687-aed0-8ac275b1400f",
      "resource": {
        "resourceType": "Observation",
        "id": "e54ba267-f4b4-4687-aed0-8ac275b1400f",
        "meta": {
          "profile": [
            "http://hl7.eu/fhir/laboratory/StructureDefinition/Observation-resultslab-eu-lab"
          ]
        },
        "performer": [
          {
            "display": "The Central European Lab"
          }
        ],
        "category": [
          {
            "coding": [
              {
                "system": "http://terminology.hl7.org/CodeSystem/observation-category",
                "code": "laboratory"
              }
            ]
          }
        ],
        "code": {
          "coding": [
            {
              "code": "5792-7",
              "system": "http://loinc.org",
              "display": "Glucose [Mass/volume] in Urine by Test strip"
            }
          ],
          "text": "Glucose [Mass/volume] in Urine by Test strip"
        },
        "valueQuantity": {
          "system": "http://unitsofmeasure.org",
          "value": 2.4,
          "unit": "mg/dL",
          "code": "mg/dL"
        },
        "referenceRange": [
          {
            "low": {
              "value": 0.8,
              "code": "mg/dL",
              "system": "http://unitsofmeasure.org"
            }
          },
          {
            "high": {
              "value": 0,
              "code": "mg/dL",
              "system": "http://unitsofmeasure.org"
            }
          }
        ],
        "interpretation": [
          {
            "coding": [
              {
                "code": "H",
                "system": "http://terminology.hl7.org/CodeSystem/v3-ObservationInterpretation",
                "display": "High"
              }
            ]
          }
        ],
        "text": {
          "status": "generated",
          "div": "<div xmlns=\"http://www.w3.org/1999/xhtml\"><table class=\"hl7__eu__lab__report\"><tr><th>Test</th><th>18-Nov-2024</th><th>Reference&#xA0;Range</th><th>Unit</th></tr><tr><td>Glucose [Mass/volume] in Urine by Test strip</td><td>2.4</td><td>0.8 - 0</td><td>H</td><td>mg/dL</td></tr></table></div>"
        },
        "status": "final",
        "subject": {
          "reference": "urn:uuid:151f9d75-12b2-4bd9-b4a0-912381443006",
          "display": "Meaghan Neary"
        },
        "effectiveDateTime": "2024-11-18T22:11:04Z",
        "specimen": {
          "reference": "urn:uuid:f745819b-d9ec-4886-afe4-1917cd96b023"
        }
      }
    },
    {
      "fullUrl": "urn:uuid:cb3db973-02cb-4fbb-8a2d-4efa4ba463bf",
      "resource": {
        "resourceType": "Observation",
        "id": "cb3db973-02cb-4fbb-8a2d-4efa4ba463bf",
        "meta": {
          "profile": [
            "http://hl7.eu/fhir/laboratory/StructureDefinition/Observation-resultslab-eu-lab"
          ]
        },
        "performer": [
          {
            "display": "The Central European Lab"
          }
        ],
        "category": [
          {
            "coding": [
              {
                "system": "http://terminology.hl7.org/CodeSystem/observation-category",
                "code": "laboratory"
              }
            ]
          }
        ],
        "code": {
          "coding": [
            {
              "code": "25428-4",
              "system": "http://loinc.org",
              "display": "Glucose [Presence] in Urine by Test strip"
            }
          ],
          "text": "Glucose [Presence] in Urine by Test strip"
        },
        "text": {
          "status": "generated",
          "div": "<div xmlns=\"http://www.w3.org/1999/xhtml\"><table class=\"hl7__eu__lab__report\"><tr><th>Test</th><th>18-Nov-2024</th><th>Reference&#xA0;Range</th><th>Unit</th></tr><tr><td>Glucose [Presence] in Urine by Test strip</td></tr></table></div>"
        },
        "status": "final",
        "subject": {
          "reference": "urn:uuid:151f9d75-12b2-4bd9-b4a0-912381443006",
          "display": "Meaghan Neary"
        },
        "effectiveDateTime": "2024-11-18T22:11:04Z",
        "specimen": {
          "reference": "urn:uuid:f745819b-d9ec-4886-afe4-1917cd96b023"
        }
      }
    },
    {
      "fullUrl": "urn:uuid:13657f4e-0549-42d0-bb7a-ec58094860a8",
      "resource": {
        "resourceType": "Observation",
        "id": "13657f4e-0549-42d0-bb7a-ec58094860a8",
        "meta": {
          "profile": [
            "http://hl7.eu/fhir/laboratory/StructureDefinition/Observation-resultslab-eu-lab"
          ]
        },
        "performer": [
          {
            "display": "The Central European Lab"
          }
        ],
        "category": [
          {
            "coding": [
              {
                "system": "http://terminology.hl7.org/CodeSystem/observation-category",
                "code": "laboratory"
              }
            ]
          }
        ],
        "code": {
          "coding": [
            {
              "code": "20505-4",
              "system": "http://loinc.org",
              "display": "Bilirubin.total [Mass/volume] in Urine by Test strip"
            }
          ],
          "text": "Bilirubin.total [Mass/volume] in Urine by Test strip"
        },
        "valueQuantity": {
          "system": "http://unitsofmeasure.org",
          "value": 0.7,
          "unit": "mg/dL",
          "code": "mg/dL"
        },
        "referenceRange": [
          {
            "low": {
              "value": 0,
              "code": "mg/dL",
              "system": "http://unitsofmeasure.org"
            }
          },
          {
            "high": {
              "value": 1,
              "code": "mg/dL",
              "system": "http://unitsofmeasure.org"
            }
          }
        ],
        "text": {
          "status": "generated",
          "div": "<div xmlns=\"http://www.w3.org/1999/xhtml\"><table class=\"hl7__eu__lab__report\"><tr><th>Test</th><th>18-Nov-2024</th><th>Reference&#xA0;Range</th><th>Unit</th></tr><tr><td>Bilirubin.total [Mass/volume] in Urine by Test strip</td><td>0.7</td><td>0 - 1</td><td></td><td>mg/dL</td></tr></table></div>"
        },
        "status": "final",
        "subject": {
          "reference": "urn:uuid:151f9d75-12b2-4bd9-b4a0-912381443006",
          "display": "Meaghan Neary"
        },
        "effectiveDateTime": "2024-11-18T22:11:04Z",
        "specimen": {
          "reference": "urn:uuid:f745819b-d9ec-4886-afe4-1917cd96b023"
        }
      }
    },
    {
      "fullUrl": "urn:uuid:4310b40e-c287-4bae-9dcf-76824b9326ae",
      "resource": {
        "resourceType": "Observation",
        "id": "4310b40e-c287-4bae-9dcf-76824b9326ae",
        "meta": {
          "profile": [
            "http://hl7.eu/fhir/laboratory/StructureDefinition/Observation-resultslab-eu-lab"
          ]
        },
        "performer": [
          {
            "display": "The Central European Lab"
          }
        ],
        "category": [
          {
            "coding": [
              {
                "system": "http://terminology.hl7.org/CodeSystem/observation-category",
                "code": "laboratory"
              }
            ]
          }
        ],
        "code": {
          "coding": [
            {
              "code": "5770-3",
              "system": "http://loinc.org",
              "display": "Bilirubin.total [Presence] in Urine by Test strip"
            }
          ],
          "text": "Bilirubin.total [Presence] in Urine by Test strip"
        },
        "text": {
          "status": "generated",
          "div": "<div xmlns=\"http://www.w3.org/1999/xhtml\"><table class=\"hl7__eu__lab__report\"><tr><th>Test</th><th>18-Nov-2024</th><th>Reference&#xA0;Range</th><th>Unit</th></tr><tr><td>Bilirubin.total [Presence] in Urine by Test strip</td></tr></table></div>"
        },
        "status": "final",
        "subject": {
          "reference": "urn:uuid:151f9d75-12b2-4bd9-b4a0-912381443006",
          "display": "Meaghan Neary"
        },
        "effectiveDateTime": "2024-11-18T22:11:04Z",
        "specimen": {
          "reference": "urn:uuid:f745819b-d9ec-4886-afe4-1917cd96b023"
        }
      }
    },
    {
      "fullUrl": "urn:uuid:039a034e-712c-465e-88bb-092b37e1866b",
      "resource": {
        "resourceType": "Observation",
        "id": "039a034e-712c-465e-88bb-092b37e1866b",
        "meta": {
          "profile": [
            "http://hl7.eu/fhir/laboratory/StructureDefinition/Observation-resultslab-eu-lab"
          ]
        },
        "performer": [
          {
            "display": "The Central European Lab"
          }
        ],
        "category": [
          {
            "coding": [
              {
                "system": "http://terminology.hl7.org/CodeSystem/observation-category",
                "code": "laboratory"
              }
            ]
          }
        ],
        "code": {
          "coding": [
            {
              "code": "5797-6",
              "system": "http://loinc.org",
              "display": "Ketones [Mass/volume] in Urine by Test strip"
            }
          ],
          "text": "Ketones [Mass/volume] in Urine by Test strip"
        },
        "valueQuantity": {
          "system": "http://unitsofmeasure.org",
          "value": 17.4,
          "unit": "mg/dL",
          "code": "mg/dL"
        },
        "referenceRange": [
          {
            "low": {
              "value": 0,
              "code": "mg/dL",
              "system": "http://unitsofmeasure.org"
            }
          },
          {
            "high": {
              "value": 4,
              "code": "mg/dL",
              "system": "http://unitsofmeasure.org"
            }
          }
        ],
        "interpretation": [
          {
            "coding": [
              {
                "code": "H",
                "system": "http://terminology.hl7.org/CodeSystem/v3-ObservationInterpretation",
                "display": "High"
              }
            ]
          }
        ],
        "text": {
          "status": "generated",
          "div": "<div xmlns=\"http://www.w3.org/1999/xhtml\"><table class=\"hl7__eu__lab__report\"><tr><th>Test</th><th>18-Nov-2024</th><th>Reference&#xA0;Range</th><th>Unit</th></tr><tr><td>Ketones [Mass/volume] in Urine by Test strip</td><td>17.4</td><td>0 - 4</td><td>H</td><td>mg/dL</td></tr></table></div>"
        },
        "status": "final",
        "subject": {
          "reference": "urn:uuid:151f9d75-12b2-4bd9-b4a0-912381443006",
          "display": "Meaghan Neary"
        },
        "effectiveDateTime": "2024-11-18T22:11:04Z",
        "specimen": {
          "reference": "urn:uuid:f745819b-d9ec-4886-afe4-1917cd96b023"
        }
      }
    },
    {
      "fullUrl": "urn:uuid:5baef626-6fd9-46f1-9e2f-208db8ec9491",
      "resource": {
        "resourceType": "Observation",
        "id": "5baef626-6fd9-46f1-9e2f-208db8ec9491",
        "meta": {
          "profile": [
            "http://hl7.eu/fhir/laboratory/StructureDefinition/Observation-resultslab-eu-lab"
          ]
        },
        "performer": [
          {
            "display": "The Central European Lab"
          }
        ],
        "category": [
          {
            "coding": [
              {
                "system": "http://terminology.hl7.org/CodeSystem/observation-category",
                "code": "laboratory"
              }
            ]
          }
        ],
        "code": {
          "coding": [
            {
              "code": "2514-8",
              "system": "http://loinc.org",
              "display": "Ketones [Presence] in Urine by Test strip"
            }
          ],
          "text": "Ketones [Presence] in Urine by Test strip"
        },
        "text": {
          "status": "generated",
          "div": "<div xmlns=\"http://www.w3.org/1999/xhtml\"><table class=\"hl7__eu__lab__report\"><tr><th>Test</th><th>18-Nov-2024</th><th>Reference&#xA0;Range</th><th>Unit</th></tr><tr><td>Ketones [Presence] in Urine by Test strip</td></tr></table></div>"
        },
        "status": "final",
        "subject": {
          "reference": "urn:uuid:151f9d75-12b2-4bd9-b4a0-912381443006",
          "display": "Meaghan Neary"
        },
        "effectiveDateTime": "2024-11-18T22:11:04Z",
        "specimen": {
          "reference": "urn:uuid:f745819b-d9ec-4886-afe4-1917cd96b023"
        }
      }
    },
    {
      "fullUrl": "urn:uuid:fb915cdf-2b0d-4c27-b9ff-3f7f1a65a496",
      "resource": {
        "resourceType": "Observation",
        "id": "fb915cdf-2b0d-4c27-b9ff-3f7f1a65a496",
        "meta": {
          "profile": [
            "http://hl7.eu/fhir/laboratory/StructureDefinition/Observation-resultslab-eu-lab"
          ]
        },
        "performer": [
          {
            "display": "The Central European Lab"
          }
        ],
        "category": [
          {
            "coding": [
              {
                "system": "http://terminology.hl7.org/CodeSystem/observation-category",
                "code": "laboratory"
              }
            ]
          }
        ],
        "code": {
          "coding": [
            {
              "code": "5811-5",
              "system": "http://loinc.org",
              "display": "Specific gravity of Urine by Test strip"
            }
          ],
          "text": "Specific gravity of Urine by Test strip"
        },
        "valueQuantity": {
          "system": "http://unitsofmeasure.org",
          "value": 1,
          "unit": "{nominal}",
          "code": "{nominal}"
        },
        "referenceRange": [
          {
            "low": {
              "value": 1.005,
              "code": "g/mL",
              "system": "http://unitsofmeasure.org"
            }
          },
          {
            "high": {
              "value": 1.03,
              "code": "g/mL",
              "system": "http://unitsofmeasure.org"
            }
          }
        ],
        "interpretation": [
          {
            "coding": [
              {
                "code": "L",
                "system": "http://terminology.hl7.org/CodeSystem/v3-ObservationInterpretation",
                "display": "Low"
              }
            ]
          }
        ],
        "text": {
          "status": "generated",
          "div": "<div xmlns=\"http://www.w3.org/1999/xhtml\"><table class=\"hl7__eu__lab__report\"><tr><th>Test</th><th>18-Nov-2024</th><th>Reference&#xA0;Range</th><th>Unit</th></tr><tr><td>Specific gravity of Urine by Test strip</td><td>1.0</td><td>1.005 - 1.03</td><td>L</td><td>{nominal}</td></tr></table></div>"
        },
        "status": "final",
        "subject": {
          "reference": "urn:uuid:151f9d75-12b2-4bd9-b4a0-912381443006",
          "display": "Meaghan Neary"
        },
        "effectiveDateTime": "2024-11-18T22:11:04Z",
        "specimen": {
          "reference": "urn:uuid:f745819b-d9ec-4886-afe4-1917cd96b023"
        }
      }
    },
    {
      "fullUrl": "urn:uuid:79eaeb24-4636-4c0f-a0cc-8de9ae0426dc",
      "resource": {
        "resourceType": "Observation",
        "id": "79eaeb24-4636-4c0f-a0cc-8de9ae0426dc",
        "meta": {
          "profile": [
            "http://hl7.eu/fhir/laboratory/StructureDefinition/Observation-resultslab-eu-lab"
          ]
        },
        "performer": [
          {
            "display": "The Central European Lab"
          }
        ],
        "category": [
          {
            "coding": [
              {
                "system": "http://terminology.hl7.org/CodeSystem/observation-category",
                "code": "laboratory"
              }
            ]
          }
        ],
        "code": {
          "coding": [
            {
              "code": "5803-2",
              "system": "http://loinc.org",
              "display": "pH of Urine by Test strip"
            }
          ],
          "text": "pH of Urine by Test strip"
        },
        "valueQuantity": {
          "system": "http://unitsofmeasure.org",
          "value": 6.2,
          "unit": "pH",
          "code": "pH"
        },
        "referenceRange": [
          {
            "low": {
              "value": 4.6,
              "code": "pH",
              "system": "http://unitsofmeasure.org"
            }
          },
          {
            "high": {
              "value": 7,
              "code": "pH",
              "system": "http://unitsofmeasure.org"
            }
          }
        ],
        "text": {
          "status": "generated",
          "div": "<div xmlns=\"http://www.w3.org/1999/xhtml\"><table class=\"hl7__eu__lab__report\"><tr><th>Test</th><th>18-Nov-2024</th><th>Reference&#xA0;Range</th><th>Unit</th></tr><tr><td>pH of Urine by Test strip</td><td>6.2</td><td>4.6 - 7</td><td></td><td>pH</td></tr></table></div>"
        },
        "status": "final",
        "subject": {
          "reference": "urn:uuid:151f9d75-12b2-4bd9-b4a0-912381443006",
          "display": "Meaghan Neary"
        },
        "effectiveDateTime": "2024-11-18T22:11:04Z",
        "specimen": {
          "reference": "urn:uuid:f745819b-d9ec-4886-afe4-1917cd96b023"
        }
      }
    },
    {
      "fullUrl": "urn:uuid:419be0dc-7e9d-4a8d-8000-06e9b52fe49e",
      "resource": {
        "resourceType": "Observation",
        "id": "419be0dc-7e9d-4a8d-8000-06e9b52fe49e",
        "meta": {
          "profile": [
            "http://hl7.eu/fhir/laboratory/StructureDefinition/Observation-resultslab-eu-lab"
          ]
        },
        "performer": [
          {
            "display": "The Central European Lab"
          }
        ],
        "category": [
          {
            "coding": [
              {
                "system": "http://terminology.hl7.org/CodeSystem/observation-category",
                "code": "laboratory"
              }
            ]
          }
        ],
        "code": {
          "coding": [
            {
              "code": "5804-0",
              "system": "http://loinc.org",
              "display": "Protein [Mass/volume] in Urine by Test strip"
            }
          ],
          "text": "Protein [Mass/volume] in Urine by Test strip"
        },
        "valueQuantity": {
          "system": "http://unitsofmeasure.org",
          "value": 282.2,
          "unit": "mg/dL",
          "code": "mg/dL"
        },
        "referenceRange": [
          {
            "low": {
              "value": 0,
              "code": "mg/dL",
              "system": "http://unitsofmeasure.org"
            }
          },
          {
            "high": {
              "value": 14,
              "code": "mg/dL",
              "system": "http://unitsofmeasure.org"
            }
          }
        ],
        "interpretation": [
          {
            "coding": [
              {
                "code": "H",
                "system": "http://terminology.hl7.org/CodeSystem/v3-ObservationInterpretation",
                "display": "High"
              }
            ]
          }
        ],
        "text": {
          "status": "generated",
          "div": "<div xmlns=\"http://www.w3.org/1999/xhtml\"><table class=\"hl7__eu__lab__report\"><tr><th>Test</th><th>18-Nov-2024</th><th>Reference&#xA0;Range</th><th>Unit</th></tr><tr><td>Protein [Mass/volume] in Urine by Test strip</td><td>282.2</td><td>0 - 14</td><td>H</td><td>mg/dL</td></tr></table></div>"
        },
        "status": "final",
        "subject": {
          "reference": "urn:uuid:151f9d75-12b2-4bd9-b4a0-912381443006",
          "display": "Meaghan Neary"
        },
        "effectiveDateTime": "2024-11-18T22:11:04Z",
        "specimen": {
          "reference": "urn:uuid:f745819b-d9ec-4886-afe4-1917cd96b023"
        }
      }
    },
    {
      "fullUrl": "urn:uuid:83c38850-8377-4bdc-aefb-41845fcd2b9e",
      "resource": {
        "resourceType": "Observation",
        "id": "83c38850-8377-4bdc-aefb-41845fcd2b9e",
        "meta": {
          "profile": [
            "http://hl7.eu/fhir/laboratory/StructureDefinition/Observation-resultslab-eu-lab"
          ]
        },
        "performer": [
          {
            "display": "The Central European Lab"
          }
        ],
        "category": [
          {
            "coding": [
              {
                "system": "http://terminology.hl7.org/CodeSystem/observation-category",
                "code": "laboratory"
              }
            ]
          }
        ],
        "code": {
          "coding": [
            {
              "code": "20454-5",
              "system": "http://loinc.org",
              "display": "Protein [Presence] in Urine by Test strip"
            }
          ],
          "text": "Protein [Presence] in Urine by Test strip"
        },
        "text": {
          "status": "generated",
          "div": "<div xmlns=\"http://www.w3.org/1999/xhtml\"><table class=\"hl7__eu__lab__report\"><tr><th>Test</th><th>18-Nov-2024</th><th>Reference&#xA0;Range</th><th>Unit</th></tr><tr><td>Protein [Presence] in Urine by Test strip</td></tr></table></div>"
        },
        "status": "final",
        "subject": {
          "reference": "urn:uuid:151f9d75-12b2-4bd9-b4a0-912381443006",
          "display": "Meaghan Neary"
        },
        "effectiveDateTime": "2024-11-18T22:11:04Z",
        "specimen": {
          "reference": "urn:uuid:f745819b-d9ec-4886-afe4-1917cd96b023"
        }
      }
    },
    {
      "fullUrl": "urn:uuid:b29fdda2-14e0-4732-ba5e-f28ae4a33e61",
      "resource": {
        "resourceType": "Observation",
        "id": "b29fdda2-14e0-4732-ba5e-f28ae4a33e61",
        "meta": {
          "profile": [
            "http://hl7.eu/fhir/laboratory/StructureDefinition/Observation-resultslab-eu-lab"
          ]
        },
        "performer": [
          {
            "display": "The Central European Lab"
          }
        ],
        "category": [
          {
            "coding": [
              {
                "system": "http://terminology.hl7.org/CodeSystem/observation-category",
                "code": "laboratory"
              }
            ]
          }
        ],
        "code": {
          "coding": [
            {
              "code": "5802-4",
              "system": "http://loinc.org",
              "display": "Nitrite [Presence] in Urine by Test strip"
            }
          ],
          "text": "Nitrite [Presence] in Urine by Test strip"
        },
        "text": {
          "status": "generated",
          "div": "<div xmlns=\"http://www.w3.org/1999/xhtml\"><table class=\"hl7__eu__lab__report\"><tr><th>Test</th><th>18-Nov-2024</th><th>Reference&#xA0;Range</th><th>Unit</th></tr><tr><td>Nitrite [Presence] in Urine by Test strip</td></tr></table></div>"
        },
        "status": "final",
        "subject": {
          "reference": "urn:uuid:151f9d75-12b2-4bd9-b4a0-912381443006",
          "display": "Meaghan Neary"
        },
        "effectiveDateTime": "2024-11-18T22:11:04Z",
        "specimen": {
          "reference": "urn:uuid:f745819b-d9ec-4886-afe4-1917cd96b023"
        }
      }
    },
    {
      "fullUrl": "urn:uuid:0b3f8dff-195b-4cf0-9554-170e4c18a3aa",
      "resource": {
        "resourceType": "Observation",
        "id": "0b3f8dff-195b-4cf0-9554-170e4c18a3aa",
        "meta": {
          "profile": [
            "http://hl7.eu/fhir/laboratory/StructureDefinition/Observation-resultslab-eu-lab"
          ]
        },
        "performer": [
          {
            "display": "The Central European Lab"
          }
        ],
        "category": [
          {
            "coding": [
              {
                "system": "http://terminology.hl7.org/CodeSystem/observation-category",
                "code": "laboratory"
              }
            ]
          }
        ],
        "code": {
          "coding": [
            {
              "code": "5794-3",
              "system": "http://loinc.org",
              "display": "Hemoglobin [Presence] in Urine by Test strip"
            }
          ],
          "text": "Hemoglobin [Presence] in Urine by Test strip"
        },
        "text": {
          "status": "generated",
          "div": "<div xmlns=\"http://www.w3.org/1999/xhtml\"><table class=\"hl7__eu__lab__report\"><tr><th>Test</th><th>18-Nov-2024</th><th>Reference&#xA0;Range</th><th>Unit</th></tr><tr><td>Hemoglobin [Presence] in Urine by Test strip</td></tr></table></div>"
        },
        "status": "final",
        "subject": {
          "reference": "urn:uuid:151f9d75-12b2-4bd9-b4a0-912381443006",
          "display": "Meaghan Neary"
        },
        "effectiveDateTime": "2024-11-18T22:11:04Z",
        "specimen": {
          "reference": "urn:uuid:f745819b-d9ec-4886-afe4-1917cd96b023"
        }
      }
    },
    {
      "fullUrl": "urn:uuid:907ce482-903d-44d0-9592-420a3f123b25",
      "resource": {
        "resourceType": "Observation",
        "id": "907ce482-903d-44d0-9592-420a3f123b25",
        "meta": {
          "profile": [
            "http://hl7.eu/fhir/laboratory/StructureDefinition/Observation-resultslab-eu-lab"
          ]
        },
        "performer": [
          {
            "display": "The Central European Lab"
          }
        ],
        "category": [
          {
            "coding": [
              {
                "system": "http://terminology.hl7.org/CodeSystem/observation-category",
                "code": "laboratory"
              }
            ]
          }
        ],
        "code": {
          "coding": [
            {
              "code": "5799-2",
              "system": "http://loinc.org",
              "display": "Leukocyte esterase [Presence] in Urine by Test strip"
            }
          ],
          "text": "Leukocyte esterase [Presence] in Urine by Test strip"
        },
        "text": {
          "status": "generated",
          "div": "<div xmlns=\"http://www.w3.org/1999/xhtml\"><table class=\"hl7__eu__lab__report\"><tr><th>Test</th><th>18-Nov-2024</th><th>Reference&#xA0;Range</th><th>Unit</th></tr><tr><td>Leukocyte esterase [Presence] in Urine by Test strip</td></tr></table></div>"
        },
        "status": "final",
        "subject": {
          "reference": "urn:uuid:151f9d75-12b2-4bd9-b4a0-912381443006",
          "display": "Meaghan Neary"
        },
        "effectiveDateTime": "2024-11-18T22:11:04Z",
        "specimen": {
          "reference": "urn:uuid:f745819b-d9ec-4886-afe4-1917cd96b023"
        }
      }
    },
    {
      "fullUrl": "urn:uuid:91efb945-dafc-425f-8440-e2df5a9c726d",
      "resource": {
        "resourceType": "Observation",
        "id": "91efb945-dafc-425f-8440-e2df5a9c726d",
        "meta": {
          "profile": [
            "http://hl7.eu/fhir/laboratory/StructureDefinition/Observation-resultslab-eu-lab"
          ]
        },
        "performer": [
          {
            "display": "The Central European Lab"
          }
        ],
        "category": [
          {
            "coding": [
              {
                "system": "http://terminology.hl7.org/CodeSystem/observation-category",
                "code": "laboratory"
              }
            ]
          }
        ],
        "code": {
          "coding": [
            {
              "code": "4548-4",
              "system": "http://loinc.org",
              "display": "Hemoglobin A1c/Hemoglobin.total in Blood"
            }
          ],
          "text": "Hemoglobin A1c/Hemoglobin.total in Blood"
        },
        "valueQuantity": {
          "system": "http://unitsofmeasure.org",
          "value": 4,
          "unit": "%",
          "code": "%"
        },
        "referenceRange": [
          {
            "low": {
              "value": 4,
              "code": "%",
              "system": "http://unitsofmeasure.org"
            }
          },
          {
            "high": {
              "value": 6.4,
              "code": "%",
              "system": "http://unitsofmeasure.org"
            }
          }
        ],
        "text": {
          "status": "generated",
          "div": "<div xmlns=\"http://www.w3.org/1999/xhtml\"><table class=\"hl7__eu__lab__report\"><tr><th>Test</th><th>18-Nov-2024</th><th>Reference&#xA0;Range</th><th>Unit</th></tr><tr><td>Hemoglobin A1c/Hemoglobin.total in Blood</td><td>4.0</td><td>4 - 6.4</td><td></td><td>%</td></tr></table></div>"
        },
        "status": "final",
        "subject": {
          "reference": "urn:uuid:151f9d75-12b2-4bd9-b4a0-912381443006",
          "display": "Meaghan Neary"
        },
        "effectiveDateTime": "2024-11-18T22:11:04Z",
        "specimen": {
          "reference": "urn:uuid:1d412051-52f6-45dc-af7c-978b06752a57"
        }
      }
    },
    {
      "fullUrl": "urn:uuid:e4506894-a918-479b-b5c5-f69643dee6ff",
      "resource": {
        "resourceType": "Observation",
        "id": "e4506894-a918-479b-b5c5-f69643dee6ff",
        "meta": {
          "profile": [
            "http://hl7.eu/fhir/laboratory/StructureDefinition/Observation-resultslab-eu-lab"
          ]
        },
        "performer": [
          {
            "display": "The Central European Lab"
          }
        ],
        "category": [
          {
            "coding": [
              {
                "system": "http://terminology.hl7.org/CodeSystem/observation-category",
                "code": "laboratory"
              }
            ]
          }
        ],
        "code": {
          "coding": [
            {
              "code": "2339-0",
              "system": "http://loinc.org",
              "display": "Glucose [Mass/volume] in Blood"
            }
          ],
          "text": "Glucose [Mass/volume] in Blood"
        },
        "valueQuantity": {
          "system": "http://unitsofmeasure.org",
          "value": 69.8,
          "unit": "mg/dL",
          "code": "mg/dL"
        },
        "referenceRange": [
          {
            "low": {
              "value": 70,
              "code": "mg/dL",
              "system": "http://unitsofmeasure.org"
            }
          },
          {
            "high": {
              "value": 100,
              "code": "mg/dL",
              "system": "http://unitsofmeasure.org"
            }
          }
        ],
        "interpretation": [
          {
            "coding": [
              {
                "code": "L",
                "system": "http://terminology.hl7.org/CodeSystem/v3-ObservationInterpretation",
                "display": "Low"
              }
            ]
          }
        ],
        "text": {
          "status": "generated",
          "div": "<div xmlns=\"http://www.w3.org/1999/xhtml\"><table class=\"hl7__eu__lab__report\"><tr><th>Test</th><th>18-Nov-2024</th><th>Reference&#xA0;Range</th><th>Unit</th></tr><tr><td>Glucose [Mass/volume] in Blood</td><td>69.8</td><td>70 - 100</td><td>L</td><td>mg/dL</td></tr></table></div>"
        },
        "status": "final",
        "subject": {
          "reference": "urn:uuid:151f9d75-12b2-4bd9-b4a0-912381443006",
          "display": "Meaghan Neary"
        },
        "effectiveDateTime": "2024-11-18T22:11:04Z",
        "specimen": {
          "reference": "urn:uuid:1d412051-52f6-45dc-af7c-978b06752a57"
        }
      }
    },
    {
      "fullUrl": "urn:uuid:1dd76638-b244-4659-8cb1-11486005c06f",
      "resource": {
        "resourceType": "Observation",
        "id": "1dd76638-b244-4659-8cb1-11486005c06f",
        "meta": {
          "profile": [
            "http://hl7.eu/fhir/laboratory/StructureDefinition/Observation-resultslab-eu-lab"
          ]
        },
        "performer": [
          {
            "display": "The Central European Lab"
          }
        ],
        "category": [
          {
            "coding": [
              {
                "system": "http://terminology.hl7.org/CodeSystem/observation-category",
                "code": "laboratory"
              }
            ]
          }
        ],
        "code": {
          "coding": [
            {
              "code": "6299-2",
              "system": "http://loinc.org",
              "display": "Urea nitrogen [Mass/volume] in Blood"
            }
          ],
          "text": "Urea nitrogen [Mass/volume] in Blood"
        },
        "valueQuantity": {
          "system": "http://unitsofmeasure.org",
          "value": 19.6,
          "unit": "mg/dL",
          "code": "mg/dL"
        },
        "referenceRange": [
          {
            "low": {
              "value": 7,
              "code": "mg/dL",
              "system": "http://unitsofmeasure.org"
            }
          },
          {
            "high": {
              "value": 43,
              "code": "mg/dL",
              "system": "http://unitsofmeasure.org"
            }
          }
        ],
        "text": {
          "status": "generated",
          "div": "<div xmlns=\"http://www.w3.org/1999/xhtml\"><table class=\"hl7__eu__lab__report\"><tr><th>Test</th><th>18-Nov-2024</th><th>Reference&#xA0;Range</th><th>Unit</th></tr><tr><td>Urea nitrogen [Mass/volume] in Blood</td><td>19.6</td><td>7 - 43</td><td></td><td>mg/dL</td></tr></table></div>"
        },
        "status": "final",
        "subject": {
          "reference": "urn:uuid:151f9d75-12b2-4bd9-b4a0-912381443006",
          "display": "Meaghan Neary"
        },
        "effectiveDateTime": "2024-11-18T22:11:04Z",
        "specimen": {
          "reference": "urn:uuid:1d412051-52f6-45dc-af7c-978b06752a57"
        }
      }
    },
    {
      "fullUrl": "urn:uuid:f84b52b2-0cb8-467f-86f8-9bee3cf7ce74",
      "resource": {
        "resourceType": "Observation",
        "id": "f84b52b2-0cb8-467f-86f8-9bee3cf7ce74",
        "meta": {
          "profile": [
            "http://hl7.eu/fhir/laboratory/StructureDefinition/Observation-resultslab-eu-lab"
          ]
        },
        "performer": [
          {
            "display": "The Central European Lab"
          }
        ],
        "category": [
          {
            "coding": [
              {
                "system": "http://terminology.hl7.org/CodeSystem/observation-category",
                "code": "laboratory"
              }
            ]
          }
        ],
        "code": {
          "coding": [
            {
              "code": "38483-4",
              "system": "http://loinc.org",
              "display": "Creatinine [Mass/volume] in Blood"
            }
          ],
          "text": "Creatinine [Mass/volume] in Blood"
        },
        "valueQuantity": {
          "system": "http://unitsofmeasure.org",
          "value": 4.3,
          "unit": "mg/dL",
          "code": "mg/dL"
        },
        "referenceRange": [
          {
            "low": {
              "value": 0.6,
              "code": "mg/dL",
              "system": "http://unitsofmeasure.org"
            }
          },
          {
            "high": {
              "value": 1.1,
              "code": "mg/dL",
              "system": "http://unitsofmeasure.org"
            }
          }
        ],
        "interpretation": [
          {
            "coding": [
              {
                "code": "H",
                "system": "http://terminology.hl7.org/CodeSystem/v3-ObservationInterpretation",
                "display": "High"
              }
            ]
          }
        ],
        "text": {
          "status": "generated",
          "div": "<div xmlns=\"http://www.w3.org/1999/xhtml\"><table class=\"hl7__eu__lab__report\"><tr><th>Test</th><th>18-Nov-2024</th><th>Reference&#xA0;Range</th><th>Unit</th></tr><tr><td>Creatinine [Mass/volume] in Blood</td><td>4.3</td><td>0.6 - 1.1</td><td>H</td><td>mg/dL</td></tr></table></div>"
        },
        "status": "final",
        "subject": {
          "reference": "urn:uuid:151f9d75-12b2-4bd9-b4a0-912381443006",
          "display": "Meaghan Neary"
        },
        "effectiveDateTime": "2024-11-18T22:11:04Z",
        "specimen": {
          "reference": "urn:uuid:1d412051-52f6-45dc-af7c-978b06752a57"
        }
      }
    },
    {
      "fullUrl": "urn:uuid:60f23c03-0b84-498a-86d8-9f07a56a07c8",
      "resource": {
        "resourceType": "Observation",
        "id": "60f23c03-0b84-498a-86d8-9f07a56a07c8",
        "meta": {
          "profile": [
            "http://hl7.eu/fhir/laboratory/StructureDefinition/Observation-resultslab-eu-lab"
          ]
        },
        "performer": [
          {
            "display": "The Central European Lab"
          }
        ],
        "category": [
          {
            "coding": [
              {
                "system": "http://terminology.hl7.org/CodeSystem/observation-category",
                "code": "laboratory"
              }
            ]
          }
        ],
        "code": {
          "coding": [
            {
              "code": "49765-1",
              "system": "http://loinc.org",
              "display": "Calcium [Mass/volume] in Blood"
            }
          ],
          "text": "Calcium [Mass/volume] in Blood"
        },
        "valueQuantity": {
          "system": "http://unitsofmeasure.org",
          "value": 8.8,
          "unit": "mg/dL",
          "code": "mg/dL"
        },
        "referenceRange": [
          {
            "low": {
              "value": 8.5,
              "code": "mg/dL",
              "system": "http://unitsofmeasure.org"
            }
          },
          {
            "high": {
              "value": 10.5,
              "code": "mg/dL",
              "system": "http://unitsofmeasure.org"
            }
          }
        ],
        "text": {
          "status": "generated",
          "div": "<div xmlns=\"http://www.w3.org/1999/xhtml\"><table class=\"hl7__eu__lab__report\"><tr><th>Test</th><th>18-Nov-2024</th><th>Reference&#xA0;Range</th><th>Unit</th></tr><tr><td>Calcium [Mass/volume] in Blood</td><td>8.8</td><td>8.5 - 10.5</td><td></td><td>mg/dL</td></tr></table></div>"
        },
        "status": "final",
        "subject": {
          "reference": "urn:uuid:151f9d75-12b2-4bd9-b4a0-912381443006",
          "display": "Meaghan Neary"
        },
        "effectiveDateTime": "2024-11-18T22:11:04Z",
        "specimen": {
          "reference": "urn:uuid:1d412051-52f6-45dc-af7c-978b06752a57"
        }
      }
    },
    {
      "fullUrl": "urn:uuid:42f4da1a-7f26-40ad-9b7f-f64385991a87",
      "resource": {
        "resourceType": "Observation",
        "id": "42f4da1a-7f26-40ad-9b7f-f64385991a87",
        "meta": {
          "profile": [
            "http://hl7.eu/fhir/laboratory/StructureDefinition/Observation-resultslab-eu-lab"
          ]
        },
        "performer": [
          {
            "display": "The Central European Lab"
          }
        ],
        "category": [
          {
            "coding": [
              {
                "system": "http://terminology.hl7.org/CodeSystem/observation-category",
                "code": "laboratory"
              }
            ]
          }
        ],
        "code": {
          "coding": [
            {
              "code": "2947-0",
              "system": "http://loinc.org",
              "display": "Sodium [Moles/volume] in Blood"
            }
          ],
          "text": "Sodium [Moles/volume] in Blood"
        },
        "valueQuantity": {
          "system": "http://unitsofmeasure.org",
          "value": 143.2,
          "unit": "mmol/L",
          "code": "mmol/L"
        },
        "referenceRange": [
          {
            "low": {
              "value": 135,
              "code": "mmol/L",
              "system": "http://unitsofmeasure.org"
            }
          },
          {
            "high": {
              "value": 145,
              "code": "mmol/L",
              "system": "http://unitsofmeasure.org"
            }
          }
        ],
        "text": {
          "status": "generated",
          "div": "<div xmlns=\"http://www.w3.org/1999/xhtml\"><table class=\"hl7__eu__lab__report\"><tr><th>Test</th><th>18-Nov-2024</th><th>Reference&#xA0;Range</th><th>Unit</th></tr><tr><td>Sodium [Moles/volume] in Blood</td><td>143.2</td><td>135 - 145</td><td></td><td>mmol/L</td></tr></table></div>"
        },
        "status": "final",
        "subject": {
          "reference": "urn:uuid:151f9d75-12b2-4bd9-b4a0-912381443006",
          "display": "Meaghan Neary"
        },
        "effectiveDateTime": "2024-11-18T22:11:04Z",
        "specimen": {
          "reference": "urn:uuid:1d412051-52f6-45dc-af7c-978b06752a57"
        }
      }
    },
    {
      "fullUrl": "urn:uuid:2711e9d7-1f2b-4390-aa87-a3ca1d0970e5",
      "resource": {
        "resourceType": "Observation",
        "id": "2711e9d7-1f2b-4390-aa87-a3ca1d0970e5",
        "meta": {
          "profile": [
            "http://hl7.eu/fhir/laboratory/StructureDefinition/Observation-resultslab-eu-lab"
          ]
        },
        "performer": [
          {
            "display": "The Central European Lab"
          }
        ],
        "category": [
          {
            "coding": [
              {
                "system": "http://terminology.hl7.org/CodeSystem/observation-category",
                "code": "laboratory"
              }
            ]
          }
        ],
        "code": {
          "coding": [
            {
              "code": "6298-4",
              "system": "http://loinc.org",
              "display": "Potassium [Moles/volume] in Blood"
            }
          ],
          "text": "Potassium [Moles/volume] in Blood"
        },
        "valueQuantity": {
          "system": "http://unitsofmeasure.org",
          "value": 4.8,
          "unit": "mmol/L",
          "code": "mmol/L"
        },
        "referenceRange": [
          {
            "low": {
              "value": 3.5,
              "code": "mmol/L",
              "system": "http://unitsofmeasure.org"
            }
          },
          {
            "high": {
              "value": 5.1,
              "code": "mmol/L",
              "system": "http://unitsofmeasure.org"
            }
          }
        ],
        "text": {
          "status": "generated",
          "div": "<div xmlns=\"http://www.w3.org/1999/xhtml\"><table class=\"hl7__eu__lab__report\"><tr><th>Test</th><th>18-Nov-2024</th><th>Reference&#xA0;Range</th><th>Unit</th></tr><tr><td>Potassium [Moles/volume] in Blood</td><td>4.8</td><td>3.5 - 5.1</td><td></td><td>mmol/L</td></tr></table></div>"
        },
        "status": "final",
        "subject": {
          "reference": "urn:uuid:151f9d75-12b2-4bd9-b4a0-912381443006",
          "display": "Meaghan Neary"
        },
        "effectiveDateTime": "2024-11-18T22:11:04Z",
        "specimen": {
          "reference": "urn:uuid:1d412051-52f6-45dc-af7c-978b06752a57"
        }
      }
    },
    {
      "fullUrl": "urn:uuid:bcca9715-23c0-4b6d-bfc6-c2b1e0e46af3",
      "resource": {
        "resourceType": "Observation",
        "id": "bcca9715-23c0-4b6d-bfc6-c2b1e0e46af3",
        "meta": {
          "profile": [
            "http://hl7.eu/fhir/laboratory/StructureDefinition/Observation-resultslab-eu-lab"
          ]
        },
        "performer": [
          {
            "display": "The Central European Lab"
          }
        ],
        "category": [
          {
            "coding": [
              {
                "system": "http://terminology.hl7.org/CodeSystem/observation-category",
                "code": "laboratory"
              }
            ]
          }
        ],
        "code": {
          "coding": [
            {
              "code": "2069-3",
              "system": "http://loinc.org",
              "display": "Chloride [Moles/volume] in Blood"
            }
          ],
          "text": "Chloride [Moles/volume] in Blood"
        },
        "valueQuantity": {
          "system": "http://unitsofmeasure.org",
          "value": 103.9,
          "unit": "mmol/L",
          "code": "mmol/L"
        },
        "referenceRange": [
          {
            "low": {
              "value": 98,
              "code": "mmol/L",
              "system": "http://unitsofmeasure.org"
            }
          },
          {
            "high": {
              "value": 108,
              "code": "mmol/L",
              "system": "http://unitsofmeasure.org"
            }
          }
        ],
        "text": {
          "status": "generated",
          "div": "<div xmlns=\"http://www.w3.org/1999/xhtml\"><table class=\"hl7__eu__lab__report\"><tr><th>Test</th><th>18-Nov-2024</th><th>Reference&#xA0;Range</th><th>Unit</th></tr><tr><td>Chloride [Moles/volume] in Blood</td><td>103.9</td><td>98 - 108</td><td></td><td>mmol/L</td></tr></table></div>"
        },
        "status": "final",
        "subject": {
          "reference": "urn:uuid:151f9d75-12b2-4bd9-b4a0-912381443006",
          "display": "Meaghan Neary"
        },
        "effectiveDateTime": "2024-11-18T22:11:04Z",
        "specimen": {
          "reference": "urn:uuid:1d412051-52f6-45dc-af7c-978b06752a57"
        }
      }
    },
    {
      "fullUrl": "urn:uuid:fd011dd7-9e6a-4331-bdd1-51968a1a6acd",
      "resource": {
        "resourceType": "Observation",
        "id": "fd011dd7-9e6a-4331-bdd1-51968a1a6acd",
        "meta": {
          "profile": [
            "http://hl7.eu/fhir/laboratory/StructureDefinition/Observation-resultslab-eu-lab"
          ]
        },
        "performer": [
          {
            "display": "The Central European Lab"
          }
        ],
        "category": [
          {
            "coding": [
              {
                "system": "http://terminology.hl7.org/CodeSystem/observation-category",
                "code": "laboratory"
              }
            ]
          }
        ],
        "code": {
          "coding": [
            {
              "code": "20565-8",
              "system": "http://loinc.org",
              "display": "Carbon dioxide, total [Moles/volume] in Blood"
            }
          ],
          "text": "Carbon dioxide, total [Moles/volume] in Blood"
        },
        "valueQuantity": {
          "system": "http://unitsofmeasure.org",
          "value": 27.4,
          "unit": "mmol/L",
          "code": "mmol/L"
        },
        "referenceRange": [
          {
            "low": {
              "value": 22,
              "code": "mmol/L",
              "system": "http://unitsofmeasure.org"
            }
          },
          {
            "high": {
              "value": 29,
              "code": "mmol/L",
              "system": "http://unitsofmeasure.org"
            }
          }
        ],
        "text": {
          "status": "generated",
          "div": "<div xmlns=\"http://www.w3.org/1999/xhtml\"><table class=\"hl7__eu__lab__report\"><tr><th>Test</th><th>18-Nov-2024</th><th>Reference&#xA0;Range</th><th>Unit</th></tr><tr><td>Carbon dioxide, total [Moles/volume] in Blood</td><td>27.4</td><td>22 - 29</td><td></td><td>mmol/L</td></tr></table></div>"
        },
        "status": "final",
        "subject": {
          "reference": "urn:uuid:151f9d75-12b2-4bd9-b4a0-912381443006",
          "display": "Meaghan Neary"
        },
        "effectiveDateTime": "2024-11-18T22:11:04Z",
        "specimen": {
          "reference": "urn:uuid:1d412051-52f6-45dc-af7c-978b06752a57"
        }
      }
    },
    {
      "fullUrl": "urn:uuid:f1f7fdca-1c6d-43d9-8908-85724dce0b91",
      "resource": {
        "resourceType": "Device",
        "id": "f1f7fdca-1c6d-43d9-8908-85724dce0b91",
        "deviceName": [
          {
            "name": "SYNDERAI Synthetic Generator",
            "type": "manufacturer-name"
          }
        ],
        "version": [
          {
            "value": "5.0"
          }
        ],
        "text": {
          "status": "generated",
          "div": "<div xmlns=\"http://www.w3.org/1999/xhtml\">SYNDERAI Synthetic Generator v5.0</div>"
        },
        "status": "active\"",
        "distinctIdentifier": "synderai-generator-50",
        "manufacturer": "SYNDERAI Project"
      }
    },
    {
      "fullUrl": "urn:uuid:ee259cb7-a96a-4054-b74c-764c628af2e9",
      "resource": {
        "resourceType": "Provenance",
        "id": "ee259cb7-a96a-4054-b74c-764c628af2e9",
        "target": [
          {
            "reference": "Patient/151f9d75-12b2-4bd9-b4a0-912381443006"
          },
          {
            "reference": "Bundle/88f04642-1003-4380-8eb2-6df4c0519c63"
          },
          {
            "reference": "Composition/deaac192-65b8-4915-8b18-5cfd68ad4efa"
          },
          {
            "reference": "PractitionerRole/04889f49-1401-432a-86a9-fcc07ea97200"
          },
          {
            "reference": "Practitioner/5e01c853-2fd8-4a54-8a2c-d2b11b4ee356"
          },
          {
            "reference": "PractitionerRole/573ca448-cb85-4d20-a79f-47c57925e19e"
          },
          {
            "reference": "Organization/72a9acbc-9e7b-40bc-aeca-d3ecd915278c"
          }
        ],
        "activity": {
          "text": "Synthetic Example Data Generation"
        },
        "policy": [
          "https://synderai.net/synderai-synthetic-data-policy"
        ],
        "agent": [
          {
            "type": {
              "text": "author"
            },
            "who": {
              "reference": "Device/f1f7fdca-1c6d-43d9-8908-85724dce0b91"
            }
          }
        ],
        "reason": [
          {
            "text": "Interoperability Testing and Training (non-clinical use)"
          }
        ],
        "text": {
          "status": "generated",
          "div": "<div xmlns=\"http://www.w3.org/1999/xhtml\">Provenance for SYNDERAI Synthetic Example Data Resource</div>"
        },
        "recorded": "2024-11-18T23:11:04Z"
      }
    },
    {
      "fullUrl": "urn:uuid:04889f49-1401-432a-86a9-fcc07ea97200",
      "resource": {
        "resourceType": "PractitionerRole",
        "id": "04889f49-1401-432a-86a9-fcc07ea97200",
        "meta": {
          "profile": [
            "http://hl7.eu/fhir/base/StructureDefinition/practitionerRole-eu"
          ]
        },
        "text": {
          "status": "generated",
          "div": "<div xmlns=\"http://www.w3.org/1999/xhtml\">Laboratory Role Id: 04889f49-1401-432a-86a9-fcc07ea97200</div>"
        },
        "practitioner": {
          "reference": "urn:uuid:5e01c853-2fd8-4a54-8a2c-d2b11b4ee356"
        }
      }
    },
    {
      "fullUrl": "urn:uuid:5e01c853-2fd8-4a54-8a2c-d2b11b4ee356",
      "resource": {
        "resourceType": "Practitioner",
        "id": "5e01c853-2fd8-4a54-8a2c-d2b11b4ee356",
        "meta": {
          "profile": [
            "http://hl7.eu/fhir/base/StructureDefinition/practitioner-eu"
          ]
        },
        "identifier": [
          {
            "assigner": {
              "display": "HL7 Europe"
            },
            "system": "urn:oid:2.16.840.1.113883.2.51.999",
            "value": "46634e0a-95c8-4cf1-93bc-75ebf98e58e4"
          }
        ],
        "name": [
          {
            "prefix": [
              "dr"
            ],
            "given": [
              "Ex"
            ],
            "family": "Ample"
          }
        ],
        "address": [
          {
            "line": [
              "Laboratoire Central Européenne",
              "Boulevard du Jardin Botanique 32"
            ],
            "postalCode": "1000",
            "city": "Brussels",
            "country": "Belgium"
          }
        ],
        "text": {
          "status": "generated",
          "div": "<div xmlns=\"http://www.w3.org/1999/xhtml\">Laboratory: Laboratoire Central Européenne, 1000 Brussels, Belgium</div>"
        }
      }
    }
  ],
  "type": "document",
  "timestamp": "2024-11-18T23:11:04Z"
}
