{
  "resourceType": "Bundle",
  "id": "b0132383-e2ee-443c-9b91-4a06590e0f36",
  "meta": {
    "profile": [
      "http://hl7.eu/fhir/laboratory/StructureDefinition/Bundle-eu-lab"
    ]
  },
  "identifier": {
    "assigner": {
      "display": "HL7 Europe"
    },
    "system": "urn:oid:2.16.840.1.113883.2.51.999",
    "value": "91e257b3-42c6-4390-bfce-b841ea71c1e7"
  },
  "entry": [
    {
      "fullUrl": "urn:uuid:9844d200-3a7e-4f51-82e2-26caa3ef19bd",
      "resource": {
        "resourceType": "Composition",
        "id": "9844d200-3a7e-4f51-82e2-26caa3ef19bd",
        "meta": {
          "profile": [
            "http://hl7.eu/fhir/laboratory/StructureDefinition/Composition-eu-lab"
          ]
        },
        "identifier": {
          "assigner": {
            "display": "HL7 Europe"
          },
          "system": "urn:oid:2.16.840.1.113883.2.51.999",
          "value": "c2daf4a6-618d-489d-980c-d56450c19915"
        },
        "author": [
          {
            "reference": "urn:uuid:17354975-5c4e-4bbf-8fb1-1bcebf3ea461"
          }
        ],
        "category": [
          {
            "coding": [
              {
                "code": "26436-6",
                "system": "http://loinc.org",
                "display": "Laboratory studies (set)"
              }
            ]
          }
        ],
        "type": {
          "coding": [
            {
              "code": "11502-2",
              "system": "http://loinc.org",
              "display": "Laboratory report"
            }
          ],
          "text": "Laboratory Report"
        },
        "section": [
          {
            "code": {
              "coding": [
                {
                  "code": "26436-6",
                  "system": "http://loinc.org",
                  "display": "Laboratory studies (set)"
                }
              ],
              "text": "Laboratory studies"
            },
            "section": [
              {
                "code": {
                  "coding": [
                    {
                      "code": "$18723-7",
                      "system": "http://loinc.org",
                      "display": "Hematology studies (set)"
                    }
                  ],
                  "text": "Hematology"
                },
                "entry": [
                  {
                    "reference": "urn:uuid:9b5c7da7-46ad-4f8e-868b-8bf3fd652131"
                  },
                  {
                    "reference": "urn:uuid:a7c38c68-6505-46e9-b63b-4db077dd662e"
                  },
                  {
                    "reference": "urn:uuid:27a5d681-e5c7-4d4f-b561-5a7e62af962c"
                  },
                  {
                    "reference": "urn:uuid:d40645e0-1c11-4114-921d-803c18cf1a26"
                  },
                  {
                    "reference": "urn:uuid:ea4de146-5415-4309-a021-79cf4428c1ee"
                  },
                  {
                    "reference": "urn:uuid:c92a6493-1c0c-4e72-8ec3-b1c7a07c8719"
                  },
                  {
                    "reference": "urn:uuid:30f8cb99-bc41-4a26-a9c3-f30b3b124864"
                  },
                  {
                    "reference": "urn:uuid:0fecbdc2-1ab6-475a-980b-e1bdf2e3987f"
                  },
                  {
                    "reference": "urn:uuid:83a4b07e-6ce5-4af9-a8c0-90b7e562913b"
                  }
                ],
                "text": {
                  "status": "generated",
                  "div": "<div xmlns=\"http://www.w3.org/1999/xhtml\"><h3>Hematology</h3><table class=\"hl7__eu__lab__report\"><thead><tr><th>Test</th><th>22-MAY-2017</th><th>Reference&#xA0;Range</th><th>Unit</th></tr></thead><tbody><tr><td>Leukocytes [#/volume] in Blood by Automated count</td><td>7.3</td><td>4 - 11</td><td>10*3/uL</td></tr><tr><td>Erythrocytes [#/volume] in Blood by Automated count</td><td>5.0</td><td>3.8 - 5.7</td><td>10*6/uL</td></tr><tr><td>Hemoglobin [Mass/volume] in Blood</td><td>15.9</td><td>12 - 16</td><td>g/dL</td></tr><tr><td>Hematocrit [Volume Fraction] of Blood by Automated count</td><td><strong>37.4 L</strong></td><td>38 - 56</td><td>%</td></tr><tr><td>MCV [Entitic volume] by Automated count</td><td>86.5</td><td>78 - 98</td><td>fL</td></tr><tr><td>MCH [Entitic mass] by Automated count</td><td>30.5</td><td>27 - 34</td><td>pg</td></tr><tr><td>MCHC [Mass/volume] by Automated count</td><td><strong>31.6 L</strong></td><td>32 - 35</td><td>g/dL</td></tr><tr><td>Erythrocyte distribution width [Ratio] by Automated count</td><td>15.2</td><td>11.6 - 16.5</td><td>%</td></tr><tr><td>Platelets [#/volume] in Blood by Automated count</td><td>382.3</td><td>157 - 415</td><td>10*3/uL</td></tr></tbody></table></div>"
                },
                "title": "Hematology"
              },
              {
                "code": {
                  "coding": [
                    {
                      "code": "$18719-5",
                      "system": "http://loinc.org",
                      "display": "Chemistry studies (set)"
                    }
                  ],
                  "text": "Chemistry"
                },
                "entry": [
                  {
                    "reference": "urn:uuid:1af6aec2-0765-462e-a610-d00d9b15e696"
                  },
                  {
                    "reference": "urn:uuid:7f825a05-01a8-47a7-90ee-2c63241d3a3a"
                  },
                  {
                    "reference": "urn:uuid:6a8e3de4-414c-4599-a837-a8ac96864592"
                  },
                  {
                    "reference": "urn:uuid:fb98ccd8-139b-4829-9f40-30746eded8de"
                  },
                  {
                    "reference": "urn:uuid:9033fa56-381c-4654-a996-55158a08672d"
                  },
                  {
                    "reference": "urn:uuid:810d0638-2841-4b82-80c7-4af53bad4138"
                  },
                  {
                    "reference": "urn:uuid:efd899b8-b974-43c5-85e3-fbe678daed57"
                  },
                  {
                    "reference": "urn:uuid:07d0380c-5bbf-43d6-aa65-592535d0c3bd"
                  },
                  {
                    "reference": "urn:uuid:0a4823d5-4e15-47ba-a214-6a2d592bce6a"
                  },
                  {
                    "reference": "urn:uuid:ece1a975-914b-4f22-8221-a77c9eac1b0b"
                  },
                  {
                    "reference": "urn:uuid:64d9ca1d-fe08-458e-908e-43231c27b315"
                  },
                  {
                    "reference": "urn:uuid:1a7debdd-7485-43e6-89a6-af975aa4f543"
                  },
                  {
                    "reference": "urn:uuid:1bf33f2e-249d-4336-96fd-2e57f3c00e5e"
                  },
                  {
                    "reference": "urn:uuid:098f47d4-3170-4197-80f1-d97a22919a51"
                  },
                  {
                    "reference": "urn:uuid:315dfd23-d1b4-4551-bcd2-d34d220b8b9b"
                  },
                  {
                    "reference": "urn:uuid:7e9a4df4-9079-4c8c-800b-d87a60816d4f"
                  },
                  {
                    "reference": "urn:uuid:d826a23d-9a71-4e17-a984-9b5dbe71ded8"
                  },
                  {
                    "reference": "urn:uuid:e5a015c9-bf94-45e4-a0cc-bc344ee8d1b0"
                  },
                  {
                    "reference": "urn:uuid:8b25bd88-6526-4c88-8c43-4dd50ed81e36"
                  },
                  {
                    "reference": "urn:uuid:6c1a9b28-14e2-455c-8eee-8c940194b7f8"
                  },
                  {
                    "reference": "urn:uuid:36e84557-17ea-4903-b803-2b0d8c088904"
                  },
                  {
                    "reference": "urn:uuid:2b16df7d-1558-4a74-a612-4a9f8620b031"
                  },
                  {
                    "reference": "urn:uuid:544d2825-43c2-420f-b60d-9c68baf7c76a"
                  },
                  {
                    "reference": "urn:uuid:c905d83d-d13b-4eda-ba2f-feb5dc709333"
                  },
                  {
                    "reference": "urn:uuid:cb17af38-70a8-4178-a852-a22d3d4d59e0"
                  },
                  {
                    "reference": "urn:uuid:d2772e3e-9b2e-4453-ad0d-fb08c70d0585"
                  },
                  {
                    "reference": "urn:uuid:6a89c618-a88f-4a9b-96c6-30b2deef3ba1"
                  },
                  {
                    "reference": "urn:uuid:2dfd8765-015f-4734-9497-315f254ecac5"
                  },
                  {
                    "reference": "urn:uuid:591c661a-d0d8-47fd-ac42-4dfb19467fac"
                  }
                ],
                "text": {
                  "status": "generated",
                  "div": "<div xmlns=\"http://www.w3.org/1999/xhtml\"><h3>Chemistry</h3><table class=\"hl7__eu__lab__report\"><thead><tr><th>Test</th><th>22-MAY-2017</th><th>Reference&#xA0;Range</th><th>Unit</th></tr></thead><tbody><tr><td>Glucose [Mass/volume] in Serum or Plasma</td><td>71.5</td><td>70 - 99</td><td>mg/dL</td></tr><tr><td>Urea nitrogen [Mass/volume] in Serum or Plasma</td><td>7.8</td><td>7 - 20</td><td>mg/dL</td></tr><tr><td>Creatinine [Mass/volume] in Serum or Plasma</td><td><strong>2.9 H</strong></td><td>0.6 - 1.3</td><td>mg/dL</td></tr><tr><td>Calcium [Mass/volume] in Serum or Plasma</td><td>9.7</td><td>8.5 - 10.4</td><td>mg/dL</td></tr><tr><td>Sodium [Moles/volume] in Serum or Plasma</td><td>136.6</td><td>135 - 145</td><td>mmol/L</td></tr><tr><td>Potassium [Moles/volume] in Serum or Plasma</td><td>4.3</td><td>3.5 - 5.1</td><td>mmol/L</td></tr><tr><td>Chloride [Moles/volume] in Serum or Plasma</td><td>105.0</td><td>98 - 108</td><td>mmol/L</td></tr><tr><td>Carbon dioxide, total [Moles/volume] in Serum or Plasma</td><td>23.3</td><td>22 - 32</td><td>mmol/L</td></tr><tr><td>Protein [Mass/volume] in Serum or Plasma</td><td>8.3</td><td>6 - 8.3</td><td>g/dL</td></tr><tr><td>Albumin [Mass/volume] in Serum or Plasma</td><td>4.6</td><td>3.5 - 5</td><td>g/dL</td></tr><tr><td>Bilirubin.total [Mass/volume] in Serum or Plasma</td><td><strong>11.6 H</strong></td><td>0.3 - 1.2</td><td>mg/dL</td></tr><tr><td>Alkaline phosphatase [Enzymatic activity/volume] in Serum or Plasma</td><td>40.7</td><td>32 - 150</td><td>U/L</td></tr><tr><td>Alanine aminotransferase [Enzymatic activity/volume] in Serum or Plasma</td><td><strong>0.8 L</strong></td><td>13 - 32</td><td>U/L</td></tr><tr><td>Aspartate aminotransferase [Enzymatic activity/volume] in Serum or Plasma</td><td>39.5</td><td>10 - 40</td><td>U/L</td></tr><tr><td>Magnesium [Mass/volume] in Serum or Plasma</td><td>2.3</td><td>1.7 - 2.6</td><td>mg/dL</td></tr><tr><td>Phosphate [Mass/volume] in Serum or Plasma</td><td>3.1</td><td>2.5 - 4.5</td><td>mg/dL</td></tr><tr><td>pH of Arterial blood</td><td><strong>7.0 L</strong></td><td>7.35 - 7.45</td><td>[pH]</td></tr><tr><td>Carbon dioxide [Partial pressure] in Arterial blood</td><td>42.6</td><td>38 - 48</td><td>mm[Hg]</td></tr><tr><td>Oxygen [Partial pressure] in Arterial blood</td><td>91.1</td><td>75 - 100</td><td>mm[Hg]</td></tr><tr><td>Bicarbonate [Moles/volume] in Arterial blood</td><td>24.3</td><td>22 - 31</td><td>mmol/L</td></tr><tr><td>Oxygen saturation in Arterial blood</td><td><strong>94.0 L</strong></td><td>95 - 100</td><td>%</td></tr><tr><td>Cholesterol [Mass/volume] in Serum or Plasma</td><td><strong>299.5 H</strong></td><td>130 - 200</td><td>mg/dL</td></tr><tr><td>Triglyceride [Mass/volume] in Serum or Plasma</td><td>140.8</td><td>0 - 199</td><td>mg/dL</td></tr><tr><td>Cholesterol in LDL [Mass/volume] in Serum or Plasma by Direct assay</td><td><strong>210.5 H</strong></td><td>0 - 130</td><td>mg/dL</td></tr><tr><td>Cholesterol in HDL [Mass/volume] in Serum or Plasma</td><td>60.9</td><td>50 - 100</td><td>mg/dL</td></tr><tr><td>Troponin I.cardiac [Mass/volume] in Serum or Plasma by High sensitivity method</td><td>0.0</td><td>0 - 26.2</td><td>pg/mL</td></tr><tr><td>Thyrotropin [Units/volume] in Serum or Plasma</td><td>3.1</td><td>0.5 - 4</td><td>m[IU]/L</td></tr><tr><td>Hemoglobin A1c/Hemoglobin.total in Blood</td><td>5.5</td><td>4.5 - 6.4</td><td>%</td></tr><tr><td>Ketones [Presence] in Urine by Test strip</td><td>1.0</td><td>0.5 - 4</td><td>{presence}</td></tr></tbody></table></div>"
                },
                "title": "Chemistry"
              },
              {
                "code": {
                  "coding": [
                    {
                      "code": "$18720-3",
                      "system": "http://loinc.org",
                      "display": "Coagulation studies (set)"
                    }
                  ],
                  "text": "Coagulation"
                },
                "entry": [
                  {
                    "reference": "urn:uuid:ab8bb8ea-a72c-4025-a8f1-5539cb7eaf97"
                  },
                  {
                    "reference": "urn:uuid:b8145f0c-05e8-4d0b-a425-706eadfb4250"
                  },
                  {
                    "reference": "urn:uuid:b36c2f8e-0e71-4713-bfde-fc2e0be6c103"
                  }
                ],
                "text": {
                  "status": "generated",
                  "div": "<div xmlns=\"http://www.w3.org/1999/xhtml\"><h3>Coagulation</h3><table class=\"hl7__eu__lab__report\"><thead><tr><th>Test</th><th>22-MAY-2017</th><th>Reference&#xA0;Range</th><th>Unit</th></tr></thead><tbody><tr><td>Prothrombin time (PT)</td><td>11.0</td><td>11 - 15</td><td>s</td></tr><tr><td>INR in Platelet poor plasma by Coagulation assay</td><td>0.9</td><td>0.9 - 1.1</td><td>{INR}</td></tr><tr><td>aPTT in Blood by Coagulation assay</td><td><strong>39.6 H</strong></td><td>25 - 35</td><td>s</td></tr></tbody></table></div>"
                },
                "title": "Coagulation"
              },
              {
                "code": {
                  "coding": [
                    {
                      "code": "$18729-4",
                      "system": "http://loinc.org",
                      "display": "Urinalysis studies (set)"
                    }
                  ],
                  "text": "Urinalysis"
                },
                "entry": [
                  {
                    "reference": "urn:uuid:89c773a9-9f05-4ba2-abb7-c48022f01a0a"
                  },
                  {
                    "reference": "urn:uuid:2cce3492-b315-4816-92d6-9d516669026c"
                  },
                  {
                    "reference": "urn:uuid:6fb3ac82-4bcb-42ee-a97c-51cf1bacb577"
                  },
                  {
                    "reference": "urn:uuid:dbff4d9c-588a-4e7f-bcda-4696dd889714"
                  },
                  {
                    "reference": "urn:uuid:d964b650-7751-4d34-952c-b8b97e252dbc"
                  },
                  {
                    "reference": "urn:uuid:039c9c6d-bedd-439e-ad37-5ed0a0e586e9"
                  },
                  {
                    "reference": "urn:uuid:5f50d055-5e95-49e7-b5cf-3d69be5a418d"
                  },
                  {
                    "reference": "urn:uuid:3a7837de-edc2-409a-abc0-ffd22c037964"
                  }
                ],
                "text": {
                  "status": "generated",
                  "div": "<div xmlns=\"http://www.w3.org/1999/xhtml\"><h3>Urinalysis</h3><table class=\"hl7__eu__lab__report\"><thead><tr><th>Test</th><th>22-MAY-2017</th><th>Reference&#xA0;Range</th><th>Unit</th></tr></thead><tbody><tr><td>Glucose [Presence] in Urine by Test strip</td><td><strong>1.0 H</strong></td><td>0 - 0</td><td>{presence}</td></tr><tr><td>Bilirubin.total [Presence] in Urine by Test strip</td><td>1.0</td><td>0 - 1</td><td>{presence}</td></tr><tr><td>Specific gravity of Urine by Test strip</td><td><strong>1.0 L</strong></td><td>1.01 - 1.03</td><td>{SG}</td></tr><tr><td>pH of Urine by Test strip</td><td>7.3</td><td>4.5 - 7.5</td><td>[pH]</td></tr><tr><td>Protein [Presence] in Urine by Test strip</td><td><strong>1.0 H</strong></td><td>0 - 0.3</td><td>{presence}</td></tr><tr><td>Nitrite [Presence] in Urine by Test strip</td><td>1.0</td><td>0 - 1</td><td>{presence}</td></tr><tr><td>Hemoglobin [Presence] in Urine by Test strip</td><td>0.0</td><td>0 - 0</td><td>{presence}</td></tr><tr><td>Leukocyte esterase [Presence] in Urine by Test strip</td><td>0.0</td><td>0 - 0</td><td>{presence}</td></tr></tbody></table></div>"
                },
                "title": "Urinalysis"
              }
            ],
            "title": "Laboratory Report"
          },
          {
            "text": {
              "status": "generated",
              "div": "<div xmlns=\"http://www.w3.org/1999/xhtml\"><h3>Annotation</h3><table class=\"hl7__eu__lab__report\"><tr><th>Conclusion and Recommendations based on this report and previous findings known to us</th></tr><tr><td>The patient shows evidence of significant renal dysfunction (elevated creatinine, proteinuria, low urine specific gravity), marked hyperbilirubinemia, metabolic acidosis (low arterial pH, low O2 saturation), and prolonged aPTT. There is also marked hypercholesterolemia and LDL elevation. Mild anemia is suggested by low hematocrit and MCHC. Liver enzymes are not elevated, but ALT is low. Findings are consistent with acute or chronic renal and hepatic dysfunction, with possible nephrotic syndrome and metabolic derangement. Immediate clinical correlation and further evaluation are recommended.</td></tr></table></div>"
            },
            "code": {
              "coding": [
                {
                  "system": "http://loinc.org",
                  "code": "48767-8",
                  "display": "Annotation comment"
                }
              ]
            },
            "title": "Annotation comment"
          }
        ],
        "status": "final",
        "subject": {
          "reference": "urn:uuid:575c5fea-f8c1-4d95-8517-70e1409009c8",
          "display": "Aniela Prażmo"
        },
        "date": "2017-05-22T00:09:53Z",
        "title": "Laboratory Report",
        "confidentiality": "N"
      }
    },
    {
      "fullUrl": "urn:uuid:3960da90-ccff-4c1e-a6ca-64d12e3803c0",
      "resource": {
        "resourceType": "DiagnosticReport",
        "id": "3960da90-ccff-4c1e-a6ca-64d12e3803c0",
        "meta": {
          "profile": [
            "http://hl7.eu/fhir/laboratory/StructureDefinition/DiagnosticReport-eu-lab"
          ]
        },
        "identifier": [
          {
            "assigner": {
              "display": "HL7 Europe"
            },
            "system": "urn:oid:2.16.840.1.113883.2.51.999",
            "value": "b14d9902-66de-4e16-911e-47e5d0ee3b62"
          }
        ],
        "extension": [
          {
            "url": "http://hl7.org/fhir/5.0/StructureDefinition/extension-DiagnosticReport.composition",
            "valueReference": {
              "reference": "urn:uuid:c2daf4a6-618d-489d-980c-d56450c19915"
            }
          }
        ],
        "category": [
          {
            "coding": [
              {
                "code": "26436-6",
                "system": "http://loinc.org",
                "display": "Laboratory studies (set)"
              }
            ]
          }
        ],
        "specimen": [
          {
            "reference": "urn:uuid:12666e25-e9e5-4e3b-b52b-04aabf0a7f27"
          },
          {
            "reference": "urn:uuid:12666e25-e9e5-4e3b-b52b-04aabf0a7f27"
          },
          {
            "reference": "urn:uuid:fd631e17-27bf-4029-b219-1fd4069a1b87"
          },
          {
            "reference": "urn:uuid:0b308b34-d86a-4e97-bc99-07054595f454"
          },
          {
            "reference": "urn:uuid:57da4a16-208b-4e8f-a9b3-052cb04cb0cb"
          },
          {
            "reference": "urn:uuid:dfed6e89-46e5-405c-a60b-43c8387f2788"
          }
        ],
        "result": [
          {
            "reference": "urn:uuid:9b5c7da7-46ad-4f8e-868b-8bf3fd652131"
          },
          {
            "reference": "urn:uuid:a7c38c68-6505-46e9-b63b-4db077dd662e"
          },
          {
            "reference": "urn:uuid:27a5d681-e5c7-4d4f-b561-5a7e62af962c"
          },
          {
            "reference": "urn:uuid:d40645e0-1c11-4114-921d-803c18cf1a26"
          },
          {
            "reference": "urn:uuid:ea4de146-5415-4309-a021-79cf4428c1ee"
          },
          {
            "reference": "urn:uuid:c92a6493-1c0c-4e72-8ec3-b1c7a07c8719"
          },
          {
            "reference": "urn:uuid:30f8cb99-bc41-4a26-a9c3-f30b3b124864"
          },
          {
            "reference": "urn:uuid:0fecbdc2-1ab6-475a-980b-e1bdf2e3987f"
          },
          {
            "reference": "urn:uuid:83a4b07e-6ce5-4af9-a8c0-90b7e562913b"
          },
          {
            "reference": "urn:uuid:1af6aec2-0765-462e-a610-d00d9b15e696"
          },
          {
            "reference": "urn:uuid:7f825a05-01a8-47a7-90ee-2c63241d3a3a"
          },
          {
            "reference": "urn:uuid:6a8e3de4-414c-4599-a837-a8ac96864592"
          },
          {
            "reference": "urn:uuid:fb98ccd8-139b-4829-9f40-30746eded8de"
          },
          {
            "reference": "urn:uuid:9033fa56-381c-4654-a996-55158a08672d"
          },
          {
            "reference": "urn:uuid:810d0638-2841-4b82-80c7-4af53bad4138"
          },
          {
            "reference": "urn:uuid:efd899b8-b974-43c5-85e3-fbe678daed57"
          },
          {
            "reference": "urn:uuid:07d0380c-5bbf-43d6-aa65-592535d0c3bd"
          },
          {
            "reference": "urn:uuid:0a4823d5-4e15-47ba-a214-6a2d592bce6a"
          },
          {
            "reference": "urn:uuid:ece1a975-914b-4f22-8221-a77c9eac1b0b"
          },
          {
            "reference": "urn:uuid:64d9ca1d-fe08-458e-908e-43231c27b315"
          },
          {
            "reference": "urn:uuid:1a7debdd-7485-43e6-89a6-af975aa4f543"
          },
          {
            "reference": "urn:uuid:1bf33f2e-249d-4336-96fd-2e57f3c00e5e"
          },
          {
            "reference": "urn:uuid:098f47d4-3170-4197-80f1-d97a22919a51"
          },
          {
            "reference": "urn:uuid:315dfd23-d1b4-4551-bcd2-d34d220b8b9b"
          },
          {
            "reference": "urn:uuid:7e9a4df4-9079-4c8c-800b-d87a60816d4f"
          },
          {
            "reference": "urn:uuid:ab8bb8ea-a72c-4025-a8f1-5539cb7eaf97"
          },
          {
            "reference": "urn:uuid:b8145f0c-05e8-4d0b-a425-706eadfb4250"
          },
          {
            "reference": "urn:uuid:b36c2f8e-0e71-4713-bfde-fc2e0be6c103"
          },
          {
            "reference": "urn:uuid:d826a23d-9a71-4e17-a984-9b5dbe71ded8"
          },
          {
            "reference": "urn:uuid:e5a015c9-bf94-45e4-a0cc-bc344ee8d1b0"
          },
          {
            "reference": "urn:uuid:8b25bd88-6526-4c88-8c43-4dd50ed81e36"
          },
          {
            "reference": "urn:uuid:6c1a9b28-14e2-455c-8eee-8c940194b7f8"
          },
          {
            "reference": "urn:uuid:36e84557-17ea-4903-b803-2b0d8c088904"
          },
          {
            "reference": "urn:uuid:2b16df7d-1558-4a74-a612-4a9f8620b031"
          },
          {
            "reference": "urn:uuid:544d2825-43c2-420f-b60d-9c68baf7c76a"
          },
          {
            "reference": "urn:uuid:c905d83d-d13b-4eda-ba2f-feb5dc709333"
          },
          {
            "reference": "urn:uuid:cb17af38-70a8-4178-a852-a22d3d4d59e0"
          },
          {
            "reference": "urn:uuid:d2772e3e-9b2e-4453-ad0d-fb08c70d0585"
          },
          {
            "reference": "urn:uuid:6a89c618-a88f-4a9b-96c6-30b2deef3ba1"
          },
          {
            "reference": "urn:uuid:2dfd8765-015f-4734-9497-315f254ecac5"
          },
          {
            "reference": "urn:uuid:89c773a9-9f05-4ba2-abb7-c48022f01a0a"
          },
          {
            "reference": "urn:uuid:2cce3492-b315-4816-92d6-9d516669026c"
          },
          {
            "reference": "urn:uuid:591c661a-d0d8-47fd-ac42-4dfb19467fac"
          },
          {
            "reference": "urn:uuid:6fb3ac82-4bcb-42ee-a97c-51cf1bacb577"
          },
          {
            "reference": "urn:uuid:dbff4d9c-588a-4e7f-bcda-4696dd889714"
          },
          {
            "reference": "urn:uuid:d964b650-7751-4d34-952c-b8b97e252dbc"
          },
          {
            "reference": "urn:uuid:039c9c6d-bedd-439e-ad37-5ed0a0e586e9"
          },
          {
            "reference": "urn:uuid:5f50d055-5e95-49e7-b5cf-3d69be5a418d"
          },
          {
            "reference": "urn:uuid:3a7837de-edc2-409a-abc0-ffd22c037964"
          }
        ],
        "status": "registered",
        "code": {
          "coding": [
            {
              "code": "11502-2",
              "system": "http://loinc.org",
              "display": "Laboratory report"
            }
          ]
        },
        "subject": {
          "reference": "urn:uuid:575c5fea-f8c1-4d95-8517-70e1409009c8",
          "display": "Aniela Prażmo"
        }
      }
    },
    {
      "fullUrl": "urn:uuid:575c5fea-f8c1-4d95-8517-70e1409009c8",
      "resource": {
        "resourceType": "Patient",
        "id": "575c5fea-f8c1-4d95-8517-70e1409009c8",
        "meta": {
          "security": [
            {
              "system": "http://terminology.hl7.org/CodeSystem/v3-ActReason",
              "code": "HTEST"
            },
            {
              "system": "http://terminology.hl7.org/CodeSystem/v3-ActReason",
              "code": "TRAIN"
            }
          ],
          "tag": [
            {
              "system": "https://synderai.net/fhir/CodeSystem/tags",
              "code": "synthetic",
              "display": "SYNDERAI Synthetic data"
            }
          ],
          "profile": [
            "http://hl7.eu/fhir/base/StructureDefinition/patient-eu-core"
          ]
        },
        "identifier": [
          {
            "type": {
              "coding": [
                {
                  "code": "PT",
                  "system": "http://terminology.hl7.org/CodeSystem/v2-0203"
                }
              ]
            },
            "system": "http://ec.europa.eu/identifier/eci",
            "value": "9657-869171-7"
          },
          {
            "type": {
              "coding": [
                {
                  "code": "MR",
                  "system": "http://terminology.hl7.org/CodeSystem/v2-0203"
                }
              ]
            },
            "system": "http://local.setting.eu/identifier",
            "value": "ab00158c-e2d0-01e4-6cf5-730949937551"
          }
        ],
        "name": [
          {
            "family": "Prażmo"
          },
          {
            "given": [
              "Aniela"
            ]
          },
          {
            "text": "Aniela Prażmo"
          }
        ],
        "address": [
          {
            "line": [
              "pl. Kołłątaja 62/43"
            ],
            "use": "home",
            "type": "physical",
            "postalCode": "97-200",
            "city": "Tomaszów Mazowiecki",
            "country": "Poland"
          }
        ],
        "telecom": [
          {
            "system": "phone",
            "value": "+48 782 809 233"
          }
        ],
        "extension": [
          {
            "url": "http://hl7.org/fhir/StructureDefinition/patient-nationality",
            "valueCodeableConcept": {
              "coding": [
                {
                  "code": "PL",
                  "system": "http://hl7.org/fhir/ValueSet/country"
                }
              ]
            }
          }
        ],
        "text": {
          "status": "generated",
          "div": "<div xmlns=\"http://www.w3.org/1999/xhtml\"><table class=\"hl7__ips\"><tr><td>Aniela Prażmo</td><td>female</td><td>08-Feb-1941</td></tr></table></div>"
        },
        "gender": "female",
        "birthDate": "1941-02-08"
      }
    },
    {
      "fullUrl": "urn:uuid:a8fc417d-546a-44e6-9e8f-abcf70c4550e",
      "resource": {
        "resourceType": "ServiceRequest",
        "id": "a8fc417d-546a-44e6-9e8f-abcf70c4550e",
        "meta": {
          "profile": [
            "http://hl7.eu/fhir/laboratory/StructureDefinition/ServiceRequest-eu-lab"
          ]
        },
        "identifier": [
          {
            "system": "http://example.org",
            "value": "87c93518-00de-4e80-acf5-970cddd90e05"
          }
        ],
        "specimen": [
          {
            "reference": "urn:uuid:12666e25-e9e5-4e3b-b52b-04aabf0a7f27"
          },
          {
            "reference": "urn:uuid:fd631e17-27bf-4029-b219-1fd4069a1b87"
          },
          {
            "reference": "urn:uuid:0b308b34-d86a-4e97-bc99-07054595f454"
          },
          {
            "reference": "urn:uuid:57da4a16-208b-4e8f-a9b3-052cb04cb0cb"
          },
          {
            "reference": "urn:uuid:dfed6e89-46e5-405c-a60b-43c8387f2788"
          }
        ],
        "reasonCode": [
          {
            "coding": [
              {
                "code": "64859006",
                "system": "http://snomed.info/sct",
                "display": "Osteoporosis"
              }
            ]
          },
          {
            "coding": [
              {
                "code": "55822004",
                "system": "http://snomed.info/sct",
                "display": "Hyperlipidemia"
              }
            ]
          },
          {
            "coding": [
              {
                "code": "414545008",
                "system": "http://snomed.info/sct",
                "display": "Ischemic heart disease"
              }
            ]
          },
          {
            "coding": [
              {
                "code": "59621000",
                "system": "http://snomed.info/sct",
                "display": "Essential hypertension"
              }
            ]
          },
          {
            "coding": [
              {
                "code": "40055000",
                "system": "http://snomed.info/sct",
                "display": "Chronic sinusitis"
              }
            ]
          }
        ],
        "status": "active",
        "intent": "order",
        "code": {
          "coding": [
            {
              "code": "108252007",
              "system": "http://snomed.info/sct",
              "display": "Laboratory procedure"
            }
          ]
        },
        "subject": {
          "reference": "urn:uuid:575c5fea-f8c1-4d95-8517-70e1409009c8",
          "display": "Aniela Prażmo"
        },
        "requester": {
          "reference": "urn:uuid:085fd34d-7984-4d05-aac2-e1e5551c8c64"
        }
      }
    },
    {
      "fullUrl": "urn:uuid:085fd34d-7984-4d05-aac2-e1e5551c8c64",
      "resource": {
        "resourceType": "PractitionerRole",
        "id": "085fd34d-7984-4d05-aac2-e1e5551c8c64",
        "meta": {
          "profile": [
            "http://hl7.eu/fhir/base/StructureDefinition/practitionerRole-eu"
          ]
        },
        "text": {
          "status": "generated",
          "div": "<div xmlns=\"http://www.w3.org/1999/xhtml\">Provider Role Id: 085fd34d-7984-4d05-aac2-e1e5551c8c64</div>"
        },
        "organization": {
          "reference": "urn:uuid:08a52b8a-86a8-497a-b4eb-7f88e47c4c5a"
        }
      }
    },
    {
      "fullUrl": "urn:uuid:08a52b8a-86a8-497a-b4eb-7f88e47c4c5a",
      "resource": {
        "resourceType": "Organization",
        "id": "08a52b8a-86a8-497a-b4eb-7f88e47c4c5a",
        "meta": {
          "profile": [
            "http://hl7.eu/fhir/base/StructureDefinition/organization-eu"
          ]
        },
        "identifier": [
          {
            "assigner": {
              "display": "HL7 Europe"
            },
            "system": "urn:oid:2.16.840.1.113883.2.51.999",
            "value": "54096743-1694-4b49-8a53-c9c3aad0c654"
          }
        ],
        "address": [
          {
            "city": "Tomaszów Mazowiecki",
            "postalCode": "97-200",
            "country": "Poland"
          }
        ],
        "text": {
          "status": "generated",
          "div": "<div xmlns=\"http://www.w3.org/1999/xhtml\">Provider Organization: Poradnia rehabilitacyjna</div>"
        },
        "name": "Poradnia rehabilitacyjna"
      }
    },
    {
      "fullUrl": "urn:uuid:12666e25-e9e5-4e3b-b52b-04aabf0a7f27",
      "resource": {
        "resourceType": "Specimen",
        "id": "12666e25-e9e5-4e3b-b52b-04aabf0a7f27",
        "meta": {
          "profile": [
            "http://hl7.eu/fhir/laboratory/StructureDefinition/Specimen-eu-lab"
          ]
        },
        "collection": {
          "collectedDateTime": "2017-05-21"
        },
        "text": {
          "status": "generated",
          "div": "<div xmlns=\"http://www.w3.org/1999/xhtml\"><table class=\"hl7__eu__lab__report\"><tr><th>Specimen</th><th>Collection Date</th></tr><tr><td>Whole blood specimen (specimen)</td><td><span class=\"nb\">21-May-2017</span></td></tr></table></div>"
        },
        "type": {
          "coding": [
            {
              "code": "258580003",
              "system": "http://snomed.info/sct",
              "display": "Whole blood specimen (specimen)"
            }
          ]
        }
      }
    },
    {
      "fullUrl": "urn:uuid:12666e25-e9e5-4e3b-b52b-04aabf0a7f27",
      "resource": {
        "resourceType": "Specimen",
        "id": "12666e25-e9e5-4e3b-b52b-04aabf0a7f27",
        "meta": {
          "profile": [
            "http://hl7.eu/fhir/laboratory/StructureDefinition/Specimen-eu-lab"
          ]
        },
        "collection": {
          "collectedDateTime": "2017-05-21"
        },
        "text": {
          "status": "generated",
          "div": "<div xmlns=\"http://www.w3.org/1999/xhtml\"><table class=\"hl7__eu__lab__report\"><tr><th>Specimen</th><th>Collection Date</th></tr><tr><td>Whole blood specimen (specimen)</td><td><span class=\"nb\">21-May-2017</span></td></tr></table></div>"
        },
        "type": {
          "coding": [
            {
              "code": "258580003",
              "system": "http://snomed.info/sct",
              "display": "Whole blood specimen (specimen)"
            }
          ]
        }
      }
    },
    {
      "fullUrl": "urn:uuid:fd631e17-27bf-4029-b219-1fd4069a1b87",
      "resource": {
        "resourceType": "Specimen",
        "id": "fd631e17-27bf-4029-b219-1fd4069a1b87",
        "meta": {
          "profile": [
            "http://hl7.eu/fhir/laboratory/StructureDefinition/Specimen-eu-lab"
          ]
        },
        "collection": {
          "collectedDateTime": "2017-05-21"
        },
        "text": {
          "status": "generated",
          "div": "<div xmlns=\"http://www.w3.org/1999/xhtml\"><table class=\"hl7__eu__lab__report\"><tr><th>Specimen</th><th>Collection Date</th></tr><tr><td>Acellular blood (serum or plasma) specimen</td><td><span class=\"nb\">21-May-2017</span></td></tr></table></div>"
        },
        "type": {
          "coding": [
            {
              "code": "122592007",
              "system": "http://snomed.info/sct",
              "display": "Acellular blood (serum or plasma) specimen"
            }
          ]
        }
      }
    },
    {
      "fullUrl": "urn:uuid:0b308b34-d86a-4e97-bc99-07054595f454",
      "resource": {
        "resourceType": "Specimen",
        "id": "0b308b34-d86a-4e97-bc99-07054595f454",
        "meta": {
          "profile": [
            "http://hl7.eu/fhir/laboratory/StructureDefinition/Specimen-eu-lab"
          ]
        },
        "collection": {
          "collectedDateTime": "2017-05-21"
        },
        "text": {
          "status": "generated",
          "div": "<div xmlns=\"http://www.w3.org/1999/xhtml\"><table class=\"hl7__eu__lab__report\"><tr><th>Specimen</th><th>Collection Date</th></tr><tr><td>Platelet poor plasma specimen</td><td><span class=\"nb\">21-May-2017</span></td></tr></table></div>"
        },
        "type": {
          "coding": [
            {
              "code": "119362004",
              "system": "http://snomed.info/sct",
              "display": "Platelet poor plasma specimen"
            }
          ]
        }
      }
    },
    {
      "fullUrl": "urn:uuid:57da4a16-208b-4e8f-a9b3-052cb04cb0cb",
      "resource": {
        "resourceType": "Specimen",
        "id": "57da4a16-208b-4e8f-a9b3-052cb04cb0cb",
        "meta": {
          "profile": [
            "http://hl7.eu/fhir/laboratory/StructureDefinition/Specimen-eu-lab"
          ]
        },
        "collection": {
          "collectedDateTime": "2017-05-21"
        },
        "text": {
          "status": "generated",
          "div": "<div xmlns=\"http://www.w3.org/1999/xhtml\"><table class=\"hl7__eu__lab__report\"><tr><th>Specimen</th><th>Collection Date</th></tr><tr><td>Arterial blood specimen</td><td><span class=\"nb\">21-May-2017</span></td></tr></table></div>"
        },
        "type": {
          "coding": [
            {
              "code": "122552005",
              "system": "http://snomed.info/sct",
              "display": "Arterial blood specimen"
            }
          ]
        }
      }
    },
    {
      "fullUrl": "urn:uuid:dfed6e89-46e5-405c-a60b-43c8387f2788",
      "resource": {
        "resourceType": "Specimen",
        "id": "dfed6e89-46e5-405c-a60b-43c8387f2788",
        "meta": {
          "profile": [
            "http://hl7.eu/fhir/laboratory/StructureDefinition/Specimen-eu-lab"
          ]
        },
        "collection": {
          "collectedDateTime": "2017-05-21"
        },
        "text": {
          "status": "generated",
          "div": "<div xmlns=\"http://www.w3.org/1999/xhtml\"><table class=\"hl7__eu__lab__report\"><tr><th>Specimen</th><th>Collection Date</th></tr><tr><td>Urine specimen</td><td><span class=\"nb\">21-May-2017</span></td></tr></table></div>"
        },
        "type": {
          "coding": [
            {
              "code": "122575003",
              "system": "http://snomed.info/sct",
              "display": "Urine specimen"
            }
          ]
        }
      }
    },
    {
      "fullUrl": "urn:uuid:9b5c7da7-46ad-4f8e-868b-8bf3fd652131",
      "resource": {
        "resourceType": "Observation",
        "id": "9b5c7da7-46ad-4f8e-868b-8bf3fd652131",
        "meta": {
          "profile": [
            "http://hl7.eu/fhir/laboratory/StructureDefinition/Observation-resultslab-eu-lab"
          ]
        },
        "performer": [
          {
            "display": "The Central European Lab"
          }
        ],
        "category": [
          {
            "coding": [
              {
                "system": "http://terminology.hl7.org/CodeSystem/observation-category",
                "code": "laboratory"
              }
            ]
          }
        ],
        "code": {
          "coding": [
            {
              "code": "6690-2",
              "system": "http://loinc.org",
              "display": "Leukocytes [#/volume] in Blood by Automated count"
            }
          ],
          "text": "Leukocytes [#/volume] in Blood by Automated count"
        },
        "valueQuantity": {
          "system": "http://unitsofmeasure.org",
          "value": 7.3,
          "unit": "10*3/uL",
          "code": "10*3/uL"
        },
        "referenceRange": [
          {
            "low": {
              "value": 4,
              "code": "10*3/uL",
              "system": "http://unitsofmeasure.org"
            }
          },
          {
            "high": {
              "value": 11,
              "code": "10*3/uL",
              "system": "http://unitsofmeasure.org"
            }
          }
        ],
        "text": {
          "status": "generated",
          "div": "<div xmlns=\"http://www.w3.org/1999/xhtml\"><table class=\"hl7__eu__lab__report\"><tr><th>Test</th><th>22-May-2017</th><th>Reference&#xA0;Range</th><th>Unit</th></tr><tr><td>Leukocytes [#/volume] in Blood by Automated count</td><td>7.3</td><td>4 - 11</td><td></td><td>10*3/uL</td></tr></table></div>"
        },
        "status": "final",
        "subject": {
          "reference": "urn:uuid:575c5fea-f8c1-4d95-8517-70e1409009c8",
          "display": "Aniela Prażmo"
        },
        "effectiveDateTime": "2017-05-21T22:09:53Z",
        "specimen": {
          "reference": "urn:uuid:12666e25-e9e5-4e3b-b52b-04aabf0a7f27"
        }
      }
    },
    {
      "fullUrl": "urn:uuid:a7c38c68-6505-46e9-b63b-4db077dd662e",
      "resource": {
        "resourceType": "Observation",
        "id": "a7c38c68-6505-46e9-b63b-4db077dd662e",
        "meta": {
          "profile": [
            "http://hl7.eu/fhir/laboratory/StructureDefinition/Observation-resultslab-eu-lab"
          ]
        },
        "performer": [
          {
            "display": "The Central European Lab"
          }
        ],
        "category": [
          {
            "coding": [
              {
                "system": "http://terminology.hl7.org/CodeSystem/observation-category",
                "code": "laboratory"
              }
            ]
          }
        ],
        "code": {
          "coding": [
            {
              "code": "789-8",
              "system": "http://loinc.org",
              "display": "Erythrocytes [#/volume] in Blood by Automated count"
            }
          ],
          "text": "Erythrocytes [#/volume] in Blood by Automated count"
        },
        "valueQuantity": {
          "system": "http://unitsofmeasure.org",
          "value": 5,
          "unit": "10*6/uL",
          "code": "10*6/uL"
        },
        "referenceRange": [
          {
            "low": {
              "value": 3.8,
              "code": "10*6/uL",
              "system": "http://unitsofmeasure.org"
            }
          },
          {
            "high": {
              "value": 5.7,
              "code": "10*6/uL",
              "system": "http://unitsofmeasure.org"
            }
          }
        ],
        "text": {
          "status": "generated",
          "div": "<div xmlns=\"http://www.w3.org/1999/xhtml\"><table class=\"hl7__eu__lab__report\"><tr><th>Test</th><th>22-May-2017</th><th>Reference&#xA0;Range</th><th>Unit</th></tr><tr><td>Erythrocytes [#/volume] in Blood by Automated count</td><td>5.0</td><td>3.8 - 5.7</td><td></td><td>10*6/uL</td></tr></table></div>"
        },
        "status": "final",
        "subject": {
          "reference": "urn:uuid:575c5fea-f8c1-4d95-8517-70e1409009c8",
          "display": "Aniela Prażmo"
        },
        "effectiveDateTime": "2017-05-21T22:09:53Z",
        "specimen": {
          "reference": "urn:uuid:12666e25-e9e5-4e3b-b52b-04aabf0a7f27"
        }
      }
    },
    {
      "fullUrl": "urn:uuid:27a5d681-e5c7-4d4f-b561-5a7e62af962c",
      "resource": {
        "resourceType": "Observation",
        "id": "27a5d681-e5c7-4d4f-b561-5a7e62af962c",
        "meta": {
          "profile": [
            "http://hl7.eu/fhir/laboratory/StructureDefinition/Observation-resultslab-eu-lab"
          ]
        },
        "performer": [
          {
            "display": "The Central European Lab"
          }
        ],
        "category": [
          {
            "coding": [
              {
                "system": "http://terminology.hl7.org/CodeSystem/observation-category",
                "code": "laboratory"
              }
            ]
          }
        ],
        "code": {
          "coding": [
            {
              "code": "718-7",
              "system": "http://loinc.org",
              "display": "Hemoglobin [Mass/volume] in Blood"
            }
          ],
          "text": "Hemoglobin [Mass/volume] in Blood"
        },
        "valueQuantity": {
          "system": "http://unitsofmeasure.org",
          "value": 15.9,
          "unit": "g/dL",
          "code": "g/dL"
        },
        "referenceRange": [
          {
            "low": {
              "value": 12,
              "code": "g/dL",
              "system": "http://unitsofmeasure.org"
            }
          },
          {
            "high": {
              "value": 16,
              "code": "g/dL",
              "system": "http://unitsofmeasure.org"
            }
          }
        ],
        "text": {
          "status": "generated",
          "div": "<div xmlns=\"http://www.w3.org/1999/xhtml\"><table class=\"hl7__eu__lab__report\"><tr><th>Test</th><th>22-May-2017</th><th>Reference&#xA0;Range</th><th>Unit</th></tr><tr><td>Hemoglobin [Mass/volume] in Blood</td><td>15.9</td><td>12 - 16</td><td></td><td>g/dL</td></tr></table></div>"
        },
        "status": "final",
        "subject": {
          "reference": "urn:uuid:575c5fea-f8c1-4d95-8517-70e1409009c8",
          "display": "Aniela Prażmo"
        },
        "effectiveDateTime": "2017-05-21T22:09:53Z",
        "specimen": {
          "reference": "urn:uuid:12666e25-e9e5-4e3b-b52b-04aabf0a7f27"
        }
      }
    },
    {
      "fullUrl": "urn:uuid:d40645e0-1c11-4114-921d-803c18cf1a26",
      "resource": {
        "resourceType": "Observation",
        "id": "d40645e0-1c11-4114-921d-803c18cf1a26",
        "meta": {
          "profile": [
            "http://hl7.eu/fhir/laboratory/StructureDefinition/Observation-resultslab-eu-lab"
          ]
        },
        "performer": [
          {
            "display": "The Central European Lab"
          }
        ],
        "category": [
          {
            "coding": [
              {
                "system": "http://terminology.hl7.org/CodeSystem/observation-category",
                "code": "laboratory"
              }
            ]
          }
        ],
        "code": {
          "coding": [
            {
              "code": "4544-3",
              "system": "http://loinc.org",
              "display": "Hematocrit [Volume Fraction] of Blood by Automated count"
            }
          ],
          "text": "Hematocrit [Volume Fraction] of Blood by Automated count"
        },
        "valueQuantity": {
          "system": "http://unitsofmeasure.org",
          "value": 37.4,
          "unit": "%",
          "code": "%"
        },
        "referenceRange": [
          {
            "low": {
              "value": 38,
              "code": "%",
              "system": "http://unitsofmeasure.org"
            }
          },
          {
            "high": {
              "value": 56,
              "code": "%",
              "system": "http://unitsofmeasure.org"
            }
          }
        ],
        "interpretation": [
          {
            "coding": [
              {
                "code": "L",
                "system": "http://terminology.hl7.org/CodeSystem/v3-ObservationInterpretation",
                "display": "Low"
              }
            ]
          }
        ],
        "text": {
          "status": "generated",
          "div": "<div xmlns=\"http://www.w3.org/1999/xhtml\"><table class=\"hl7__eu__lab__report\"><tr><th>Test</th><th>22-May-2017</th><th>Reference&#xA0;Range</th><th>Unit</th></tr><tr><td>Hematocrit [Volume Fraction] of Blood by Automated count</td><td>37.4</td><td>38 - 56</td><td>L</td><td>%</td></tr></table></div>"
        },
        "status": "final",
        "subject": {
          "reference": "urn:uuid:575c5fea-f8c1-4d95-8517-70e1409009c8",
          "display": "Aniela Prażmo"
        },
        "effectiveDateTime": "2017-05-21T22:09:53Z",
        "specimen": {
          "reference": "urn:uuid:12666e25-e9e5-4e3b-b52b-04aabf0a7f27"
        }
      }
    },
    {
      "fullUrl": "urn:uuid:ea4de146-5415-4309-a021-79cf4428c1ee",
      "resource": {
        "resourceType": "Observation",
        "id": "ea4de146-5415-4309-a021-79cf4428c1ee",
        "meta": {
          "profile": [
            "http://hl7.eu/fhir/laboratory/StructureDefinition/Observation-resultslab-eu-lab"
          ]
        },
        "performer": [
          {
            "display": "The Central European Lab"
          }
        ],
        "category": [
          {
            "coding": [
              {
                "system": "http://terminology.hl7.org/CodeSystem/observation-category",
                "code": "laboratory"
              }
            ]
          }
        ],
        "code": {
          "coding": [
            {
              "code": "787-2",
              "system": "http://loinc.org",
              "display": "MCV [Entitic volume] by Automated count"
            }
          ],
          "text": "MCV [Entitic volume] by Automated count"
        },
        "valueQuantity": {
          "system": "http://unitsofmeasure.org",
          "value": 86.5,
          "unit": "fL",
          "code": "fL"
        },
        "referenceRange": [
          {
            "low": {
              "value": 78,
              "code": "fL",
              "system": "http://unitsofmeasure.org"
            }
          },
          {
            "high": {
              "value": 98,
              "code": "fL",
              "system": "http://unitsofmeasure.org"
            }
          }
        ],
        "text": {
          "status": "generated",
          "div": "<div xmlns=\"http://www.w3.org/1999/xhtml\"><table class=\"hl7__eu__lab__report\"><tr><th>Test</th><th>22-May-2017</th><th>Reference&#xA0;Range</th><th>Unit</th></tr><tr><td>MCV [Entitic volume] by Automated count</td><td>86.5</td><td>78 - 98</td><td></td><td>fL</td></tr></table></div>"
        },
        "status": "final",
        "subject": {
          "reference": "urn:uuid:575c5fea-f8c1-4d95-8517-70e1409009c8",
          "display": "Aniela Prażmo"
        },
        "effectiveDateTime": "2017-05-21T22:09:53Z",
        "specimen": {
          "reference": "urn:uuid:12666e25-e9e5-4e3b-b52b-04aabf0a7f27"
        }
      }
    },
    {
      "fullUrl": "urn:uuid:c92a6493-1c0c-4e72-8ec3-b1c7a07c8719",
      "resource": {
        "resourceType": "Observation",
        "id": "c92a6493-1c0c-4e72-8ec3-b1c7a07c8719",
        "meta": {
          "profile": [
            "http://hl7.eu/fhir/laboratory/StructureDefinition/Observation-resultslab-eu-lab"
          ]
        },
        "performer": [
          {
            "display": "The Central European Lab"
          }
        ],
        "category": [
          {
            "coding": [
              {
                "system": "http://terminology.hl7.org/CodeSystem/observation-category",
                "code": "laboratory"
              }
            ]
          }
        ],
        "code": {
          "coding": [
            {
              "code": "785-6",
              "system": "http://loinc.org",
              "display": "MCH [Entitic mass] by Automated count"
            }
          ],
          "text": "MCH [Entitic mass] by Automated count"
        },
        "valueQuantity": {
          "system": "http://unitsofmeasure.org",
          "value": 30.5,
          "unit": "pg",
          "code": "pg"
        },
        "referenceRange": [
          {
            "low": {
              "value": 27,
              "code": "pg",
              "system": "http://unitsofmeasure.org"
            }
          },
          {
            "high": {
              "value": 34,
              "code": "pg",
              "system": "http://unitsofmeasure.org"
            }
          }
        ],
        "text": {
          "status": "generated",
          "div": "<div xmlns=\"http://www.w3.org/1999/xhtml\"><table class=\"hl7__eu__lab__report\"><tr><th>Test</th><th>22-May-2017</th><th>Reference&#xA0;Range</th><th>Unit</th></tr><tr><td>MCH [Entitic mass] by Automated count</td><td>30.5</td><td>27 - 34</td><td></td><td>pg</td></tr></table></div>"
        },
        "status": "final",
        "subject": {
          "reference": "urn:uuid:575c5fea-f8c1-4d95-8517-70e1409009c8",
          "display": "Aniela Prażmo"
        },
        "effectiveDateTime": "2017-05-21T22:09:53Z",
        "specimen": {
          "reference": "urn:uuid:12666e25-e9e5-4e3b-b52b-04aabf0a7f27"
        }
      }
    },
    {
      "fullUrl": "urn:uuid:30f8cb99-bc41-4a26-a9c3-f30b3b124864",
      "resource": {
        "resourceType": "Observation",
        "id": "30f8cb99-bc41-4a26-a9c3-f30b3b124864",
        "meta": {
          "profile": [
            "http://hl7.eu/fhir/laboratory/StructureDefinition/Observation-resultslab-eu-lab"
          ]
        },
        "performer": [
          {
            "display": "The Central European Lab"
          }
        ],
        "category": [
          {
            "coding": [
              {
                "system": "http://terminology.hl7.org/CodeSystem/observation-category",
                "code": "laboratory"
              }
            ]
          }
        ],
        "code": {
          "coding": [
            {
              "code": "786-4",
              "system": "http://loinc.org",
              "display": "MCHC [Mass/volume] by Automated count"
            }
          ],
          "text": "MCHC [Mass/volume] by Automated count"
        },
        "valueQuantity": {
          "system": "http://unitsofmeasure.org",
          "value": 31.6,
          "unit": "g/dL",
          "code": "g/dL"
        },
        "referenceRange": [
          {
            "low": {
              "value": 32,
              "code": "g/dL",
              "system": "http://unitsofmeasure.org"
            }
          },
          {
            "high": {
              "value": 35,
              "code": "g/dL",
              "system": "http://unitsofmeasure.org"
            }
          }
        ],
        "interpretation": [
          {
            "coding": [
              {
                "code": "L",
                "system": "http://terminology.hl7.org/CodeSystem/v3-ObservationInterpretation",
                "display": "Low"
              }
            ]
          }
        ],
        "text": {
          "status": "generated",
          "div": "<div xmlns=\"http://www.w3.org/1999/xhtml\"><table class=\"hl7__eu__lab__report\"><tr><th>Test</th><th>22-May-2017</th><th>Reference&#xA0;Range</th><th>Unit</th></tr><tr><td>MCHC [Mass/volume] by Automated count</td><td>31.6</td><td>32 - 35</td><td>L</td><td>g/dL</td></tr></table></div>"
        },
        "status": "final",
        "subject": {
          "reference": "urn:uuid:575c5fea-f8c1-4d95-8517-70e1409009c8",
          "display": "Aniela Prażmo"
        },
        "effectiveDateTime": "2017-05-21T22:09:53Z",
        "specimen": {
          "reference": "urn:uuid:12666e25-e9e5-4e3b-b52b-04aabf0a7f27"
        }
      }
    },
    {
      "fullUrl": "urn:uuid:0fecbdc2-1ab6-475a-980b-e1bdf2e3987f",
      "resource": {
        "resourceType": "Observation",
        "id": "0fecbdc2-1ab6-475a-980b-e1bdf2e3987f",
        "meta": {
          "profile": [
            "http://hl7.eu/fhir/laboratory/StructureDefinition/Observation-resultslab-eu-lab"
          ]
        },
        "performer": [
          {
            "display": "The Central European Lab"
          }
        ],
        "category": [
          {
            "coding": [
              {
                "system": "http://terminology.hl7.org/CodeSystem/observation-category",
                "code": "laboratory"
              }
            ]
          }
        ],
        "code": {
          "coding": [
            {
              "code": "788-0",
              "system": "http://loinc.org",
              "display": "Erythrocyte distribution width [Ratio] by Automated count"
            }
          ],
          "text": "Erythrocyte distribution width [Ratio] by Automated count"
        },
        "valueQuantity": {
          "system": "http://unitsofmeasure.org",
          "value": 15.2,
          "unit": "%",
          "code": "%"
        },
        "referenceRange": [
          {
            "low": {
              "value": 11.6,
              "code": "%",
              "system": "http://unitsofmeasure.org"
            }
          },
          {
            "high": {
              "value": 16.5,
              "code": "%",
              "system": "http://unitsofmeasure.org"
            }
          }
        ],
        "text": {
          "status": "generated",
          "div": "<div xmlns=\"http://www.w3.org/1999/xhtml\"><table class=\"hl7__eu__lab__report\"><tr><th>Test</th><th>22-May-2017</th><th>Reference&#xA0;Range</th><th>Unit</th></tr><tr><td>Erythrocyte distribution width [Ratio] by Automated count</td><td>15.2</td><td>11.6 - 16.5</td><td></td><td>%</td></tr></table></div>"
        },
        "status": "final",
        "subject": {
          "reference": "urn:uuid:575c5fea-f8c1-4d95-8517-70e1409009c8",
          "display": "Aniela Prażmo"
        },
        "effectiveDateTime": "2017-05-21T22:09:53Z",
        "specimen": {
          "reference": "urn:uuid:12666e25-e9e5-4e3b-b52b-04aabf0a7f27"
        }
      }
    },
    {
      "fullUrl": "urn:uuid:83a4b07e-6ce5-4af9-a8c0-90b7e562913b",
      "resource": {
        "resourceType": "Observation",
        "id": "83a4b07e-6ce5-4af9-a8c0-90b7e562913b",
        "meta": {
          "profile": [
            "http://hl7.eu/fhir/laboratory/StructureDefinition/Observation-resultslab-eu-lab"
          ]
        },
        "performer": [
          {
            "display": "The Central European Lab"
          }
        ],
        "category": [
          {
            "coding": [
              {
                "system": "http://terminology.hl7.org/CodeSystem/observation-category",
                "code": "laboratory"
              }
            ]
          }
        ],
        "code": {
          "coding": [
            {
              "code": "777-3",
              "system": "http://loinc.org",
              "display": "Platelets [#/volume] in Blood by Automated count"
            }
          ],
          "text": "Platelets [#/volume] in Blood by Automated count"
        },
        "valueQuantity": {
          "system": "http://unitsofmeasure.org",
          "value": 382.3,
          "unit": "10*3/uL",
          "code": "10*3/uL"
        },
        "referenceRange": [
          {
            "low": {
              "value": 157,
              "code": "10*3/uL",
              "system": "http://unitsofmeasure.org"
            }
          },
          {
            "high": {
              "value": 415,
              "code": "10*3/uL",
              "system": "http://unitsofmeasure.org"
            }
          }
        ],
        "text": {
          "status": "generated",
          "div": "<div xmlns=\"http://www.w3.org/1999/xhtml\"><table class=\"hl7__eu__lab__report\"><tr><th>Test</th><th>22-May-2017</th><th>Reference&#xA0;Range</th><th>Unit</th></tr><tr><td>Platelets [#/volume] in Blood by Automated count</td><td>382.3</td><td>157 - 415</td><td></td><td>10*3/uL</td></tr></table></div>"
        },
        "status": "final",
        "subject": {
          "reference": "urn:uuid:575c5fea-f8c1-4d95-8517-70e1409009c8",
          "display": "Aniela Prażmo"
        },
        "effectiveDateTime": "2017-05-21T22:09:53Z",
        "specimen": {
          "reference": "urn:uuid:12666e25-e9e5-4e3b-b52b-04aabf0a7f27"
        }
      }
    },
    {
      "fullUrl": "urn:uuid:1af6aec2-0765-462e-a610-d00d9b15e696",
      "resource": {
        "resourceType": "Observation",
        "id": "1af6aec2-0765-462e-a610-d00d9b15e696",
        "meta": {
          "profile": [
            "http://hl7.eu/fhir/laboratory/StructureDefinition/Observation-resultslab-eu-lab"
          ]
        },
        "performer": [
          {
            "display": "The Central European Lab"
          }
        ],
        "category": [
          {
            "coding": [
              {
                "system": "http://terminology.hl7.org/CodeSystem/observation-category",
                "code": "laboratory"
              }
            ]
          }
        ],
        "code": {
          "coding": [
            {
              "code": "2345-7",
              "system": "http://loinc.org",
              "display": "Glucose [Mass/volume] in Serum or Plasma"
            }
          ],
          "text": "Glucose [Mass/volume] in Serum or Plasma"
        },
        "valueQuantity": {
          "system": "http://unitsofmeasure.org",
          "value": 71.5,
          "unit": "mg/dL",
          "code": "mg/dL"
        },
        "referenceRange": [
          {
            "low": {
              "value": 70,
              "code": "mg/dL",
              "system": "http://unitsofmeasure.org"
            }
          },
          {
            "high": {
              "value": 99,
              "code": "mg/dL",
              "system": "http://unitsofmeasure.org"
            }
          }
        ],
        "text": {
          "status": "generated",
          "div": "<div xmlns=\"http://www.w3.org/1999/xhtml\"><table class=\"hl7__eu__lab__report\"><tr><th>Test</th><th>22-May-2017</th><th>Reference&#xA0;Range</th><th>Unit</th></tr><tr><td>Glucose [Mass/volume] in Serum or Plasma</td><td>71.5</td><td>70 - 99</td><td></td><td>mg/dL</td></tr></table></div>"
        },
        "status": "final",
        "subject": {
          "reference": "urn:uuid:575c5fea-f8c1-4d95-8517-70e1409009c8",
          "display": "Aniela Prażmo"
        },
        "effectiveDateTime": "2017-05-21T22:09:53Z",
        "specimen": {
          "reference": "urn:uuid:fd631e17-27bf-4029-b219-1fd4069a1b87"
        }
      }
    },
    {
      "fullUrl": "urn:uuid:7f825a05-01a8-47a7-90ee-2c63241d3a3a",
      "resource": {
        "resourceType": "Observation",
        "id": "7f825a05-01a8-47a7-90ee-2c63241d3a3a",
        "meta": {
          "profile": [
            "http://hl7.eu/fhir/laboratory/StructureDefinition/Observation-resultslab-eu-lab"
          ]
        },
        "performer": [
          {
            "display": "The Central European Lab"
          }
        ],
        "category": [
          {
            "coding": [
              {
                "system": "http://terminology.hl7.org/CodeSystem/observation-category",
                "code": "laboratory"
              }
            ]
          }
        ],
        "code": {
          "coding": [
            {
              "code": "3094-0",
              "system": "http://loinc.org",
              "display": "Urea nitrogen [Mass/volume] in Serum or Plasma"
            }
          ],
          "text": "Urea nitrogen [Mass/volume] in Serum or Plasma"
        },
        "valueQuantity": {
          "system": "http://unitsofmeasure.org",
          "value": 7.8,
          "unit": "mg/dL",
          "code": "mg/dL"
        },
        "referenceRange": [
          {
            "low": {
              "value": 7,
              "code": "mg/dL",
              "system": "http://unitsofmeasure.org"
            }
          },
          {
            "high": {
              "value": 20,
              "code": "mg/dL",
              "system": "http://unitsofmeasure.org"
            }
          }
        ],
        "text": {
          "status": "generated",
          "div": "<div xmlns=\"http://www.w3.org/1999/xhtml\"><table class=\"hl7__eu__lab__report\"><tr><th>Test</th><th>22-May-2017</th><th>Reference&#xA0;Range</th><th>Unit</th></tr><tr><td>Urea nitrogen [Mass/volume] in Serum or Plasma</td><td>7.8</td><td>7 - 20</td><td></td><td>mg/dL</td></tr></table></div>"
        },
        "status": "final",
        "subject": {
          "reference": "urn:uuid:575c5fea-f8c1-4d95-8517-70e1409009c8",
          "display": "Aniela Prażmo"
        },
        "effectiveDateTime": "2017-05-21T22:09:53Z",
        "specimen": {
          "reference": "urn:uuid:fd631e17-27bf-4029-b219-1fd4069a1b87"
        }
      }
    },
    {
      "fullUrl": "urn:uuid:6a8e3de4-414c-4599-a837-a8ac96864592",
      "resource": {
        "resourceType": "Observation",
        "id": "6a8e3de4-414c-4599-a837-a8ac96864592",
        "meta": {
          "profile": [
            "http://hl7.eu/fhir/laboratory/StructureDefinition/Observation-resultslab-eu-lab"
          ]
        },
        "performer": [
          {
            "display": "The Central European Lab"
          }
        ],
        "category": [
          {
            "coding": [
              {
                "system": "http://terminology.hl7.org/CodeSystem/observation-category",
                "code": "laboratory"
              }
            ]
          }
        ],
        "code": {
          "coding": [
            {
              "code": "2160-0",
              "system": "http://loinc.org",
              "display": "Creatinine [Mass/volume] in Serum or Plasma"
            }
          ],
          "text": "Creatinine [Mass/volume] in Serum or Plasma"
        },
        "valueQuantity": {
          "system": "http://unitsofmeasure.org",
          "value": 2.9,
          "unit": "mg/dL",
          "code": "mg/dL"
        },
        "referenceRange": [
          {
            "low": {
              "value": 0.6,
              "code": "mg/dL",
              "system": "http://unitsofmeasure.org"
            }
          },
          {
            "high": {
              "value": 1.3,
              "code": "mg/dL",
              "system": "http://unitsofmeasure.org"
            }
          }
        ],
        "interpretation": [
          {
            "coding": [
              {
                "code": "H",
                "system": "http://terminology.hl7.org/CodeSystem/v3-ObservationInterpretation",
                "display": "High"
              }
            ]
          }
        ],
        "text": {
          "status": "generated",
          "div": "<div xmlns=\"http://www.w3.org/1999/xhtml\"><table class=\"hl7__eu__lab__report\"><tr><th>Test</th><th>22-May-2017</th><th>Reference&#xA0;Range</th><th>Unit</th></tr><tr><td>Creatinine [Mass/volume] in Serum or Plasma</td><td>2.9</td><td>0.6 - 1.3</td><td>H</td><td>mg/dL</td></tr></table></div>"
        },
        "status": "final",
        "subject": {
          "reference": "urn:uuid:575c5fea-f8c1-4d95-8517-70e1409009c8",
          "display": "Aniela Prażmo"
        },
        "effectiveDateTime": "2017-05-21T22:09:53Z",
        "specimen": {
          "reference": "urn:uuid:fd631e17-27bf-4029-b219-1fd4069a1b87"
        }
      }
    },
    {
      "fullUrl": "urn:uuid:fb98ccd8-139b-4829-9f40-30746eded8de",
      "resource": {
        "resourceType": "Observation",
        "id": "fb98ccd8-139b-4829-9f40-30746eded8de",
        "meta": {
          "profile": [
            "http://hl7.eu/fhir/laboratory/StructureDefinition/Observation-resultslab-eu-lab"
          ]
        },
        "performer": [
          {
            "display": "The Central European Lab"
          }
        ],
        "category": [
          {
            "coding": [
              {
                "system": "http://terminology.hl7.org/CodeSystem/observation-category",
                "code": "laboratory"
              }
            ]
          }
        ],
        "code": {
          "coding": [
            {
              "code": "17861-6",
              "system": "http://loinc.org",
              "display": "Calcium [Mass/volume] in Serum or Plasma"
            }
          ],
          "text": "Calcium [Mass/volume] in Serum or Plasma"
        },
        "valueQuantity": {
          "system": "http://unitsofmeasure.org",
          "value": 9.7,
          "unit": "mg/dL",
          "code": "mg/dL"
        },
        "referenceRange": [
          {
            "low": {
              "value": 8.5,
              "code": "mg/dL",
              "system": "http://unitsofmeasure.org"
            }
          },
          {
            "high": {
              "value": 10.4,
              "code": "mg/dL",
              "system": "http://unitsofmeasure.org"
            }
          }
        ],
        "text": {
          "status": "generated",
          "div": "<div xmlns=\"http://www.w3.org/1999/xhtml\"><table class=\"hl7__eu__lab__report\"><tr><th>Test</th><th>22-May-2017</th><th>Reference&#xA0;Range</th><th>Unit</th></tr><tr><td>Calcium [Mass/volume] in Serum or Plasma</td><td>9.7</td><td>8.5 - 10.4</td><td></td><td>mg/dL</td></tr></table></div>"
        },
        "status": "final",
        "subject": {
          "reference": "urn:uuid:575c5fea-f8c1-4d95-8517-70e1409009c8",
          "display": "Aniela Prażmo"
        },
        "effectiveDateTime": "2017-05-21T22:09:53Z",
        "specimen": {
          "reference": "urn:uuid:fd631e17-27bf-4029-b219-1fd4069a1b87"
        }
      }
    },
    {
      "fullUrl": "urn:uuid:9033fa56-381c-4654-a996-55158a08672d",
      "resource": {
        "resourceType": "Observation",
        "id": "9033fa56-381c-4654-a996-55158a08672d",
        "meta": {
          "profile": [
            "http://hl7.eu/fhir/laboratory/StructureDefinition/Observation-resultslab-eu-lab"
          ]
        },
        "performer": [
          {
            "display": "The Central European Lab"
          }
        ],
        "category": [
          {
            "coding": [
              {
                "system": "http://terminology.hl7.org/CodeSystem/observation-category",
                "code": "laboratory"
              }
            ]
          }
        ],
        "code": {
          "coding": [
            {
              "code": "2951-2",
              "system": "http://loinc.org",
              "display": "Sodium [Moles/volume] in Serum or Plasma"
            }
          ],
          "text": "Sodium [Moles/volume] in Serum or Plasma"
        },
        "valueQuantity": {
          "system": "http://unitsofmeasure.org",
          "value": 136.6,
          "unit": "mmol/L",
          "code": "mmol/L"
        },
        "referenceRange": [
          {
            "low": {
              "value": 135,
              "code": "mmol/L",
              "system": "http://unitsofmeasure.org"
            }
          },
          {
            "high": {
              "value": 145,
              "code": "mmol/L",
              "system": "http://unitsofmeasure.org"
            }
          }
        ],
        "text": {
          "status": "generated",
          "div": "<div xmlns=\"http://www.w3.org/1999/xhtml\"><table class=\"hl7__eu__lab__report\"><tr><th>Test</th><th>22-May-2017</th><th>Reference&#xA0;Range</th><th>Unit</th></tr><tr><td>Sodium [Moles/volume] in Serum or Plasma</td><td>136.6</td><td>135 - 145</td><td></td><td>mmol/L</td></tr></table></div>"
        },
        "status": "final",
        "subject": {
          "reference": "urn:uuid:575c5fea-f8c1-4d95-8517-70e1409009c8",
          "display": "Aniela Prażmo"
        },
        "effectiveDateTime": "2017-05-21T22:09:53Z",
        "specimen": {
          "reference": "urn:uuid:fd631e17-27bf-4029-b219-1fd4069a1b87"
        }
      }
    },
    {
      "fullUrl": "urn:uuid:810d0638-2841-4b82-80c7-4af53bad4138",
      "resource": {
        "resourceType": "Observation",
        "id": "810d0638-2841-4b82-80c7-4af53bad4138",
        "meta": {
          "profile": [
            "http://hl7.eu/fhir/laboratory/StructureDefinition/Observation-resultslab-eu-lab"
          ]
        },
        "performer": [
          {
            "display": "The Central European Lab"
          }
        ],
        "category": [
          {
            "coding": [
              {
                "system": "http://terminology.hl7.org/CodeSystem/observation-category",
                "code": "laboratory"
              }
            ]
          }
        ],
        "code": {
          "coding": [
            {
              "code": "2823-3",
              "system": "http://loinc.org",
              "display": "Potassium [Moles/volume] in Serum or Plasma"
            }
          ],
          "text": "Potassium [Moles/volume] in Serum or Plasma"
        },
        "valueQuantity": {
          "system": "http://unitsofmeasure.org",
          "value": 4.3,
          "unit": "mmol/L",
          "code": "mmol/L"
        },
        "referenceRange": [
          {
            "low": {
              "value": 3.5,
              "code": "mmol/L",
              "system": "http://unitsofmeasure.org"
            }
          },
          {
            "high": {
              "value": 5.1,
              "code": "mmol/L",
              "system": "http://unitsofmeasure.org"
            }
          }
        ],
        "text": {
          "status": "generated",
          "div": "<div xmlns=\"http://www.w3.org/1999/xhtml\"><table class=\"hl7__eu__lab__report\"><tr><th>Test</th><th>22-May-2017</th><th>Reference&#xA0;Range</th><th>Unit</th></tr><tr><td>Potassium [Moles/volume] in Serum or Plasma</td><td>4.3</td><td>3.5 - 5.1</td><td></td><td>mmol/L</td></tr></table></div>"
        },
        "status": "final",
        "subject": {
          "reference": "urn:uuid:575c5fea-f8c1-4d95-8517-70e1409009c8",
          "display": "Aniela Prażmo"
        },
        "effectiveDateTime": "2017-05-21T22:09:53Z",
        "specimen": {
          "reference": "urn:uuid:fd631e17-27bf-4029-b219-1fd4069a1b87"
        }
      }
    },
    {
      "fullUrl": "urn:uuid:efd899b8-b974-43c5-85e3-fbe678daed57",
      "resource": {
        "resourceType": "Observation",
        "id": "efd899b8-b974-43c5-85e3-fbe678daed57",
        "meta": {
          "profile": [
            "http://hl7.eu/fhir/laboratory/StructureDefinition/Observation-resultslab-eu-lab"
          ]
        },
        "performer": [
          {
            "display": "The Central European Lab"
          }
        ],
        "category": [
          {
            "coding": [
              {
                "system": "http://terminology.hl7.org/CodeSystem/observation-category",
                "code": "laboratory"
              }
            ]
          }
        ],
        "code": {
          "coding": [
            {
              "code": "2075-0",
              "system": "http://loinc.org",
              "display": "Chloride [Moles/volume] in Serum or Plasma"
            }
          ],
          "text": "Chloride [Moles/volume] in Serum or Plasma"
        },
        "valueQuantity": {
          "system": "http://unitsofmeasure.org",
          "value": 105,
          "unit": "mmol/L",
          "code": "mmol/L"
        },
        "referenceRange": [
          {
            "low": {
              "value": 98,
              "code": "mmol/L",
              "system": "http://unitsofmeasure.org"
            }
          },
          {
            "high": {
              "value": 108,
              "code": "mmol/L",
              "system": "http://unitsofmeasure.org"
            }
          }
        ],
        "text": {
          "status": "generated",
          "div": "<div xmlns=\"http://www.w3.org/1999/xhtml\"><table class=\"hl7__eu__lab__report\"><tr><th>Test</th><th>22-May-2017</th><th>Reference&#xA0;Range</th><th>Unit</th></tr><tr><td>Chloride [Moles/volume] in Serum or Plasma</td><td>105.0</td><td>98 - 108</td><td></td><td>mmol/L</td></tr></table></div>"
        },
        "status": "final",
        "subject": {
          "reference": "urn:uuid:575c5fea-f8c1-4d95-8517-70e1409009c8",
          "display": "Aniela Prażmo"
        },
        "effectiveDateTime": "2017-05-21T22:09:53Z",
        "specimen": {
          "reference": "urn:uuid:fd631e17-27bf-4029-b219-1fd4069a1b87"
        }
      }
    },
    {
      "fullUrl": "urn:uuid:07d0380c-5bbf-43d6-aa65-592535d0c3bd",
      "resource": {
        "resourceType": "Observation",
        "id": "07d0380c-5bbf-43d6-aa65-592535d0c3bd",
        "meta": {
          "profile": [
            "http://hl7.eu/fhir/laboratory/StructureDefinition/Observation-resultslab-eu-lab"
          ]
        },
        "performer": [
          {
            "display": "The Central European Lab"
          }
        ],
        "category": [
          {
            "coding": [
              {
                "system": "http://terminology.hl7.org/CodeSystem/observation-category",
                "code": "laboratory"
              }
            ]
          }
        ],
        "code": {
          "coding": [
            {
              "code": "2028-9",
              "system": "http://loinc.org",
              "display": "Carbon dioxide, total [Moles/volume] in Serum or Plasma"
            }
          ],
          "text": "Carbon dioxide, total [Moles/volume] in Serum or Plasma"
        },
        "valueQuantity": {
          "system": "http://unitsofmeasure.org",
          "value": 23.3,
          "unit": "mmol/L",
          "code": "mmol/L"
        },
        "referenceRange": [
          {
            "low": {
              "value": 22,
              "code": "mmol/L",
              "system": "http://unitsofmeasure.org"
            }
          },
          {
            "high": {
              "value": 32,
              "code": "mmol/L",
              "system": "http://unitsofmeasure.org"
            }
          }
        ],
        "text": {
          "status": "generated",
          "div": "<div xmlns=\"http://www.w3.org/1999/xhtml\"><table class=\"hl7__eu__lab__report\"><tr><th>Test</th><th>22-May-2017</th><th>Reference&#xA0;Range</th><th>Unit</th></tr><tr><td>Carbon dioxide, total [Moles/volume] in Serum or Plasma</td><td>23.3</td><td>22 - 32</td><td></td><td>mmol/L</td></tr></table></div>"
        },
        "status": "final",
        "subject": {
          "reference": "urn:uuid:575c5fea-f8c1-4d95-8517-70e1409009c8",
          "display": "Aniela Prażmo"
        },
        "effectiveDateTime": "2017-05-21T22:09:53Z",
        "specimen": {
          "reference": "urn:uuid:fd631e17-27bf-4029-b219-1fd4069a1b87"
        }
      }
    },
    {
      "fullUrl": "urn:uuid:0a4823d5-4e15-47ba-a214-6a2d592bce6a",
      "resource": {
        "resourceType": "Observation",
        "id": "0a4823d5-4e15-47ba-a214-6a2d592bce6a",
        "meta": {
          "profile": [
            "http://hl7.eu/fhir/laboratory/StructureDefinition/Observation-resultslab-eu-lab"
          ]
        },
        "performer": [
          {
            "display": "The Central European Lab"
          }
        ],
        "category": [
          {
            "coding": [
              {
                "system": "http://terminology.hl7.org/CodeSystem/observation-category",
                "code": "laboratory"
              }
            ]
          }
        ],
        "code": {
          "coding": [
            {
              "code": "2885-2",
              "system": "http://loinc.org",
              "display": "Protein [Mass/volume] in Serum or Plasma"
            }
          ],
          "text": "Protein [Mass/volume] in Serum or Plasma"
        },
        "valueQuantity": {
          "system": "http://unitsofmeasure.org",
          "value": 8.3,
          "unit": "g/dL",
          "code": "g/dL"
        },
        "referenceRange": [
          {
            "low": {
              "value": 6,
              "code": "g/dL",
              "system": "http://unitsofmeasure.org"
            }
          },
          {
            "high": {
              "value": 8.3,
              "code": "g/dL",
              "system": "http://unitsofmeasure.org"
            }
          }
        ],
        "text": {
          "status": "generated",
          "div": "<div xmlns=\"http://www.w3.org/1999/xhtml\"><table class=\"hl7__eu__lab__report\"><tr><th>Test</th><th>22-May-2017</th><th>Reference&#xA0;Range</th><th>Unit</th></tr><tr><td>Protein [Mass/volume] in Serum or Plasma</td><td>8.3</td><td>6 - 8.3</td><td></td><td>g/dL</td></tr></table></div>"
        },
        "status": "final",
        "subject": {
          "reference": "urn:uuid:575c5fea-f8c1-4d95-8517-70e1409009c8",
          "display": "Aniela Prażmo"
        },
        "effectiveDateTime": "2017-05-21T22:09:53Z",
        "specimen": {
          "reference": "urn:uuid:fd631e17-27bf-4029-b219-1fd4069a1b87"
        }
      }
    },
    {
      "fullUrl": "urn:uuid:ece1a975-914b-4f22-8221-a77c9eac1b0b",
      "resource": {
        "resourceType": "Observation",
        "id": "ece1a975-914b-4f22-8221-a77c9eac1b0b",
        "meta": {
          "profile": [
            "http://hl7.eu/fhir/laboratory/StructureDefinition/Observation-resultslab-eu-lab"
          ]
        },
        "performer": [
          {
            "display": "The Central European Lab"
          }
        ],
        "category": [
          {
            "coding": [
              {
                "system": "http://terminology.hl7.org/CodeSystem/observation-category",
                "code": "laboratory"
              }
            ]
          }
        ],
        "code": {
          "coding": [
            {
              "code": "1751-7",
              "system": "http://loinc.org",
              "display": "Albumin [Mass/volume] in Serum or Plasma"
            }
          ],
          "text": "Albumin [Mass/volume] in Serum or Plasma"
        },
        "valueQuantity": {
          "system": "http://unitsofmeasure.org",
          "value": 4.6,
          "unit": "g/dL",
          "code": "g/dL"
        },
        "referenceRange": [
          {
            "low": {
              "value": 3.5,
              "code": "g/dL",
              "system": "http://unitsofmeasure.org"
            }
          },
          {
            "high": {
              "value": 5,
              "code": "g/dL",
              "system": "http://unitsofmeasure.org"
            }
          }
        ],
        "text": {
          "status": "generated",
          "div": "<div xmlns=\"http://www.w3.org/1999/xhtml\"><table class=\"hl7__eu__lab__report\"><tr><th>Test</th><th>22-May-2017</th><th>Reference&#xA0;Range</th><th>Unit</th></tr><tr><td>Albumin [Mass/volume] in Serum or Plasma</td><td>4.6</td><td>3.5 - 5</td><td></td><td>g/dL</td></tr></table></div>"
        },
        "status": "final",
        "subject": {
          "reference": "urn:uuid:575c5fea-f8c1-4d95-8517-70e1409009c8",
          "display": "Aniela Prażmo"
        },
        "effectiveDateTime": "2017-05-21T22:09:53Z",
        "specimen": {
          "reference": "urn:uuid:fd631e17-27bf-4029-b219-1fd4069a1b87"
        }
      }
    },
    {
      "fullUrl": "urn:uuid:64d9ca1d-fe08-458e-908e-43231c27b315",
      "resource": {
        "resourceType": "Observation",
        "id": "64d9ca1d-fe08-458e-908e-43231c27b315",
        "meta": {
          "profile": [
            "http://hl7.eu/fhir/laboratory/StructureDefinition/Observation-resultslab-eu-lab"
          ]
        },
        "performer": [
          {
            "display": "The Central European Lab"
          }
        ],
        "category": [
          {
            "coding": [
              {
                "system": "http://terminology.hl7.org/CodeSystem/observation-category",
                "code": "laboratory"
              }
            ]
          }
        ],
        "code": {
          "coding": [
            {
              "code": "1975-2",
              "system": "http://loinc.org",
              "display": "Bilirubin.total [Mass/volume] in Serum or Plasma"
            }
          ],
          "text": "Bilirubin.total [Mass/volume] in Serum or Plasma"
        },
        "valueQuantity": {
          "system": "http://unitsofmeasure.org",
          "value": 11.6,
          "unit": "mg/dL",
          "code": "mg/dL"
        },
        "referenceRange": [
          {
            "low": {
              "value": 0.3,
              "code": "mg/dL",
              "system": "http://unitsofmeasure.org"
            }
          },
          {
            "high": {
              "value": 1.2,
              "code": "mg/dL",
              "system": "http://unitsofmeasure.org"
            }
          }
        ],
        "interpretation": [
          {
            "coding": [
              {
                "code": "H",
                "system": "http://terminology.hl7.org/CodeSystem/v3-ObservationInterpretation",
                "display": "High"
              }
            ]
          }
        ],
        "text": {
          "status": "generated",
          "div": "<div xmlns=\"http://www.w3.org/1999/xhtml\"><table class=\"hl7__eu__lab__report\"><tr><th>Test</th><th>22-May-2017</th><th>Reference&#xA0;Range</th><th>Unit</th></tr><tr><td>Bilirubin.total [Mass/volume] in Serum or Plasma</td><td>11.6</td><td>0.3 - 1.2</td><td>H</td><td>mg/dL</td></tr></table></div>"
        },
        "status": "final",
        "subject": {
          "reference": "urn:uuid:575c5fea-f8c1-4d95-8517-70e1409009c8",
          "display": "Aniela Prażmo"
        },
        "effectiveDateTime": "2017-05-21T22:09:53Z",
        "specimen": {
          "reference": "urn:uuid:fd631e17-27bf-4029-b219-1fd4069a1b87"
        }
      }
    },
    {
      "fullUrl": "urn:uuid:1a7debdd-7485-43e6-89a6-af975aa4f543",
      "resource": {
        "resourceType": "Observation",
        "id": "1a7debdd-7485-43e6-89a6-af975aa4f543",
        "meta": {
          "profile": [
            "http://hl7.eu/fhir/laboratory/StructureDefinition/Observation-resultslab-eu-lab"
          ]
        },
        "performer": [
          {
            "display": "The Central European Lab"
          }
        ],
        "category": [
          {
            "coding": [
              {
                "system": "http://terminology.hl7.org/CodeSystem/observation-category",
                "code": "laboratory"
              }
            ]
          }
        ],
        "code": {
          "coding": [
            {
              "code": "6768-6",
              "system": "http://loinc.org",
              "display": "Alkaline phosphatase [Enzymatic activity/volume] in Serum or Plasma"
            }
          ],
          "text": "Alkaline phosphatase [Enzymatic activity/volume] in Serum or Plasma"
        },
        "valueQuantity": {
          "system": "http://unitsofmeasure.org",
          "value": 40.7,
          "unit": "U/L",
          "code": "U/L"
        },
        "referenceRange": [
          {
            "low": {
              "value": 32,
              "code": "U/L",
              "system": "http://unitsofmeasure.org"
            }
          },
          {
            "high": {
              "value": 150,
              "code": "U/L",
              "system": "http://unitsofmeasure.org"
            }
          }
        ],
        "text": {
          "status": "generated",
          "div": "<div xmlns=\"http://www.w3.org/1999/xhtml\"><table class=\"hl7__eu__lab__report\"><tr><th>Test</th><th>22-May-2017</th><th>Reference&#xA0;Range</th><th>Unit</th></tr><tr><td>Alkaline phosphatase [Enzymatic activity/volume] in Serum or Plasma</td><td>40.7</td><td>32 - 150</td><td></td><td>U/L</td></tr></table></div>"
        },
        "status": "final",
        "subject": {
          "reference": "urn:uuid:575c5fea-f8c1-4d95-8517-70e1409009c8",
          "display": "Aniela Prażmo"
        },
        "effectiveDateTime": "2017-05-21T22:09:53Z",
        "specimen": {
          "reference": "urn:uuid:fd631e17-27bf-4029-b219-1fd4069a1b87"
        }
      }
    },
    {
      "fullUrl": "urn:uuid:1bf33f2e-249d-4336-96fd-2e57f3c00e5e",
      "resource": {
        "resourceType": "Observation",
        "id": "1bf33f2e-249d-4336-96fd-2e57f3c00e5e",
        "meta": {
          "profile": [
            "http://hl7.eu/fhir/laboratory/StructureDefinition/Observation-resultslab-eu-lab"
          ]
        },
        "performer": [
          {
            "display": "The Central European Lab"
          }
        ],
        "category": [
          {
            "coding": [
              {
                "system": "http://terminology.hl7.org/CodeSystem/observation-category",
                "code": "laboratory"
              }
            ]
          }
        ],
        "code": {
          "coding": [
            {
              "code": "1742-6",
              "system": "http://loinc.org",
              "display": "Alanine aminotransferase [Enzymatic activity/volume] in Serum or Plasma"
            }
          ],
          "text": "Alanine aminotransferase [Enzymatic activity/volume] in Serum or Plasma"
        },
        "valueQuantity": {
          "system": "http://unitsofmeasure.org",
          "value": 0.8,
          "unit": "U/L",
          "code": "U/L"
        },
        "referenceRange": [
          {
            "low": {
              "value": 13,
              "code": "U/L",
              "system": "http://unitsofmeasure.org"
            }
          },
          {
            "high": {
              "value": 32,
              "code": "U/L",
              "system": "http://unitsofmeasure.org"
            }
          }
        ],
        "interpretation": [
          {
            "coding": [
              {
                "code": "L",
                "system": "http://terminology.hl7.org/CodeSystem/v3-ObservationInterpretation",
                "display": "Low"
              }
            ]
          }
        ],
        "text": {
          "status": "generated",
          "div": "<div xmlns=\"http://www.w3.org/1999/xhtml\"><table class=\"hl7__eu__lab__report\"><tr><th>Test</th><th>22-May-2017</th><th>Reference&#xA0;Range</th><th>Unit</th></tr><tr><td>Alanine aminotransferase [Enzymatic activity/volume] in Serum or Plasma</td><td>0.8</td><td>13 - 32</td><td>L</td><td>U/L</td></tr></table></div>"
        },
        "status": "final",
        "subject": {
          "reference": "urn:uuid:575c5fea-f8c1-4d95-8517-70e1409009c8",
          "display": "Aniela Prażmo"
        },
        "effectiveDateTime": "2017-05-21T22:09:53Z",
        "specimen": {
          "reference": "urn:uuid:fd631e17-27bf-4029-b219-1fd4069a1b87"
        }
      }
    },
    {
      "fullUrl": "urn:uuid:098f47d4-3170-4197-80f1-d97a22919a51",
      "resource": {
        "resourceType": "Observation",
        "id": "098f47d4-3170-4197-80f1-d97a22919a51",
        "meta": {
          "profile": [
            "http://hl7.eu/fhir/laboratory/StructureDefinition/Observation-resultslab-eu-lab"
          ]
        },
        "performer": [
          {
            "display": "The Central European Lab"
          }
        ],
        "category": [
          {
            "coding": [
              {
                "system": "http://terminology.hl7.org/CodeSystem/observation-category",
                "code": "laboratory"
              }
            ]
          }
        ],
        "code": {
          "coding": [
            {
              "code": "1920-8",
              "system": "http://loinc.org",
              "display": "Aspartate aminotransferase [Enzymatic activity/volume] in Serum or Plasma"
            }
          ],
          "text": "Aspartate aminotransferase [Enzymatic activity/volume] in Serum or Plasma"
        },
        "valueQuantity": {
          "system": "http://unitsofmeasure.org",
          "value": 39.5,
          "unit": "U/L",
          "code": "U/L"
        },
        "referenceRange": [
          {
            "low": {
              "value": 10,
              "code": "U/L",
              "system": "http://unitsofmeasure.org"
            }
          },
          {
            "high": {
              "value": 40,
              "code": "U/L",
              "system": "http://unitsofmeasure.org"
            }
          }
        ],
        "text": {
          "status": "generated",
          "div": "<div xmlns=\"http://www.w3.org/1999/xhtml\"><table class=\"hl7__eu__lab__report\"><tr><th>Test</th><th>22-May-2017</th><th>Reference&#xA0;Range</th><th>Unit</th></tr><tr><td>Aspartate aminotransferase [Enzymatic activity/volume] in Serum or Plasma</td><td>39.5</td><td>10 - 40</td><td></td><td>U/L</td></tr></table></div>"
        },
        "status": "final",
        "subject": {
          "reference": "urn:uuid:575c5fea-f8c1-4d95-8517-70e1409009c8",
          "display": "Aniela Prażmo"
        },
        "effectiveDateTime": "2017-05-21T22:09:53Z",
        "specimen": {
          "reference": "urn:uuid:fd631e17-27bf-4029-b219-1fd4069a1b87"
        }
      }
    },
    {
      "fullUrl": "urn:uuid:315dfd23-d1b4-4551-bcd2-d34d220b8b9b",
      "resource": {
        "resourceType": "Observation",
        "id": "315dfd23-d1b4-4551-bcd2-d34d220b8b9b",
        "meta": {
          "profile": [
            "http://hl7.eu/fhir/laboratory/StructureDefinition/Observation-resultslab-eu-lab"
          ]
        },
        "performer": [
          {
            "display": "The Central European Lab"
          }
        ],
        "category": [
          {
            "coding": [
              {
                "system": "http://terminology.hl7.org/CodeSystem/observation-category",
                "code": "laboratory"
              }
            ]
          }
        ],
        "code": {
          "coding": [
            {
              "code": "19123-9",
              "system": "http://loinc.org",
              "display": "Magnesium [Mass/volume] in Serum or Plasma"
            }
          ],
          "text": "Magnesium [Mass/volume] in Serum or Plasma"
        },
        "valueQuantity": {
          "system": "http://unitsofmeasure.org",
          "value": 2.3,
          "unit": "mg/dL",
          "code": "mg/dL"
        },
        "referenceRange": [
          {
            "low": {
              "value": 1.7,
              "code": "mg/dL",
              "system": "http://unitsofmeasure.org"
            }
          },
          {
            "high": {
              "value": 2.6,
              "code": "mg/dL",
              "system": "http://unitsofmeasure.org"
            }
          }
        ],
        "text": {
          "status": "generated",
          "div": "<div xmlns=\"http://www.w3.org/1999/xhtml\"><table class=\"hl7__eu__lab__report\"><tr><th>Test</th><th>22-May-2017</th><th>Reference&#xA0;Range</th><th>Unit</th></tr><tr><td>Magnesium [Mass/volume] in Serum or Plasma</td><td>2.3</td><td>1.7 - 2.6</td><td></td><td>mg/dL</td></tr></table></div>"
        },
        "status": "final",
        "subject": {
          "reference": "urn:uuid:575c5fea-f8c1-4d95-8517-70e1409009c8",
          "display": "Aniela Prażmo"
        },
        "effectiveDateTime": "2017-05-21T22:09:53Z",
        "specimen": {
          "reference": "urn:uuid:fd631e17-27bf-4029-b219-1fd4069a1b87"
        }
      }
    },
    {
      "fullUrl": "urn:uuid:7e9a4df4-9079-4c8c-800b-d87a60816d4f",
      "resource": {
        "resourceType": "Observation",
        "id": "7e9a4df4-9079-4c8c-800b-d87a60816d4f",
        "meta": {
          "profile": [
            "http://hl7.eu/fhir/laboratory/StructureDefinition/Observation-resultslab-eu-lab"
          ]
        },
        "performer": [
          {
            "display": "The Central European Lab"
          }
        ],
        "category": [
          {
            "coding": [
              {
                "system": "http://terminology.hl7.org/CodeSystem/observation-category",
                "code": "laboratory"
              }
            ]
          }
        ],
        "code": {
          "coding": [
            {
              "code": "2777-1",
              "system": "http://loinc.org",
              "display": "Phosphate [Mass/volume] in Serum or Plasma"
            }
          ],
          "text": "Phosphate [Mass/volume] in Serum or Plasma"
        },
        "valueQuantity": {
          "system": "http://unitsofmeasure.org",
          "value": 3.1,
          "unit": "mg/dL",
          "code": "mg/dL"
        },
        "referenceRange": [
          {
            "low": {
              "value": 2.5,
              "code": "mg/dL",
              "system": "http://unitsofmeasure.org"
            }
          },
          {
            "high": {
              "value": 4.5,
              "code": "mg/dL",
              "system": "http://unitsofmeasure.org"
            }
          }
        ],
        "text": {
          "status": "generated",
          "div": "<div xmlns=\"http://www.w3.org/1999/xhtml\"><table class=\"hl7__eu__lab__report\"><tr><th>Test</th><th>22-May-2017</th><th>Reference&#xA0;Range</th><th>Unit</th></tr><tr><td>Phosphate [Mass/volume] in Serum or Plasma</td><td>3.1</td><td>2.5 - 4.5</td><td></td><td>mg/dL</td></tr></table></div>"
        },
        "status": "final",
        "subject": {
          "reference": "urn:uuid:575c5fea-f8c1-4d95-8517-70e1409009c8",
          "display": "Aniela Prażmo"
        },
        "effectiveDateTime": "2017-05-21T22:09:53Z",
        "specimen": {
          "reference": "urn:uuid:fd631e17-27bf-4029-b219-1fd4069a1b87"
        }
      }
    },
    {
      "fullUrl": "urn:uuid:ab8bb8ea-a72c-4025-a8f1-5539cb7eaf97",
      "resource": {
        "resourceType": "Observation",
        "id": "ab8bb8ea-a72c-4025-a8f1-5539cb7eaf97",
        "meta": {
          "profile": [
            "http://hl7.eu/fhir/laboratory/StructureDefinition/Observation-resultslab-eu-lab"
          ]
        },
        "performer": [
          {
            "display": "The Central European Lab"
          }
        ],
        "category": [
          {
            "coding": [
              {
                "system": "http://terminology.hl7.org/CodeSystem/observation-category",
                "code": "laboratory"
              }
            ]
          }
        ],
        "code": {
          "coding": [
            {
              "code": "5902-2",
              "system": "http://loinc.org",
              "display": "Prothrombin time (PT)"
            }
          ],
          "text": "Prothrombin time (PT)"
        },
        "valueQuantity": {
          "system": "http://unitsofmeasure.org",
          "value": 11,
          "unit": "s",
          "code": "s"
        },
        "referenceRange": [
          {
            "low": {
              "value": 11,
              "code": "s",
              "system": "http://unitsofmeasure.org"
            }
          },
          {
            "high": {
              "value": 15,
              "code": "s",
              "system": "http://unitsofmeasure.org"
            }
          }
        ],
        "text": {
          "status": "generated",
          "div": "<div xmlns=\"http://www.w3.org/1999/xhtml\"><table class=\"hl7__eu__lab__report\"><tr><th>Test</th><th>22-May-2017</th><th>Reference&#xA0;Range</th><th>Unit</th></tr><tr><td>Prothrombin time (PT)</td><td>11.0</td><td>11 - 15</td><td></td><td>s</td></tr></table></div>"
        },
        "status": "final",
        "subject": {
          "reference": "urn:uuid:575c5fea-f8c1-4d95-8517-70e1409009c8",
          "display": "Aniela Prażmo"
        },
        "effectiveDateTime": "2017-05-21T22:09:53Z",
        "specimen": {
          "reference": "urn:uuid:0b308b34-d86a-4e97-bc99-07054595f454"
        }
      }
    },
    {
      "fullUrl": "urn:uuid:b8145f0c-05e8-4d0b-a425-706eadfb4250",
      "resource": {
        "resourceType": "Observation",
        "id": "b8145f0c-05e8-4d0b-a425-706eadfb4250",
        "meta": {
          "profile": [
            "http://hl7.eu/fhir/laboratory/StructureDefinition/Observation-resultslab-eu-lab"
          ]
        },
        "performer": [
          {
            "display": "The Central European Lab"
          }
        ],
        "category": [
          {
            "coding": [
              {
                "system": "http://terminology.hl7.org/CodeSystem/observation-category",
                "code": "laboratory"
              }
            ]
          }
        ],
        "code": {
          "coding": [
            {
              "code": "6301-6",
              "system": "http://loinc.org",
              "display": "INR in Platelet poor plasma by Coagulation assay"
            }
          ],
          "text": "INR in Platelet poor plasma by Coagulation assay"
        },
        "valueQuantity": {
          "system": "http://unitsofmeasure.org",
          "value": 0.9,
          "unit": "{INR}",
          "code": "{INR}"
        },
        "referenceRange": [
          {
            "low": {
              "value": 0.9,
              "code": "INR",
              "system": "http://unitsofmeasure.org"
            }
          },
          {
            "high": {
              "value": 1.1,
              "code": "INR",
              "system": "http://unitsofmeasure.org"
            }
          }
        ],
        "text": {
          "status": "generated",
          "div": "<div xmlns=\"http://www.w3.org/1999/xhtml\"><table class=\"hl7__eu__lab__report\"><tr><th>Test</th><th>22-May-2017</th><th>Reference&#xA0;Range</th><th>Unit</th></tr><tr><td>INR in Platelet poor plasma by Coagulation assay</td><td>0.9</td><td>0.9 - 1.1</td><td></td><td>{INR}</td></tr></table></div>"
        },
        "status": "final",
        "subject": {
          "reference": "urn:uuid:575c5fea-f8c1-4d95-8517-70e1409009c8",
          "display": "Aniela Prażmo"
        },
        "effectiveDateTime": "2017-05-21T22:09:53Z",
        "specimen": {
          "reference": "urn:uuid:0b308b34-d86a-4e97-bc99-07054595f454"
        }
      }
    },
    {
      "fullUrl": "urn:uuid:b36c2f8e-0e71-4713-bfde-fc2e0be6c103",
      "resource": {
        "resourceType": "Observation",
        "id": "b36c2f8e-0e71-4713-bfde-fc2e0be6c103",
        "meta": {
          "profile": [
            "http://hl7.eu/fhir/laboratory/StructureDefinition/Observation-resultslab-eu-lab"
          ]
        },
        "performer": [
          {
            "display": "The Central European Lab"
          }
        ],
        "category": [
          {
            "coding": [
              {
                "system": "http://terminology.hl7.org/CodeSystem/observation-category",
                "code": "laboratory"
              }
            ]
          }
        ],
        "code": {
          "coding": [
            {
              "code": "3173-2",
              "system": "http://loinc.org",
              "display": "aPTT in Blood by Coagulation assay"
            }
          ],
          "text": "aPTT in Blood by Coagulation assay"
        },
        "valueQuantity": {
          "system": "http://unitsofmeasure.org",
          "value": 39.6,
          "unit": "s",
          "code": "s"
        },
        "referenceRange": [
          {
            "low": {
              "value": 25,
              "code": "seconds",
              "system": "http://unitsofmeasure.org"
            }
          },
          {
            "high": {
              "value": 35,
              "code": "seconds",
              "system": "http://unitsofmeasure.org"
            }
          }
        ],
        "interpretation": [
          {
            "coding": [
              {
                "code": "H",
                "system": "http://terminology.hl7.org/CodeSystem/v3-ObservationInterpretation",
                "display": "High"
              }
            ]
          }
        ],
        "text": {
          "status": "generated",
          "div": "<div xmlns=\"http://www.w3.org/1999/xhtml\"><table class=\"hl7__eu__lab__report\"><tr><th>Test</th><th>22-May-2017</th><th>Reference&#xA0;Range</th><th>Unit</th></tr><tr><td>aPTT in Blood by Coagulation assay</td><td>39.6</td><td>25 - 35</td><td>H</td><td>s</td></tr></table></div>"
        },
        "status": "final",
        "subject": {
          "reference": "urn:uuid:575c5fea-f8c1-4d95-8517-70e1409009c8",
          "display": "Aniela Prażmo"
        },
        "effectiveDateTime": "2017-05-21T22:09:53Z",
        "specimen": {
          "reference": "urn:uuid:12666e25-e9e5-4e3b-b52b-04aabf0a7f27"
        }
      }
    },
    {
      "fullUrl": "urn:uuid:d826a23d-9a71-4e17-a984-9b5dbe71ded8",
      "resource": {
        "resourceType": "Observation",
        "id": "d826a23d-9a71-4e17-a984-9b5dbe71ded8",
        "meta": {
          "profile": [
            "http://hl7.eu/fhir/laboratory/StructureDefinition/Observation-resultslab-eu-lab"
          ]
        },
        "performer": [
          {
            "display": "The Central European Lab"
          }
        ],
        "category": [
          {
            "coding": [
              {
                "system": "http://terminology.hl7.org/CodeSystem/observation-category",
                "code": "laboratory"
              }
            ]
          }
        ],
        "code": {
          "coding": [
            {
              "code": "2744-1",
              "system": "http://loinc.org",
              "display": "pH of Arterial blood"
            }
          ],
          "text": "pH of Arterial blood"
        },
        "valueQuantity": {
          "system": "http://unitsofmeasure.org",
          "value": 7,
          "unit": "[pH]",
          "code": "[pH]"
        },
        "referenceRange": [
          {
            "low": {
              "value": 7.35,
              "code": "pH",
              "system": "http://unitsofmeasure.org"
            }
          },
          {
            "high": {
              "value": 7.45,
              "code": "pH",
              "system": "http://unitsofmeasure.org"
            }
          }
        ],
        "interpretation": [
          {
            "coding": [
              {
                "code": "L",
                "system": "http://terminology.hl7.org/CodeSystem/v3-ObservationInterpretation",
                "display": "Low"
              }
            ]
          }
        ],
        "text": {
          "status": "generated",
          "div": "<div xmlns=\"http://www.w3.org/1999/xhtml\"><table class=\"hl7__eu__lab__report\"><tr><th>Test</th><th>22-May-2017</th><th>Reference&#xA0;Range</th><th>Unit</th></tr><tr><td>pH of Arterial blood</td><td>7.0</td><td>7.35 - 7.45</td><td>L</td><td>[pH]</td></tr></table></div>"
        },
        "status": "final",
        "subject": {
          "reference": "urn:uuid:575c5fea-f8c1-4d95-8517-70e1409009c8",
          "display": "Aniela Prażmo"
        },
        "effectiveDateTime": "2017-05-21T22:09:53Z",
        "specimen": {
          "reference": "urn:uuid:57da4a16-208b-4e8f-a9b3-052cb04cb0cb"
        }
      }
    },
    {
      "fullUrl": "urn:uuid:e5a015c9-bf94-45e4-a0cc-bc344ee8d1b0",
      "resource": {
        "resourceType": "Observation",
        "id": "e5a015c9-bf94-45e4-a0cc-bc344ee8d1b0",
        "meta": {
          "profile": [
            "http://hl7.eu/fhir/laboratory/StructureDefinition/Observation-resultslab-eu-lab"
          ]
        },
        "performer": [
          {
            "display": "The Central European Lab"
          }
        ],
        "category": [
          {
            "coding": [
              {
                "system": "http://terminology.hl7.org/CodeSystem/observation-category",
                "code": "laboratory"
              }
            ]
          }
        ],
        "code": {
          "coding": [
            {
              "code": "2019-8",
              "system": "http://loinc.org",
              "display": "Carbon dioxide [Partial pressure] in Arterial blood"
            }
          ],
          "text": "Carbon dioxide [Partial pressure] in Arterial blood"
        },
        "valueQuantity": {
          "system": "http://unitsofmeasure.org",
          "value": 42.6,
          "unit": "mm[Hg]",
          "code": "mm[Hg]"
        },
        "referenceRange": [
          {
            "low": {
              "value": 38,
              "code": "mm[Hg]",
              "system": "http://unitsofmeasure.org"
            }
          },
          {
            "high": {
              "value": 48,
              "code": "mm[Hg]",
              "system": "http://unitsofmeasure.org"
            }
          }
        ],
        "text": {
          "status": "generated",
          "div": "<div xmlns=\"http://www.w3.org/1999/xhtml\"><table class=\"hl7__eu__lab__report\"><tr><th>Test</th><th>22-May-2017</th><th>Reference&#xA0;Range</th><th>Unit</th></tr><tr><td>Carbon dioxide [Partial pressure] in Arterial blood</td><td>42.6</td><td>38 - 48</td><td></td><td>mm[Hg]</td></tr></table></div>"
        },
        "status": "final",
        "subject": {
          "reference": "urn:uuid:575c5fea-f8c1-4d95-8517-70e1409009c8",
          "display": "Aniela Prażmo"
        },
        "effectiveDateTime": "2017-05-21T22:09:53Z",
        "specimen": {
          "reference": "urn:uuid:57da4a16-208b-4e8f-a9b3-052cb04cb0cb"
        }
      }
    },
    {
      "fullUrl": "urn:uuid:8b25bd88-6526-4c88-8c43-4dd50ed81e36",
      "resource": {
        "resourceType": "Observation",
        "id": "8b25bd88-6526-4c88-8c43-4dd50ed81e36",
        "meta": {
          "profile": [
            "http://hl7.eu/fhir/laboratory/StructureDefinition/Observation-resultslab-eu-lab"
          ]
        },
        "performer": [
          {
            "display": "The Central European Lab"
          }
        ],
        "category": [
          {
            "coding": [
              {
                "system": "http://terminology.hl7.org/CodeSystem/observation-category",
                "code": "laboratory"
              }
            ]
          }
        ],
        "code": {
          "coding": [
            {
              "code": "2703-7",
              "system": "http://loinc.org",
              "display": "Oxygen [Partial pressure] in Arterial blood"
            }
          ],
          "text": "Oxygen [Partial pressure] in Arterial blood"
        },
        "valueQuantity": {
          "system": "http://unitsofmeasure.org",
          "value": 91.1,
          "unit": "mm[Hg]",
          "code": "mm[Hg]"
        },
        "referenceRange": [
          {
            "low": {
              "value": 75,
              "code": "mm[Hg]",
              "system": "http://unitsofmeasure.org"
            }
          },
          {
            "high": {
              "value": 100,
              "code": "mm[Hg]",
              "system": "http://unitsofmeasure.org"
            }
          }
        ],
        "text": {
          "status": "generated",
          "div": "<div xmlns=\"http://www.w3.org/1999/xhtml\"><table class=\"hl7__eu__lab__report\"><tr><th>Test</th><th>22-May-2017</th><th>Reference&#xA0;Range</th><th>Unit</th></tr><tr><td>Oxygen [Partial pressure] in Arterial blood</td><td>91.1</td><td>75 - 100</td><td></td><td>mm[Hg]</td></tr></table></div>"
        },
        "status": "final",
        "subject": {
          "reference": "urn:uuid:575c5fea-f8c1-4d95-8517-70e1409009c8",
          "display": "Aniela Prażmo"
        },
        "effectiveDateTime": "2017-05-21T22:09:53Z",
        "specimen": {
          "reference": "urn:uuid:57da4a16-208b-4e8f-a9b3-052cb04cb0cb"
        }
      }
    },
    {
      "fullUrl": "urn:uuid:6c1a9b28-14e2-455c-8eee-8c940194b7f8",
      "resource": {
        "resourceType": "Observation",
        "id": "6c1a9b28-14e2-455c-8eee-8c940194b7f8",
        "meta": {
          "profile": [
            "http://hl7.eu/fhir/laboratory/StructureDefinition/Observation-resultslab-eu-lab"
          ]
        },
        "performer": [
          {
            "display": "The Central European Lab"
          }
        ],
        "category": [
          {
            "coding": [
              {
                "system": "http://terminology.hl7.org/CodeSystem/observation-category",
                "code": "laboratory"
              }
            ]
          }
        ],
        "code": {
          "coding": [
            {
              "code": "1960-4",
              "system": "http://loinc.org",
              "display": "Bicarbonate [Moles/volume] in Arterial blood"
            }
          ],
          "text": "Bicarbonate [Moles/volume] in Arterial blood"
        },
        "valueQuantity": {
          "system": "http://unitsofmeasure.org",
          "value": 24.3,
          "unit": "mmol/L",
          "code": "mmol/L"
        },
        "referenceRange": [
          {
            "low": {
              "value": 22,
              "code": "mmol/L",
              "system": "http://unitsofmeasure.org"
            }
          },
          {
            "high": {
              "value": 31,
              "code": "mmol/L",
              "system": "http://unitsofmeasure.org"
            }
          }
        ],
        "text": {
          "status": "generated",
          "div": "<div xmlns=\"http://www.w3.org/1999/xhtml\"><table class=\"hl7__eu__lab__report\"><tr><th>Test</th><th>22-May-2017</th><th>Reference&#xA0;Range</th><th>Unit</th></tr><tr><td>Bicarbonate [Moles/volume] in Arterial blood</td><td>24.3</td><td>22 - 31</td><td></td><td>mmol/L</td></tr></table></div>"
        },
        "status": "final",
        "subject": {
          "reference": "urn:uuid:575c5fea-f8c1-4d95-8517-70e1409009c8",
          "display": "Aniela Prażmo"
        },
        "effectiveDateTime": "2017-05-21T22:09:53Z",
        "specimen": {
          "reference": "urn:uuid:57da4a16-208b-4e8f-a9b3-052cb04cb0cb"
        }
      }
    },
    {
      "fullUrl": "urn:uuid:36e84557-17ea-4903-b803-2b0d8c088904",
      "resource": {
        "resourceType": "Observation",
        "id": "36e84557-17ea-4903-b803-2b0d8c088904",
        "meta": {
          "profile": [
            "http://hl7.eu/fhir/laboratory/StructureDefinition/Observation-resultslab-eu-lab"
          ]
        },
        "performer": [
          {
            "display": "The Central European Lab"
          }
        ],
        "category": [
          {
            "coding": [
              {
                "system": "http://terminology.hl7.org/CodeSystem/observation-category",
                "code": "laboratory"
              }
            ]
          }
        ],
        "code": {
          "coding": [
            {
              "code": "2708-6",
              "system": "http://loinc.org",
              "display": "Oxygen saturation in Arterial blood"
            }
          ],
          "text": "Oxygen saturation in Arterial blood"
        },
        "valueQuantity": {
          "system": "http://unitsofmeasure.org",
          "value": 94,
          "unit": "%",
          "code": "%"
        },
        "referenceRange": [
          {
            "low": {
              "value": 95,
              "code": "%",
              "system": "http://unitsofmeasure.org"
            }
          },
          {
            "high": {
              "value": 100,
              "code": "%",
              "system": "http://unitsofmeasure.org"
            }
          }
        ],
        "interpretation": [
          {
            "coding": [
              {
                "code": "L",
                "system": "http://terminology.hl7.org/CodeSystem/v3-ObservationInterpretation",
                "display": "Low"
              }
            ]
          }
        ],
        "text": {
          "status": "generated",
          "div": "<div xmlns=\"http://www.w3.org/1999/xhtml\"><table class=\"hl7__eu__lab__report\"><tr><th>Test</th><th>22-May-2017</th><th>Reference&#xA0;Range</th><th>Unit</th></tr><tr><td>Oxygen saturation in Arterial blood</td><td>94.0</td><td>95 - 100</td><td>L</td><td>%</td></tr></table></div>"
        },
        "status": "final",
        "subject": {
          "reference": "urn:uuid:575c5fea-f8c1-4d95-8517-70e1409009c8",
          "display": "Aniela Prażmo"
        },
        "effectiveDateTime": "2017-05-21T22:09:53Z",
        "specimen": {
          "reference": "urn:uuid:57da4a16-208b-4e8f-a9b3-052cb04cb0cb"
        }
      }
    },
    {
      "fullUrl": "urn:uuid:2b16df7d-1558-4a74-a612-4a9f8620b031",
      "resource": {
        "resourceType": "Observation",
        "id": "2b16df7d-1558-4a74-a612-4a9f8620b031",
        "meta": {
          "profile": [
            "http://hl7.eu/fhir/laboratory/StructureDefinition/Observation-resultslab-eu-lab"
          ]
        },
        "performer": [
          {
            "display": "The Central European Lab"
          }
        ],
        "category": [
          {
            "coding": [
              {
                "system": "http://terminology.hl7.org/CodeSystem/observation-category",
                "code": "laboratory"
              }
            ]
          }
        ],
        "code": {
          "coding": [
            {
              "code": "2093-3",
              "system": "http://loinc.org",
              "display": "Cholesterol [Mass/volume] in Serum or Plasma"
            }
          ],
          "text": "Cholesterol [Mass/volume] in Serum or Plasma"
        },
        "valueQuantity": {
          "system": "http://unitsofmeasure.org",
          "value": 299.5,
          "unit": "mg/dL",
          "code": "mg/dL"
        },
        "referenceRange": [
          {
            "low": {
              "value": 130,
              "code": "mg/dL",
              "system": "http://unitsofmeasure.org"
            }
          },
          {
            "high": {
              "value": 200,
              "code": "mg/dL",
              "system": "http://unitsofmeasure.org"
            }
          }
        ],
        "interpretation": [
          {
            "coding": [
              {
                "code": "H",
                "system": "http://terminology.hl7.org/CodeSystem/v3-ObservationInterpretation",
                "display": "High"
              }
            ]
          }
        ],
        "text": {
          "status": "generated",
          "div": "<div xmlns=\"http://www.w3.org/1999/xhtml\"><table class=\"hl7__eu__lab__report\"><tr><th>Test</th><th>22-May-2017</th><th>Reference&#xA0;Range</th><th>Unit</th></tr><tr><td>Cholesterol [Mass/volume] in Serum or Plasma</td><td>299.5</td><td>130 - 200</td><td>H</td><td>mg/dL</td></tr></table></div>"
        },
        "status": "final",
        "subject": {
          "reference": "urn:uuid:575c5fea-f8c1-4d95-8517-70e1409009c8",
          "display": "Aniela Prażmo"
        },
        "effectiveDateTime": "2017-05-21T22:09:53Z",
        "specimen": {
          "reference": "urn:uuid:fd631e17-27bf-4029-b219-1fd4069a1b87"
        }
      }
    },
    {
      "fullUrl": "urn:uuid:544d2825-43c2-420f-b60d-9c68baf7c76a",
      "resource": {
        "resourceType": "Observation",
        "id": "544d2825-43c2-420f-b60d-9c68baf7c76a",
        "meta": {
          "profile": [
            "http://hl7.eu/fhir/laboratory/StructureDefinition/Observation-resultslab-eu-lab"
          ]
        },
        "performer": [
          {
            "display": "The Central European Lab"
          }
        ],
        "category": [
          {
            "coding": [
              {
                "system": "http://terminology.hl7.org/CodeSystem/observation-category",
                "code": "laboratory"
              }
            ]
          }
        ],
        "code": {
          "coding": [
            {
              "code": "2571-8",
              "system": "http://loinc.org",
              "display": "Triglyceride [Mass/volume] in Serum or Plasma"
            }
          ],
          "text": "Triglyceride [Mass/volume] in Serum or Plasma"
        },
        "valueQuantity": {
          "system": "http://unitsofmeasure.org",
          "value": 140.8,
          "unit": "mg/dL",
          "code": "mg/dL"
        },
        "referenceRange": [
          {
            "low": {
              "value": 0,
              "code": "mg/dL",
              "system": "http://unitsofmeasure.org"
            }
          },
          {
            "high": {
              "value": 199,
              "code": "mg/dL",
              "system": "http://unitsofmeasure.org"
            }
          }
        ],
        "text": {
          "status": "generated",
          "div": "<div xmlns=\"http://www.w3.org/1999/xhtml\"><table class=\"hl7__eu__lab__report\"><tr><th>Test</th><th>22-May-2017</th><th>Reference&#xA0;Range</th><th>Unit</th></tr><tr><td>Triglyceride [Mass/volume] in Serum or Plasma</td><td>140.8</td><td>0 - 199</td><td></td><td>mg/dL</td></tr></table></div>"
        },
        "status": "final",
        "subject": {
          "reference": "urn:uuid:575c5fea-f8c1-4d95-8517-70e1409009c8",
          "display": "Aniela Prażmo"
        },
        "effectiveDateTime": "2017-05-21T22:09:53Z",
        "specimen": {
          "reference": "urn:uuid:fd631e17-27bf-4029-b219-1fd4069a1b87"
        }
      }
    },
    {
      "fullUrl": "urn:uuid:c905d83d-d13b-4eda-ba2f-feb5dc709333",
      "resource": {
        "resourceType": "Observation",
        "id": "c905d83d-d13b-4eda-ba2f-feb5dc709333",
        "meta": {
          "profile": [
            "http://hl7.eu/fhir/laboratory/StructureDefinition/Observation-resultslab-eu-lab"
          ]
        },
        "performer": [
          {
            "display": "The Central European Lab"
          }
        ],
        "category": [
          {
            "coding": [
              {
                "system": "http://terminology.hl7.org/CodeSystem/observation-category",
                "code": "laboratory"
              }
            ]
          }
        ],
        "code": {
          "coding": [
            {
              "code": "18262-6",
              "system": "http://loinc.org",
              "display": "Cholesterol in LDL [Mass/volume] in Serum or Plasma by Direct assay"
            }
          ],
          "text": "Cholesterol in LDL [Mass/volume] in Serum or Plasma by Direct assay"
        },
        "valueQuantity": {
          "system": "http://unitsofmeasure.org",
          "value": 210.5,
          "unit": "mg/dL",
          "code": "mg/dL"
        },
        "referenceRange": [
          {
            "low": {
              "value": 0,
              "code": "mg/dL",
              "system": "http://unitsofmeasure.org"
            }
          },
          {
            "high": {
              "value": 130,
              "code": "mg/dL",
              "system": "http://unitsofmeasure.org"
            }
          }
        ],
        "interpretation": [
          {
            "coding": [
              {
                "code": "H",
                "system": "http://terminology.hl7.org/CodeSystem/v3-ObservationInterpretation",
                "display": "High"
              }
            ]
          }
        ],
        "text": {
          "status": "generated",
          "div": "<div xmlns=\"http://www.w3.org/1999/xhtml\"><table class=\"hl7__eu__lab__report\"><tr><th>Test</th><th>22-May-2017</th><th>Reference&#xA0;Range</th><th>Unit</th></tr><tr><td>Cholesterol in LDL [Mass/volume] in Serum or Plasma by Direct assay</td><td>210.5</td><td>0 - 130</td><td>H</td><td>mg/dL</td></tr></table></div>"
        },
        "status": "final",
        "subject": {
          "reference": "urn:uuid:575c5fea-f8c1-4d95-8517-70e1409009c8",
          "display": "Aniela Prażmo"
        },
        "effectiveDateTime": "2017-05-21T22:09:53Z",
        "specimen": {
          "reference": "urn:uuid:fd631e17-27bf-4029-b219-1fd4069a1b87"
        }
      }
    },
    {
      "fullUrl": "urn:uuid:cb17af38-70a8-4178-a852-a22d3d4d59e0",
      "resource": {
        "resourceType": "Observation",
        "id": "cb17af38-70a8-4178-a852-a22d3d4d59e0",
        "meta": {
          "profile": [
            "http://hl7.eu/fhir/laboratory/StructureDefinition/Observation-resultslab-eu-lab"
          ]
        },
        "performer": [
          {
            "display": "The Central European Lab"
          }
        ],
        "category": [
          {
            "coding": [
              {
                "system": "http://terminology.hl7.org/CodeSystem/observation-category",
                "code": "laboratory"
              }
            ]
          }
        ],
        "code": {
          "coding": [
            {
              "code": "2085-9",
              "system": "http://loinc.org",
              "display": "Cholesterol in HDL [Mass/volume] in Serum or Plasma"
            }
          ],
          "text": "Cholesterol in HDL [Mass/volume] in Serum or Plasma"
        },
        "valueQuantity": {
          "system": "http://unitsofmeasure.org",
          "value": 60.9,
          "unit": "mg/dL",
          "code": "mg/dL"
        },
        "referenceRange": [
          {
            "low": {
              "value": 50,
              "code": "mg/dL",
              "system": "http://unitsofmeasure.org"
            }
          },
          {
            "high": {
              "value": 100,
              "code": "mg/dL",
              "system": "http://unitsofmeasure.org"
            }
          }
        ],
        "text": {
          "status": "generated",
          "div": "<div xmlns=\"http://www.w3.org/1999/xhtml\"><table class=\"hl7__eu__lab__report\"><tr><th>Test</th><th>22-May-2017</th><th>Reference&#xA0;Range</th><th>Unit</th></tr><tr><td>Cholesterol in HDL [Mass/volume] in Serum or Plasma</td><td>60.9</td><td>50 - 100</td><td></td><td>mg/dL</td></tr></table></div>"
        },
        "status": "final",
        "subject": {
          "reference": "urn:uuid:575c5fea-f8c1-4d95-8517-70e1409009c8",
          "display": "Aniela Prażmo"
        },
        "effectiveDateTime": "2017-05-21T22:09:53Z",
        "specimen": {
          "reference": "urn:uuid:fd631e17-27bf-4029-b219-1fd4069a1b87"
        }
      }
    },
    {
      "fullUrl": "urn:uuid:d2772e3e-9b2e-4453-ad0d-fb08c70d0585",
      "resource": {
        "resourceType": "Observation",
        "id": "d2772e3e-9b2e-4453-ad0d-fb08c70d0585",
        "meta": {
          "profile": [
            "http://hl7.eu/fhir/laboratory/StructureDefinition/Observation-resultslab-eu-lab"
          ]
        },
        "performer": [
          {
            "display": "The Central European Lab"
          }
        ],
        "category": [
          {
            "coding": [
              {
                "system": "http://terminology.hl7.org/CodeSystem/observation-category",
                "code": "laboratory"
              }
            ]
          }
        ],
        "code": {
          "coding": [
            {
              "code": "89579-7",
              "system": "http://loinc.org",
              "display": "Troponin I.cardiac [Mass/volume] in Serum or Plasma by High sensitivity method"
            }
          ],
          "text": "Troponin I.cardiac [Mass/volume] in Serum or Plasma by High sensitivity method"
        },
        "valueQuantity": {
          "system": "http://unitsofmeasure.org",
          "value": 0,
          "unit": "pg/mL",
          "code": "pg/mL"
        },
        "referenceRange": [
          {
            "low": {
              "value": 0,
              "code": "pg/mL",
              "system": "http://unitsofmeasure.org"
            }
          },
          {
            "high": {
              "value": 26.2,
              "code": "pg/mL",
              "system": "http://unitsofmeasure.org"
            }
          }
        ],
        "text": {
          "status": "generated",
          "div": "<div xmlns=\"http://www.w3.org/1999/xhtml\"><table class=\"hl7__eu__lab__report\"><tr><th>Test</th><th>22-May-2017</th><th>Reference&#xA0;Range</th><th>Unit</th></tr><tr><td>Troponin I.cardiac [Mass/volume] in Serum or Plasma by High sensitivity method</td><td>0.0</td><td>0 - 26.2</td><td></td><td>pg/mL</td></tr></table></div>"
        },
        "status": "final",
        "subject": {
          "reference": "urn:uuid:575c5fea-f8c1-4d95-8517-70e1409009c8",
          "display": "Aniela Prażmo"
        },
        "effectiveDateTime": "2017-05-21T22:09:53Z",
        "specimen": {
          "reference": "urn:uuid:fd631e17-27bf-4029-b219-1fd4069a1b87"
        }
      }
    },
    {
      "fullUrl": "urn:uuid:6a89c618-a88f-4a9b-96c6-30b2deef3ba1",
      "resource": {
        "resourceType": "Observation",
        "id": "6a89c618-a88f-4a9b-96c6-30b2deef3ba1",
        "meta": {
          "profile": [
            "http://hl7.eu/fhir/laboratory/StructureDefinition/Observation-resultslab-eu-lab"
          ]
        },
        "performer": [
          {
            "display": "The Central European Lab"
          }
        ],
        "category": [
          {
            "coding": [
              {
                "system": "http://terminology.hl7.org/CodeSystem/observation-category",
                "code": "laboratory"
              }
            ]
          }
        ],
        "code": {
          "coding": [
            {
              "code": "3016-3",
              "system": "http://loinc.org",
              "display": "Thyrotropin [Units/volume] in Serum or Plasma"
            }
          ],
          "text": "Thyrotropin [Units/volume] in Serum or Plasma"
        },
        "valueQuantity": {
          "system": "http://unitsofmeasure.org",
          "value": 3.1,
          "unit": "m[IU]/L",
          "code": "m[IU]/L"
        },
        "referenceRange": [
          {
            "low": {
              "value": 0.5,
              "code": "m[IU]/L",
              "system": "http://unitsofmeasure.org"
            }
          },
          {
            "high": {
              "value": 4,
              "code": "m[IU]/L",
              "system": "http://unitsofmeasure.org"
            }
          }
        ],
        "text": {
          "status": "generated",
          "div": "<div xmlns=\"http://www.w3.org/1999/xhtml\"><table class=\"hl7__eu__lab__report\"><tr><th>Test</th><th>22-May-2017</th><th>Reference&#xA0;Range</th><th>Unit</th></tr><tr><td>Thyrotropin [Units/volume] in Serum or Plasma</td><td>3.1</td><td>0.5 - 4</td><td></td><td>m[IU]/L</td></tr></table></div>"
        },
        "status": "final",
        "subject": {
          "reference": "urn:uuid:575c5fea-f8c1-4d95-8517-70e1409009c8",
          "display": "Aniela Prażmo"
        },
        "effectiveDateTime": "2017-05-21T22:09:53Z",
        "specimen": {
          "reference": "urn:uuid:fd631e17-27bf-4029-b219-1fd4069a1b87"
        }
      }
    },
    {
      "fullUrl": "urn:uuid:2dfd8765-015f-4734-9497-315f254ecac5",
      "resource": {
        "resourceType": "Observation",
        "id": "2dfd8765-015f-4734-9497-315f254ecac5",
        "meta": {
          "profile": [
            "http://hl7.eu/fhir/laboratory/StructureDefinition/Observation-resultslab-eu-lab"
          ]
        },
        "performer": [
          {
            "display": "The Central European Lab"
          }
        ],
        "category": [
          {
            "coding": [
              {
                "system": "http://terminology.hl7.org/CodeSystem/observation-category",
                "code": "laboratory"
              }
            ]
          }
        ],
        "code": {
          "coding": [
            {
              "code": "4548-4",
              "system": "http://loinc.org",
              "display": "Hemoglobin A1c/Hemoglobin.total in Blood"
            }
          ],
          "text": "Hemoglobin A1c/Hemoglobin.total in Blood"
        },
        "valueQuantity": {
          "system": "http://unitsofmeasure.org",
          "value": 5.5,
          "unit": "%",
          "code": "%"
        },
        "referenceRange": [
          {
            "low": {
              "value": 4.5,
              "code": "%",
              "system": "http://unitsofmeasure.org"
            }
          },
          {
            "high": {
              "value": 6.4,
              "code": "%",
              "system": "http://unitsofmeasure.org"
            }
          }
        ],
        "text": {
          "status": "generated",
          "div": "<div xmlns=\"http://www.w3.org/1999/xhtml\"><table class=\"hl7__eu__lab__report\"><tr><th>Test</th><th>22-May-2017</th><th>Reference&#xA0;Range</th><th>Unit</th></tr><tr><td>Hemoglobin A1c/Hemoglobin.total in Blood</td><td>5.5</td><td>4.5 - 6.4</td><td></td><td>%</td></tr></table></div>"
        },
        "status": "final",
        "subject": {
          "reference": "urn:uuid:575c5fea-f8c1-4d95-8517-70e1409009c8",
          "display": "Aniela Prażmo"
        },
        "effectiveDateTime": "2017-05-21T22:09:53Z",
        "specimen": {
          "reference": "urn:uuid:12666e25-e9e5-4e3b-b52b-04aabf0a7f27"
        }
      }
    },
    {
      "fullUrl": "urn:uuid:89c773a9-9f05-4ba2-abb7-c48022f01a0a",
      "resource": {
        "resourceType": "Observation",
        "id": "89c773a9-9f05-4ba2-abb7-c48022f01a0a",
        "meta": {
          "profile": [
            "http://hl7.eu/fhir/laboratory/StructureDefinition/Observation-resultslab-eu-lab"
          ]
        },
        "performer": [
          {
            "display": "The Central European Lab"
          }
        ],
        "category": [
          {
            "coding": [
              {
                "system": "http://terminology.hl7.org/CodeSystem/observation-category",
                "code": "laboratory"
              }
            ]
          }
        ],
        "code": {
          "coding": [
            {
              "code": "25428-4",
              "system": "http://loinc.org",
              "display": "Glucose [Presence] in Urine by Test strip"
            }
          ],
          "text": "Glucose [Presence] in Urine by Test strip"
        },
        "valueQuantity": {
          "system": "http://unitsofmeasure.org",
          "value": 1,
          "unit": "{presence}",
          "code": "{presence}"
        },
        "referenceRange": [
          {
            "low": {
              "value": 0,
              "code": "mg/dL",
              "system": "http://unitsofmeasure.org"
            }
          },
          {
            "high": {
              "value": 0,
              "code": "mg/dL",
              "system": "http://unitsofmeasure.org"
            }
          }
        ],
        "interpretation": [
          {
            "coding": [
              {
                "code": "H",
                "system": "http://terminology.hl7.org/CodeSystem/v3-ObservationInterpretation",
                "display": "High"
              }
            ]
          }
        ],
        "text": {
          "status": "generated",
          "div": "<div xmlns=\"http://www.w3.org/1999/xhtml\"><table class=\"hl7__eu__lab__report\"><tr><th>Test</th><th>22-May-2017</th><th>Reference&#xA0;Range</th><th>Unit</th></tr><tr><td>Glucose [Presence] in Urine by Test strip</td><td>1.0</td><td>0 - 0</td><td>H</td><td>{presence}</td></tr></table></div>"
        },
        "status": "final",
        "subject": {
          "reference": "urn:uuid:575c5fea-f8c1-4d95-8517-70e1409009c8",
          "display": "Aniela Prażmo"
        },
        "effectiveDateTime": "2017-05-21T22:09:53Z",
        "specimen": {
          "reference": "urn:uuid:dfed6e89-46e5-405c-a60b-43c8387f2788"
        }
      }
    },
    {
      "fullUrl": "urn:uuid:2cce3492-b315-4816-92d6-9d516669026c",
      "resource": {
        "resourceType": "Observation",
        "id": "2cce3492-b315-4816-92d6-9d516669026c",
        "meta": {
          "profile": [
            "http://hl7.eu/fhir/laboratory/StructureDefinition/Observation-resultslab-eu-lab"
          ]
        },
        "performer": [
          {
            "display": "The Central European Lab"
          }
        ],
        "category": [
          {
            "coding": [
              {
                "system": "http://terminology.hl7.org/CodeSystem/observation-category",
                "code": "laboratory"
              }
            ]
          }
        ],
        "code": {
          "coding": [
            {
              "code": "5770-3",
              "system": "http://loinc.org",
              "display": "Bilirubin.total [Presence] in Urine by Test strip"
            }
          ],
          "text": "Bilirubin.total [Presence] in Urine by Test strip"
        },
        "valueQuantity": {
          "system": "http://unitsofmeasure.org",
          "value": 1,
          "unit": "{presence}",
          "code": "{presence}"
        },
        "referenceRange": [
          {
            "low": {
              "value": 0,
              "code": "mg/dL",
              "system": "http://unitsofmeasure.org"
            }
          },
          {
            "high": {
              "value": 1,
              "code": "mg/dL",
              "system": "http://unitsofmeasure.org"
            }
          }
        ],
        "text": {
          "status": "generated",
          "div": "<div xmlns=\"http://www.w3.org/1999/xhtml\"><table class=\"hl7__eu__lab__report\"><tr><th>Test</th><th>22-May-2017</th><th>Reference&#xA0;Range</th><th>Unit</th></tr><tr><td>Bilirubin.total [Presence] in Urine by Test strip</td><td>1.0</td><td>0 - 1</td><td></td><td>{presence}</td></tr></table></div>"
        },
        "status": "final",
        "subject": {
          "reference": "urn:uuid:575c5fea-f8c1-4d95-8517-70e1409009c8",
          "display": "Aniela Prażmo"
        },
        "effectiveDateTime": "2017-05-21T22:09:53Z",
        "specimen": {
          "reference": "urn:uuid:dfed6e89-46e5-405c-a60b-43c8387f2788"
        }
      }
    },
    {
      "fullUrl": "urn:uuid:591c661a-d0d8-47fd-ac42-4dfb19467fac",
      "resource": {
        "resourceType": "Observation",
        "id": "591c661a-d0d8-47fd-ac42-4dfb19467fac",
        "meta": {
          "profile": [
            "http://hl7.eu/fhir/laboratory/StructureDefinition/Observation-resultslab-eu-lab"
          ]
        },
        "performer": [
          {
            "display": "The Central European Lab"
          }
        ],
        "category": [
          {
            "coding": [
              {
                "system": "http://terminology.hl7.org/CodeSystem/observation-category",
                "code": "laboratory"
              }
            ]
          }
        ],
        "code": {
          "coding": [
            {
              "code": "2514-8",
              "system": "http://loinc.org",
              "display": "Ketones [Presence] in Urine by Test strip"
            }
          ],
          "text": "Ketones [Presence] in Urine by Test strip"
        },
        "valueQuantity": {
          "system": "http://unitsofmeasure.org",
          "value": 1,
          "unit": "{presence}",
          "code": "{presence}"
        },
        "referenceRange": [
          {
            "low": {
              "value": 0.5,
              "code": "mg/dL",
              "system": "http://unitsofmeasure.org"
            }
          },
          {
            "high": {
              "value": 4,
              "code": "mg/dL",
              "system": "http://unitsofmeasure.org"
            }
          }
        ],
        "text": {
          "status": "generated",
          "div": "<div xmlns=\"http://www.w3.org/1999/xhtml\"><table class=\"hl7__eu__lab__report\"><tr><th>Test</th><th>22-May-2017</th><th>Reference&#xA0;Range</th><th>Unit</th></tr><tr><td>Ketones [Presence] in Urine by Test strip</td><td>1.0</td><td>0.5 - 4</td><td></td><td>{presence}</td></tr></table></div>"
        },
        "status": "final",
        "subject": {
          "reference": "urn:uuid:575c5fea-f8c1-4d95-8517-70e1409009c8",
          "display": "Aniela Prażmo"
        },
        "effectiveDateTime": "2017-05-21T22:09:53Z",
        "specimen": {
          "reference": "urn:uuid:dfed6e89-46e5-405c-a60b-43c8387f2788"
        }
      }
    },
    {
      "fullUrl": "urn:uuid:6fb3ac82-4bcb-42ee-a97c-51cf1bacb577",
      "resource": {
        "resourceType": "Observation",
        "id": "6fb3ac82-4bcb-42ee-a97c-51cf1bacb577",
        "meta": {
          "profile": [
            "http://hl7.eu/fhir/laboratory/StructureDefinition/Observation-resultslab-eu-lab"
          ]
        },
        "performer": [
          {
            "display": "The Central European Lab"
          }
        ],
        "category": [
          {
            "coding": [
              {
                "system": "http://terminology.hl7.org/CodeSystem/observation-category",
                "code": "laboratory"
              }
            ]
          }
        ],
        "code": {
          "coding": [
            {
              "code": "5811-5",
              "system": "http://loinc.org",
              "display": "Specific gravity of Urine by Test strip"
            }
          ],
          "text": "Specific gravity of Urine by Test strip"
        },
        "valueQuantity": {
          "system": "http://unitsofmeasure.org",
          "value": 1,
          "unit": "{SG}",
          "code": "{SG}"
        },
        "referenceRange": [
          {
            "low": {
              "value": 1.01,
              "code": "SG",
              "system": "http://unitsofmeasure.org"
            }
          },
          {
            "high": {
              "value": 1.03,
              "code": "SG",
              "system": "http://unitsofmeasure.org"
            }
          }
        ],
        "interpretation": [
          {
            "coding": [
              {
                "code": "L",
                "system": "http://terminology.hl7.org/CodeSystem/v3-ObservationInterpretation",
                "display": "Low"
              }
            ]
          }
        ],
        "text": {
          "status": "generated",
          "div": "<div xmlns=\"http://www.w3.org/1999/xhtml\"><table class=\"hl7__eu__lab__report\"><tr><th>Test</th><th>22-May-2017</th><th>Reference&#xA0;Range</th><th>Unit</th></tr><tr><td>Specific gravity of Urine by Test strip</td><td>1.0</td><td>1.01 - 1.03</td><td>L</td><td>{SG}</td></tr></table></div>"
        },
        "status": "final",
        "subject": {
          "reference": "urn:uuid:575c5fea-f8c1-4d95-8517-70e1409009c8",
          "display": "Aniela Prażmo"
        },
        "effectiveDateTime": "2017-05-21T22:09:53Z",
        "specimen": {
          "reference": "urn:uuid:dfed6e89-46e5-405c-a60b-43c8387f2788"
        }
      }
    },
    {
      "fullUrl": "urn:uuid:dbff4d9c-588a-4e7f-bcda-4696dd889714",
      "resource": {
        "resourceType": "Observation",
        "id": "dbff4d9c-588a-4e7f-bcda-4696dd889714",
        "meta": {
          "profile": [
            "http://hl7.eu/fhir/laboratory/StructureDefinition/Observation-resultslab-eu-lab"
          ]
        },
        "performer": [
          {
            "display": "The Central European Lab"
          }
        ],
        "category": [
          {
            "coding": [
              {
                "system": "http://terminology.hl7.org/CodeSystem/observation-category",
                "code": "laboratory"
              }
            ]
          }
        ],
        "code": {
          "coding": [
            {
              "code": "5803-2",
              "system": "http://loinc.org",
              "display": "pH of Urine by Test strip"
            }
          ],
          "text": "pH of Urine by Test strip"
        },
        "valueQuantity": {
          "system": "http://unitsofmeasure.org",
          "value": 7.3,
          "unit": "[pH]",
          "code": "[pH]"
        },
        "referenceRange": [
          {
            "low": {
              "value": 4.5,
              "code": "pH",
              "system": "http://unitsofmeasure.org"
            }
          },
          {
            "high": {
              "value": 7.5,
              "code": "pH",
              "system": "http://unitsofmeasure.org"
            }
          }
        ],
        "text": {
          "status": "generated",
          "div": "<div xmlns=\"http://www.w3.org/1999/xhtml\"><table class=\"hl7__eu__lab__report\"><tr><th>Test</th><th>22-May-2017</th><th>Reference&#xA0;Range</th><th>Unit</th></tr><tr><td>pH of Urine by Test strip</td><td>7.3</td><td>4.5 - 7.5</td><td></td><td>[pH]</td></tr></table></div>"
        },
        "status": "final",
        "subject": {
          "reference": "urn:uuid:575c5fea-f8c1-4d95-8517-70e1409009c8",
          "display": "Aniela Prażmo"
        },
        "effectiveDateTime": "2017-05-21T22:09:53Z",
        "specimen": {
          "reference": "urn:uuid:dfed6e89-46e5-405c-a60b-43c8387f2788"
        }
      }
    },
    {
      "fullUrl": "urn:uuid:d964b650-7751-4d34-952c-b8b97e252dbc",
      "resource": {
        "resourceType": "Observation",
        "id": "d964b650-7751-4d34-952c-b8b97e252dbc",
        "meta": {
          "profile": [
            "http://hl7.eu/fhir/laboratory/StructureDefinition/Observation-resultslab-eu-lab"
          ]
        },
        "performer": [
          {
            "display": "The Central European Lab"
          }
        ],
        "category": [
          {
            "coding": [
              {
                "system": "http://terminology.hl7.org/CodeSystem/observation-category",
                "code": "laboratory"
              }
            ]
          }
        ],
        "code": {
          "coding": [
            {
              "code": "20454-5",
              "system": "http://loinc.org",
              "display": "Protein [Presence] in Urine by Test strip"
            }
          ],
          "text": "Protein [Presence] in Urine by Test strip"
        },
        "valueQuantity": {
          "system": "http://unitsofmeasure.org",
          "value": 1,
          "unit": "{presence}",
          "code": "{presence}"
        },
        "referenceRange": [
          {
            "low": {
              "value": 0,
              "code": "g/dL",
              "system": "http://unitsofmeasure.org"
            }
          },
          {
            "high": {
              "value": 0.3,
              "code": "g/dL",
              "system": "http://unitsofmeasure.org"
            }
          }
        ],
        "interpretation": [
          {
            "coding": [
              {
                "code": "H",
                "system": "http://terminology.hl7.org/CodeSystem/v3-ObservationInterpretation",
                "display": "High"
              }
            ]
          }
        ],
        "text": {
          "status": "generated",
          "div": "<div xmlns=\"http://www.w3.org/1999/xhtml\"><table class=\"hl7__eu__lab__report\"><tr><th>Test</th><th>22-May-2017</th><th>Reference&#xA0;Range</th><th>Unit</th></tr><tr><td>Protein [Presence] in Urine by Test strip</td><td>1.0</td><td>0 - 0.3</td><td>H</td><td>{presence}</td></tr></table></div>"
        },
        "status": "final",
        "subject": {
          "reference": "urn:uuid:575c5fea-f8c1-4d95-8517-70e1409009c8",
          "display": "Aniela Prażmo"
        },
        "effectiveDateTime": "2017-05-21T22:09:53Z",
        "specimen": {
          "reference": "urn:uuid:dfed6e89-46e5-405c-a60b-43c8387f2788"
        }
      }
    },
    {
      "fullUrl": "urn:uuid:039c9c6d-bedd-439e-ad37-5ed0a0e586e9",
      "resource": {
        "resourceType": "Observation",
        "id": "039c9c6d-bedd-439e-ad37-5ed0a0e586e9",
        "meta": {
          "profile": [
            "http://hl7.eu/fhir/laboratory/StructureDefinition/Observation-resultslab-eu-lab"
          ]
        },
        "performer": [
          {
            "display": "The Central European Lab"
          }
        ],
        "category": [
          {
            "coding": [
              {
                "system": "http://terminology.hl7.org/CodeSystem/observation-category",
                "code": "laboratory"
              }
            ]
          }
        ],
        "code": {
          "coding": [
            {
              "code": "5802-4",
              "system": "http://loinc.org",
              "display": "Nitrite [Presence] in Urine by Test strip"
            }
          ],
          "text": "Nitrite [Presence] in Urine by Test strip"
        },
        "valueQuantity": {
          "system": "http://unitsofmeasure.org",
          "value": 1,
          "unit": "{presence}",
          "code": "{presence}"
        },
        "referenceRange": [
          {
            "low": {
              "value": 0,
              "code": "Presence",
              "system": "http://unitsofmeasure.org"
            }
          },
          {
            "high": {
              "value": 1,
              "code": "Presence",
              "system": "http://unitsofmeasure.org"
            }
          }
        ],
        "text": {
          "status": "generated",
          "div": "<div xmlns=\"http://www.w3.org/1999/xhtml\"><table class=\"hl7__eu__lab__report\"><tr><th>Test</th><th>22-May-2017</th><th>Reference&#xA0;Range</th><th>Unit</th></tr><tr><td>Nitrite [Presence] in Urine by Test strip</td><td>1.0</td><td>0 - 1</td><td></td><td>{presence}</td></tr></table></div>"
        },
        "status": "final",
        "subject": {
          "reference": "urn:uuid:575c5fea-f8c1-4d95-8517-70e1409009c8",
          "display": "Aniela Prażmo"
        },
        "effectiveDateTime": "2017-05-21T22:09:53Z",
        "specimen": {
          "reference": "urn:uuid:dfed6e89-46e5-405c-a60b-43c8387f2788"
        }
      }
    },
    {
      "fullUrl": "urn:uuid:5f50d055-5e95-49e7-b5cf-3d69be5a418d",
      "resource": {
        "resourceType": "Observation",
        "id": "5f50d055-5e95-49e7-b5cf-3d69be5a418d",
        "meta": {
          "profile": [
            "http://hl7.eu/fhir/laboratory/StructureDefinition/Observation-resultslab-eu-lab"
          ]
        },
        "performer": [
          {
            "display": "The Central European Lab"
          }
        ],
        "category": [
          {
            "coding": [
              {
                "system": "http://terminology.hl7.org/CodeSystem/observation-category",
                "code": "laboratory"
              }
            ]
          }
        ],
        "code": {
          "coding": [
            {
              "code": "5794-3",
              "system": "http://loinc.org",
              "display": "Hemoglobin [Presence] in Urine by Test strip"
            }
          ],
          "text": "Hemoglobin [Presence] in Urine by Test strip"
        },
        "valueQuantity": {
          "system": "http://unitsofmeasure.org",
          "value": 0,
          "unit": "{presence}",
          "code": "{presence}"
        },
        "referenceRange": [
          {
            "low": {
              "value": 0,
              "code": "Presence",
              "system": "http://unitsofmeasure.org"
            }
          },
          {
            "high": {
              "value": 0,
              "code": "Presence",
              "system": "http://unitsofmeasure.org"
            }
          }
        ],
        "text": {
          "status": "generated",
          "div": "<div xmlns=\"http://www.w3.org/1999/xhtml\"><table class=\"hl7__eu__lab__report\"><tr><th>Test</th><th>22-May-2017</th><th>Reference&#xA0;Range</th><th>Unit</th></tr><tr><td>Hemoglobin [Presence] in Urine by Test strip</td><td>0.0</td><td>0 - 0</td><td></td><td>{presence}</td></tr></table></div>"
        },
        "status": "final",
        "subject": {
          "reference": "urn:uuid:575c5fea-f8c1-4d95-8517-70e1409009c8",
          "display": "Aniela Prażmo"
        },
        "effectiveDateTime": "2017-05-21T22:09:53Z",
        "specimen": {
          "reference": "urn:uuid:dfed6e89-46e5-405c-a60b-43c8387f2788"
        }
      }
    },
    {
      "fullUrl": "urn:uuid:3a7837de-edc2-409a-abc0-ffd22c037964",
      "resource": {
        "resourceType": "Observation",
        "id": "3a7837de-edc2-409a-abc0-ffd22c037964",
        "meta": {
          "profile": [
            "http://hl7.eu/fhir/laboratory/StructureDefinition/Observation-resultslab-eu-lab"
          ]
        },
        "performer": [
          {
            "display": "The Central European Lab"
          }
        ],
        "category": [
          {
            "coding": [
              {
                "system": "http://terminology.hl7.org/CodeSystem/observation-category",
                "code": "laboratory"
              }
            ]
          }
        ],
        "code": {
          "coding": [
            {
              "code": "5799-2",
              "system": "http://loinc.org",
              "display": "Leukocyte esterase [Presence] in Urine by Test strip"
            }
          ],
          "text": "Leukocyte esterase [Presence] in Urine by Test strip"
        },
        "valueQuantity": {
          "system": "http://unitsofmeasure.org",
          "value": 0,
          "unit": "{presence}",
          "code": "{presence}"
        },
        "referenceRange": [
          {
            "low": {
              "value": 0,
              "code": "Presence",
              "system": "http://unitsofmeasure.org"
            }
          },
          {
            "high": {
              "value": 0,
              "code": "Presence",
              "system": "http://unitsofmeasure.org"
            }
          }
        ],
        "text": {
          "status": "generated",
          "div": "<div xmlns=\"http://www.w3.org/1999/xhtml\"><table class=\"hl7__eu__lab__report\"><tr><th>Test</th><th>22-May-2017</th><th>Reference&#xA0;Range</th><th>Unit</th></tr><tr><td>Leukocyte esterase [Presence] in Urine by Test strip</td><td>0.0</td><td>0 - 0</td><td></td><td>{presence}</td></tr></table></div>"
        },
        "status": "final",
        "subject": {
          "reference": "urn:uuid:575c5fea-f8c1-4d95-8517-70e1409009c8",
          "display": "Aniela Prażmo"
        },
        "effectiveDateTime": "2017-05-21T22:09:53Z",
        "specimen": {
          "reference": "urn:uuid:dfed6e89-46e5-405c-a60b-43c8387f2788"
        }
      }
    },
    {
      "fullUrl": "urn:uuid:94cba515-db9b-403c-b506-7fbc12471fd6",
      "resource": {
        "resourceType": "Device",
        "id": "94cba515-db9b-403c-b506-7fbc12471fd6",
        "deviceName": [
          {
            "name": "SYNDERAI Synthetic Generator",
            "type": "manufacturer-name"
          }
        ],
        "version": [
          {
            "value": "5.0"
          }
        ],
        "text": {
          "status": "generated",
          "div": "<div xmlns=\"http://www.w3.org/1999/xhtml\">SYNDERAI Synthetic Generator v5.0</div>"
        },
        "status": "active\"",
        "distinctIdentifier": "synderai-generator-50",
        "manufacturer": "SYNDERAI Project"
      }
    },
    {
      "fullUrl": "urn:uuid:c8655d53-8cfa-4106-9f09-4bc3c23e4f00",
      "resource": {
        "resourceType": "Provenance",
        "id": "c8655d53-8cfa-4106-9f09-4bc3c23e4f00",
        "target": [
          {
            "reference": "Patient/575c5fea-f8c1-4d95-8517-70e1409009c8"
          },
          {
            "reference": "Bundle/b0132383-e2ee-443c-9b91-4a06590e0f36"
          },
          {
            "reference": "Composition/9844d200-3a7e-4f51-82e2-26caa3ef19bd"
          },
          {
            "reference": "PractitionerRole/17354975-5c4e-4bbf-8fb1-1bcebf3ea461"
          },
          {
            "reference": "Practitioner/48870bed-cc26-4320-8c29-e5c18f3dbb21"
          },
          {
            "reference": "PractitionerRole/085fd34d-7984-4d05-aac2-e1e5551c8c64"
          },
          {
            "reference": "Organization/08a52b8a-86a8-497a-b4eb-7f88e47c4c5a"
          }
        ],
        "activity": {
          "text": "Synthetic Example Data Generation"
        },
        "policy": [
          "https://synderai.net/synderai-synthetic-data-policy"
        ],
        "agent": [
          {
            "type": {
              "text": "author"
            },
            "who": {
              "reference": "Device/94cba515-db9b-403c-b506-7fbc12471fd6"
            }
          }
        ],
        "reason": [
          {
            "text": "Interoperability Testing and Training (non-clinical use)"
          }
        ],
        "text": {
          "status": "generated",
          "div": "<div xmlns=\"http://www.w3.org/1999/xhtml\">Provenance for SYNDERAI Synthetic Example Data Resource</div>"
        },
        "recorded": "2017-05-22T00:09:53Z"
      }
    },
    {
      "fullUrl": "urn:uuid:17354975-5c4e-4bbf-8fb1-1bcebf3ea461",
      "resource": {
        "resourceType": "PractitionerRole",
        "id": "17354975-5c4e-4bbf-8fb1-1bcebf3ea461",
        "meta": {
          "profile": [
            "http://hl7.eu/fhir/base/StructureDefinition/practitionerRole-eu"
          ]
        },
        "text": {
          "status": "generated",
          "div": "<div xmlns=\"http://www.w3.org/1999/xhtml\">Laboratory Role Id: 17354975-5c4e-4bbf-8fb1-1bcebf3ea461</div>"
        },
        "practitioner": {
          "reference": "urn:uuid:48870bed-cc26-4320-8c29-e5c18f3dbb21"
        }
      }
    },
    {
      "fullUrl": "urn:uuid:48870bed-cc26-4320-8c29-e5c18f3dbb21",
      "resource": {
        "resourceType": "Practitioner",
        "id": "48870bed-cc26-4320-8c29-e5c18f3dbb21",
        "meta": {
          "profile": [
            "http://hl7.eu/fhir/base/StructureDefinition/practitioner-eu"
          ]
        },
        "identifier": [
          {
            "assigner": {
              "display": "HL7 Europe"
            },
            "system": "urn:oid:2.16.840.1.113883.2.51.999",
            "value": "012f5fb0-e10d-47f3-a997-72951622b951"
          }
        ],
        "name": [
          {
            "prefix": [
              "dr"
            ],
            "given": [
              "Ex"
            ],
            "family": "Ample"
          }
        ],
        "address": [
          {
            "line": [
              "Laboratoire Central Européenne",
              "Boulevard du Jardin Botanique 32"
            ],
            "postalCode": "1000",
            "city": "Brussels",
            "country": "Belgium"
          }
        ],
        "text": {
          "status": "generated",
          "div": "<div xmlns=\"http://www.w3.org/1999/xhtml\">Laboratory: Laboratoire Central Européenne, 1000 Brussels, Belgium</div>"
        }
      }
    }
  ],
  "type": "document",
  "timestamp": "2017-05-22T00:09:53Z"
}
