{
  "resourceType": "Bundle",
  "id": "931fb8ae-59d2-4ad1-82b2-a6a7b3bd7b6f",
  "meta": {
    "profile": [
      "http://hl7.eu/fhir/laboratory/StructureDefinition/Bundle-eu-lab"
    ]
  },
  "identifier": {
    "assigner": {
      "display": "HL7 Europe"
    },
    "system": "urn:oid:2.16.840.1.113883.2.51.999",
    "value": "82b2e4da-1318-4daa-b5d0-9873b0bcbff6"
  },
  "entry": [
    {
      "fullUrl": "urn:uuid:b2fc13dc-e27a-4fa4-8b19-1645007781d3",
      "resource": {
        "resourceType": "Composition",
        "id": "b2fc13dc-e27a-4fa4-8b19-1645007781d3",
        "meta": {
          "profile": [
            "http://hl7.eu/fhir/laboratory/StructureDefinition/Composition-eu-lab"
          ]
        },
        "identifier": {
          "assigner": {
            "display": "HL7 Europe"
          },
          "system": "urn:oid:2.16.840.1.113883.2.51.999",
          "value": "f2bf2b3e-6be0-4177-8f1d-8f32dd58ec38"
        },
        "author": [
          {
            "reference": "urn:uuid:5549a9a7-3fd9-407a-b84f-7023fe09bed9"
          }
        ],
        "category": [
          {
            "coding": [
              {
                "code": "26436-6",
                "system": "http://loinc.org",
                "display": "Laboratory studies (set)"
              }
            ]
          }
        ],
        "type": {
          "coding": [
            {
              "code": "11502-2",
              "system": "http://loinc.org",
              "display": "Laboratory report"
            }
          ],
          "text": "Laboratory Report"
        },
        "section": [
          {
            "code": {
              "coding": [
                {
                  "code": "26436-6",
                  "system": "http://loinc.org",
                  "display": "Laboratory studies (set)"
                }
              ],
              "text": "Laboratory studies"
            },
            "section": [
              {
                "code": {
                  "coding": [
                    {
                      "code": "$18719-5",
                      "system": "http://loinc.org",
                      "display": "Chemistry studies (set)"
                    }
                  ],
                  "text": "Chemistry"
                },
                "entry": [
                  {
                    "reference": "urn:uuid:22a5b382-986a-43f5-ad9d-9d943fc3a678"
                  },
                  {
                    "reference": "urn:uuid:bd8d3e4b-491a-4967-89ea-9f180d479299"
                  },
                  {
                    "reference": "urn:uuid:79d3bc83-a1a3-4b69-9a91-b7166bc2017e"
                  },
                  {
                    "reference": "urn:uuid:b634f7a1-e659-45d3-a460-ef5b0f913fa8"
                  },
                  {
                    "reference": "urn:uuid:261795dc-e723-4cba-aedc-e58d2fc9a831"
                  },
                  {
                    "reference": "urn:uuid:918960e4-aed4-4aa8-9810-b6e2c4ae688b"
                  },
                  {
                    "reference": "urn:uuid:ef927662-ce78-4fd3-9d1e-0a719d6cf688"
                  },
                  {
                    "reference": "urn:uuid:63c4b4e6-c381-46fe-816c-e70dd2bc9016"
                  },
                  {
                    "reference": "urn:uuid:10589038-b212-4b71-b2cb-c0ac209f1097"
                  },
                  {
                    "reference": "urn:uuid:8ec9159d-56f9-4fe3-8d9a-33e6f28a139e"
                  },
                  {
                    "reference": "urn:uuid:adaad985-3439-4384-8b41-e9bc35bf98fd"
                  },
                  {
                    "reference": "urn:uuid:b4c7d3bb-72de-4796-8227-5a31c5a6760f"
                  },
                  {
                    "reference": "urn:uuid:f7b29418-d30b-4bbf-8209-eea18d6464f7"
                  },
                  {
                    "reference": "urn:uuid:caacb0fb-8a3f-4c7b-a518-a0800ca48788"
                  },
                  {
                    "reference": "urn:uuid:c1c4e628-39b9-442a-a68b-612c655a56a1"
                  },
                  {
                    "reference": "urn:uuid:32bbe4cb-105b-40c1-83b0-3d692b37400b"
                  },
                  {
                    "reference": "urn:uuid:e9046a3f-ba13-4491-990c-fd83343daaa4"
                  },
                  {
                    "reference": "urn:uuid:89b35dc7-7bea-4995-b23a-f9cd8b72add9"
                  }
                ],
                "text": {
                  "status": "generated",
                  "div": "<div xmlns=\"http://www.w3.org/1999/xhtml\"><h3>Chemistry</h3><table class=\"hl7__eu__lab__report\"><thead><tr><th>Test</th><th>22-OCT-2024</th><th>Reference&#xA0;Range</th><th>Unit</th></tr></thead><tbody><tr><td>Glucose [Mass/volume] in Serum or Plasma</td><td>97.6</td><td>70 - 99</td><td>mg/dL</td></tr><tr><td>Urea nitrogen [Mass/volume] in Serum or Plasma</td><td>18.2</td><td>7 - 50</td><td>mg/dL</td></tr><tr><td>Creatinine [Mass/volume] in Serum or Plasma</td><td><strong>2.0 H</strong></td><td>0.6 - 1.1</td><td>mg/dL</td></tr><tr><td>Calcium [Mass/volume] in Serum or Plasma</td><td>9.8</td><td>8.6 - 10.4</td><td>mg/dL</td></tr><tr><td>Sodium [Moles/volume] in Serum or Plasma</td><td>138.9</td><td>135 - 145</td><td>mmol/L</td></tr><tr><td>Potassium [Moles/volume] in Serum or Plasma</td><td>5.0</td><td>3.5 - 5.1</td><td>mmol/L</td></tr><tr><td>Chloride [Moles/volume] in Serum or Plasma</td><td>105.8</td><td>98 - 108</td><td>mmol/L</td></tr><tr><td>Carbon dioxide, total [Moles/volume] in Serum or Plasma</td><td>22.3</td><td>22 - 32</td><td>mmol/L</td></tr><tr><td>Ketones [Presence] in Urine by Test strip</td><td>Urine ketone test = ++</td><td></td><td></td></tr><tr><td>Hemoglobin A1c/Hemoglobin.total in Blood</td><td>4.0</td><td>4 - 6.4</td><td>%</td></tr><tr><td>Glucose [Mass/volume] in Blood</td><td>97.6</td><td>70 - 100</td><td>mg/dL</td></tr><tr><td>Urea nitrogen [Mass/volume] in Blood</td><td>18.2</td><td>7 - 43</td><td>mg/dL</td></tr><tr><td>Creatinine [Mass/volume] in Blood</td><td><strong>3.2 H</strong></td><td>0.6 - 1.1</td><td>mg/dL</td></tr><tr><td>Calcium [Mass/volume] in Blood</td><td>9.8</td><td>8.5 - 10.5</td><td>mg/dL</td></tr><tr><td>Sodium [Moles/volume] in Blood</td><td>138.9</td><td>135 - 145</td><td>mmol/L</td></tr><tr><td>Potassium [Moles/volume] in Blood</td><td>5.0</td><td>3.5 - 5.1</td><td>mmol/L</td></tr><tr><td>Chloride [Moles/volume] in Blood</td><td>105.8</td><td>98 - 108</td><td>mmol/L</td></tr><tr><td>Carbon dioxide, total [Moles/volume] in Blood</td><td>22.3</td><td>22 - 29</td><td>mmol/L</td></tr></tbody></table></div>"
                },
                "title": "Chemistry"
              },
              {
                "code": {
                  "coding": [
                    {
                      "code": "$18729-4",
                      "system": "http://loinc.org",
                      "display": "Urinalysis studies (set)"
                    }
                  ],
                  "text": "Urinalysis"
                },
                "entry": [
                  {
                    "reference": "urn:uuid:dbba3565-ba56-42e5-a0c4-093af18b49f3"
                  },
                  {
                    "reference": "urn:uuid:c6b16c86-3e27-4e6d-b89c-c4a6562cf0f8"
                  },
                  {
                    "reference": "urn:uuid:b3fb5424-a812-4586-9c8b-9287f544f0cd"
                  },
                  {
                    "reference": "urn:uuid:6b044cad-282a-4d19-a66f-c9a69a733bcc"
                  },
                  {
                    "reference": "urn:uuid:6c345175-b056-474e-a200-d3e6836f3b81"
                  },
                  {
                    "reference": "urn:uuid:d40b96ec-a0de-441d-b125-1dba821b024f"
                  },
                  {
                    "reference": "urn:uuid:87698b4c-9510-45a1-a314-dac6a76510be"
                  },
                  {
                    "reference": "urn:uuid:5d8cad21-e819-4f43-b767-7c8d2c407ae5"
                  },
                  {
                    "reference": "urn:uuid:b600cccf-c8f6-4f6e-ad34-eeb7b0c52be8"
                  },
                  {
                    "reference": "urn:uuid:86529ed4-a9d6-4fe6-a3b9-b737c1bafe3d"
                  },
                  {
                    "reference": "urn:uuid:6b419e88-b25e-4aee-938a-b9de19a7dd17"
                  },
                  {
                    "reference": "urn:uuid:f1d93a59-7537-4057-8f9b-c38e36bbf14c"
                  }
                ],
                "text": {
                  "status": "generated",
                  "div": "<div xmlns=\"http://www.w3.org/1999/xhtml\"><h3>Urinalysis</h3><table class=\"hl7__eu__lab__report\"><thead><tr><th>Test</th><th>22-OCT-2024</th><th>Reference&#xA0;Range</th><th>Unit</th></tr></thead><tbody><tr><td>Glucose [Mass/volume] in Urine by Test strip</td><td><strong>0.7 L</strong></td><td>0.8 - 0</td><td>mg/dL</td></tr><tr><td>Glucose [Presence] in Urine by Test strip</td><td>++</td><td></td><td></td></tr><tr><td>Bilirubin.total [Mass/volume] in Urine by Test strip</td><td>0.5</td><td>0 - 1</td><td>mg/dL</td></tr><tr><td>Bilirubin.total [Presence] in Urine by Test strip</td><td>Finding of bilirubin in urine</td><td></td><td></td></tr><tr><td>Ketones [Mass/volume] in Urine by Test strip</td><td><strong>9.3 H</strong></td><td>0 - 4</td><td>mg/dL</td></tr><tr><td>Specific gravity of Urine by Test strip</td><td><strong>1.0 L</strong></td><td>1.005 - 1.03</td><td>{nominal}</td></tr><tr><td>pH of Urine by Test strip</td><td>6.8</td><td>4.6 - 7</td><td>pH</td></tr><tr><td>Protein [Mass/volume] in Urine by Test strip</td><td><strong>312.6 H</strong></td><td>0 - 14</td><td>mg/dL</td></tr><tr><td>Protein [Presence] in Urine by Test strip</td><td>Urine protein test = ++</td><td></td><td></td></tr><tr><td>Nitrite [Presence] in Urine by Test strip</td><td>Urine nitrite negative</td><td></td><td></td></tr><tr><td>Hemoglobin [Presence] in Urine by Test strip</td><td>Urine blood test = negative</td><td></td><td></td></tr><tr><td>Leukocyte esterase [Presence] in Urine by Test strip</td><td>Urine leukocyte test negative</td><td></td><td></td></tr></tbody></table></div>"
                },
                "title": "Urinalysis"
              },
              {
                "code": {
                  "coding": [
                    {
                      "code": "$LP7846-1",
                      "system": "http://loinc.org",
                      "display": "Specimen information"
                    }
                  ],
                  "text": "Specimen information"
                },
                "entry": [
                  {
                    "reference": "urn:uuid:72c23921-f483-4092-bebf-d8737691da6e"
                  },
                  {
                    "reference": "urn:uuid:4199bd38-92c6-4545-bf0c-8130e0ba8f83"
                  },
                  {
                    "reference": "urn:uuid:e62ca530-bff9-4849-adde-c42fd87178cb"
                  },
                  {
                    "reference": "urn:uuid:49d1a489-ee5c-44d9-93ad-dead8c5c680e"
                  }
                ],
                "text": {
                  "status": "generated",
                  "div": "<div xmlns=\"http://www.w3.org/1999/xhtml\"><h3>Specimen information</h3><table class=\"hl7__eu__lab__report\"><thead><tr><th>Test</th><th>22-OCT-2024</th><th>Specimen</th><th></th></tr></thead><tbody><tr><td>Appearance of Urine</td><td>Cloudy urine</td><td>Urine</td><td></td></tr><tr><td>Odor of Urine</td><td>Urine smell ammoniacal</td><td>Urine</td><td></td></tr><tr><td>Clarity of Urine</td><td>Translucent</td><td>Urine</td><td></td></tr><tr><td>Color of Urine</td><td>Brown color</td><td>Urine</td><td></td></tr></tbody></table></div>"
                },
                "title": "Specimen information"
              }
            ],
            "title": "Laboratory Report"
          },
          {
            "text": {
              "status": "generated",
              "div": "<div xmlns=\"http://www.w3.org/1999/xhtml\"><h3>Annotation</h3><table class=\"hl7__eu__lab__report\"><tr><th>Conclusion and Recommendations based on this report and previous findings known to us</th></tr><tr><td>The patient shows significantly elevated creatinine in both serum and blood, indicating impaired renal function. Urinalysis reveals marked proteinuria, glucosuria, ketonuria, and abnormal urine appearance (cloudy, brown, ammoniacal), suggesting possible nephrotic syndrome or acute kidney injury with metabolic derangements. Blood glucose and HbA1c are normal, making diabetes less likely. Recommend urgent nephrology evaluation and further workup for underlying renal pathology.</td></tr></table></div>"
            },
            "code": {
              "coding": [
                {
                  "system": "http://loinc.org",
                  "code": "48767-8",
                  "display": "Annotation comment"
                }
              ]
            },
            "title": "Annotation comment"
          }
        ],
        "status": "final",
        "subject": {
          "reference": "urn:uuid:3c697d9e-bcc1-4dec-98de-4202727c252b",
          "display": "Meaghan Neary"
        },
        "date": "2024-10-22T00:11:04Z",
        "title": "Laboratory Report",
        "confidentiality": "N"
      }
    },
    {
      "fullUrl": "urn:uuid:beb2c98e-00ef-416d-9f9b-532a66bbd365",
      "resource": {
        "resourceType": "DiagnosticReport",
        "id": "beb2c98e-00ef-416d-9f9b-532a66bbd365",
        "meta": {
          "profile": [
            "http://hl7.eu/fhir/laboratory/StructureDefinition/DiagnosticReport-eu-lab"
          ]
        },
        "identifier": [
          {
            "assigner": {
              "display": "HL7 Europe"
            },
            "system": "urn:oid:2.16.840.1.113883.2.51.999",
            "value": "43132a1b-34db-4158-8fba-43daf9a0bb7a"
          }
        ],
        "extension": [
          {
            "url": "http://hl7.org/fhir/5.0/StructureDefinition/extension-DiagnosticReport.composition",
            "valueReference": {
              "reference": "urn:uuid:f2bf2b3e-6be0-4177-8f1d-8f32dd58ec38"
            }
          }
        ],
        "category": [
          {
            "coding": [
              {
                "code": "26436-6",
                "system": "http://loinc.org",
                "display": "Laboratory studies (set)"
              }
            ]
          }
        ],
        "specimen": [
          {
            "reference": "urn:uuid:a4a1daf7-a0b8-42a1-9042-d31be8454df4"
          },
          {
            "reference": "urn:uuid:6fc6bd43-eee2-4ee1-98d3-b41bd40e4bfa"
          },
          {
            "reference": "urn:uuid:53f758ca-961d-46c7-9247-c0bdf4cdb4c7"
          }
        ],
        "result": [
          {
            "reference": "urn:uuid:22a5b382-986a-43f5-ad9d-9d943fc3a678"
          },
          {
            "reference": "urn:uuid:bd8d3e4b-491a-4967-89ea-9f180d479299"
          },
          {
            "reference": "urn:uuid:79d3bc83-a1a3-4b69-9a91-b7166bc2017e"
          },
          {
            "reference": "urn:uuid:b634f7a1-e659-45d3-a460-ef5b0f913fa8"
          },
          {
            "reference": "urn:uuid:261795dc-e723-4cba-aedc-e58d2fc9a831"
          },
          {
            "reference": "urn:uuid:918960e4-aed4-4aa8-9810-b6e2c4ae688b"
          },
          {
            "reference": "urn:uuid:ef927662-ce78-4fd3-9d1e-0a719d6cf688"
          },
          {
            "reference": "urn:uuid:63c4b4e6-c381-46fe-816c-e70dd2bc9016"
          },
          {
            "reference": "urn:uuid:72c23921-f483-4092-bebf-d8737691da6e"
          },
          {
            "reference": "urn:uuid:4199bd38-92c6-4545-bf0c-8130e0ba8f83"
          },
          {
            "reference": "urn:uuid:e62ca530-bff9-4849-adde-c42fd87178cb"
          },
          {
            "reference": "urn:uuid:49d1a489-ee5c-44d9-93ad-dead8c5c680e"
          },
          {
            "reference": "urn:uuid:dbba3565-ba56-42e5-a0c4-093af18b49f3"
          },
          {
            "reference": "urn:uuid:c6b16c86-3e27-4e6d-b89c-c4a6562cf0f8"
          },
          {
            "reference": "urn:uuid:b3fb5424-a812-4586-9c8b-9287f544f0cd"
          },
          {
            "reference": "urn:uuid:6b044cad-282a-4d19-a66f-c9a69a733bcc"
          },
          {
            "reference": "urn:uuid:6c345175-b056-474e-a200-d3e6836f3b81"
          },
          {
            "reference": "urn:uuid:10589038-b212-4b71-b2cb-c0ac209f1097"
          },
          {
            "reference": "urn:uuid:d40b96ec-a0de-441d-b125-1dba821b024f"
          },
          {
            "reference": "urn:uuid:87698b4c-9510-45a1-a314-dac6a76510be"
          },
          {
            "reference": "urn:uuid:5d8cad21-e819-4f43-b767-7c8d2c407ae5"
          },
          {
            "reference": "urn:uuid:b600cccf-c8f6-4f6e-ad34-eeb7b0c52be8"
          },
          {
            "reference": "urn:uuid:86529ed4-a9d6-4fe6-a3b9-b737c1bafe3d"
          },
          {
            "reference": "urn:uuid:6b419e88-b25e-4aee-938a-b9de19a7dd17"
          },
          {
            "reference": "urn:uuid:f1d93a59-7537-4057-8f9b-c38e36bbf14c"
          },
          {
            "reference": "urn:uuid:8ec9159d-56f9-4fe3-8d9a-33e6f28a139e"
          },
          {
            "reference": "urn:uuid:adaad985-3439-4384-8b41-e9bc35bf98fd"
          },
          {
            "reference": "urn:uuid:b4c7d3bb-72de-4796-8227-5a31c5a6760f"
          },
          {
            "reference": "urn:uuid:f7b29418-d30b-4bbf-8209-eea18d6464f7"
          },
          {
            "reference": "urn:uuid:caacb0fb-8a3f-4c7b-a518-a0800ca48788"
          },
          {
            "reference": "urn:uuid:c1c4e628-39b9-442a-a68b-612c655a56a1"
          },
          {
            "reference": "urn:uuid:32bbe4cb-105b-40c1-83b0-3d692b37400b"
          },
          {
            "reference": "urn:uuid:e9046a3f-ba13-4491-990c-fd83343daaa4"
          },
          {
            "reference": "urn:uuid:89b35dc7-7bea-4995-b23a-f9cd8b72add9"
          }
        ],
        "status": "registered",
        "code": {
          "coding": [
            {
              "code": "11502-2",
              "system": "http://loinc.org",
              "display": "Laboratory report"
            }
          ]
        },
        "subject": {
          "reference": "urn:uuid:3c697d9e-bcc1-4dec-98de-4202727c252b",
          "display": "Meaghan Neary"
        }
      }
    },
    {
      "fullUrl": "urn:uuid:3c697d9e-bcc1-4dec-98de-4202727c252b",
      "resource": {
        "resourceType": "Patient",
        "id": "3c697d9e-bcc1-4dec-98de-4202727c252b",
        "meta": {
          "security": [
            {
              "system": "http://terminology.hl7.org/CodeSystem/v3-ActReason",
              "code": "HTEST"
            },
            {
              "system": "http://terminology.hl7.org/CodeSystem/v3-ActReason",
              "code": "TRAIN"
            }
          ],
          "tag": [
            {
              "system": "https://synderai.net/fhir/CodeSystem/tags",
              "code": "synthetic",
              "display": "SYNDERAI Synthetic data"
            }
          ],
          "profile": [
            "http://hl7.eu/fhir/base/StructureDefinition/patient-eu-core"
          ]
        },
        "identifier": [
          {
            "type": {
              "coding": [
                {
                  "code": "PT",
                  "system": "http://terminology.hl7.org/CodeSystem/v2-0203"
                }
              ]
            },
            "system": "http://ec.europa.eu/identifier/eci",
            "value": "1586-567257-8"
          },
          {
            "type": {
              "coding": [
                {
                  "code": "MR",
                  "system": "http://terminology.hl7.org/CodeSystem/v2-0203"
                }
              ]
            },
            "system": "http://local.setting.eu/identifier",
            "value": "443e6379-f231-b364-3ccb-644740a1aa2a"
          }
        ],
        "name": [
          {
            "family": "Neary"
          },
          {
            "given": [
              "Meaghan"
            ]
          },
          {
            "text": "Meaghan Neary"
          }
        ],
        "address": [
          {
            "line": [
              "64 Linskey Street"
            ],
            "use": "home",
            "type": "physical",
            "postalCode": "D02",
            "city": "Dublin",
            "country": "Ireland"
          }
        ],
        "telecom": [
          {
            "system": "phone",
            "value": "001-967-573-0911x465"
          }
        ],
        "extension": [
          {
            "url": "http://hl7.org/fhir/StructureDefinition/patient-nationality",
            "valueCodeableConcept": {
              "coding": [
                {
                  "code": "IE",
                  "system": "http://hl7.org/fhir/ValueSet/country"
                }
              ]
            }
          }
        ],
        "text": {
          "status": "generated",
          "div": "<div xmlns=\"http://www.w3.org/1999/xhtml\"><table class=\"hl7__ips\"><tr><td>Meaghan Neary</td><td>female</td><td>19-Dec-1960</td></tr></table></div>"
        },
        "gender": "female",
        "birthDate": "1960-12-19"
      }
    },
    {
      "fullUrl": "urn:uuid:a2f5eb6b-0c46-4f09-9beb-fb51909fbb3c",
      "resource": {
        "resourceType": "ServiceRequest",
        "id": "a2f5eb6b-0c46-4f09-9beb-fb51909fbb3c",
        "meta": {
          "profile": [
            "http://hl7.eu/fhir/laboratory/StructureDefinition/ServiceRequest-eu-lab"
          ]
        },
        "identifier": [
          {
            "system": "http://example.org",
            "value": "d7da6ca8-3a50-4e40-b6f6-9372dc276568"
          }
        ],
        "specimen": [
          {
            "reference": "urn:uuid:a4a1daf7-a0b8-42a1-9042-d31be8454df4"
          },
          {
            "reference": "urn:uuid:6fc6bd43-eee2-4ee1-98d3-b41bd40e4bfa"
          },
          {
            "reference": "urn:uuid:53f758ca-961d-46c7-9247-c0bdf4cdb4c7"
          }
        ],
        "reasonCode": [
          {
            "coding": [
              {
                "code": "55822004",
                "system": "http://snomed.info/sct",
                "display": "Hyperlipidemia"
              }
            ]
          },
          {
            "coding": [
              {
                "code": "433144002",
                "system": "http://snomed.info/sct",
                "display": "Chronic kidney disease stage 3"
              }
            ]
          },
          {
            "coding": [
              {
                "code": "157141000119108",
                "system": "http://snomed.info/sct",
                "display": "Proteinuria due to type 2 diabetes mellitus"
              }
            ]
          },
          {
            "coding": [
              {
                "code": "431856006",
                "system": "http://snomed.info/sct",
                "display": "Chronic kidney disease stage 2"
              }
            ]
          },
          {
            "coding": [
              {
                "code": "90781000119102",
                "system": "http://snomed.info/sct",
                "display": "Microalbuminuria due to type 2 diabetes mellitus"
              }
            ]
          },
          {
            "coding": [
              {
                "code": "127013003",
                "system": "http://snomed.info/sct",
                "display": "Disorder of kidney due to diabetes mellitus"
              }
            ]
          },
          {
            "coding": [
              {
                "code": "431855005",
                "system": "http://snomed.info/sct",
                "display": "Chronic kidney disease stage 1"
              }
            ]
          },
          {
            "coding": [
              {
                "code": "237602007",
                "system": "http://snomed.info/sct",
                "display": "Metabolic syndrome X"
              }
            ]
          },
          {
            "coding": [
              {
                "code": "271737000",
                "system": "http://snomed.info/sct",
                "display": "Anemia"
              }
            ]
          },
          {
            "coding": [
              {
                "code": "15777000",
                "system": "http://snomed.info/sct",
                "display": "Prediabetes"
              }
            ]
          },
          {
            "coding": [
              {
                "code": "59621000",
                "system": "http://snomed.info/sct",
                "display": "Essential hypertension"
              }
            ]
          }
        ],
        "status": "active",
        "intent": "order",
        "code": {
          "coding": [
            {
              "code": "108252007",
              "system": "http://snomed.info/sct",
              "display": "Laboratory procedure"
            }
          ]
        },
        "subject": {
          "reference": "urn:uuid:3c697d9e-bcc1-4dec-98de-4202727c252b",
          "display": "Meaghan Neary"
        },
        "requester": {
          "reference": "urn:uuid:7f7ca2b7-89d9-465a-bb2f-bdb083cb1e15"
        }
      }
    },
    {
      "fullUrl": "urn:uuid:7f7ca2b7-89d9-465a-bb2f-bdb083cb1e15",
      "resource": {
        "resourceType": "PractitionerRole",
        "id": "7f7ca2b7-89d9-465a-bb2f-bdb083cb1e15",
        "meta": {
          "profile": [
            "http://hl7.eu/fhir/base/StructureDefinition/practitionerRole-eu"
          ]
        },
        "text": {
          "status": "generated",
          "div": "<div xmlns=\"http://www.w3.org/1999/xhtml\">Provider Role Id: 7f7ca2b7-89d9-465a-bb2f-bdb083cb1e15</div>"
        },
        "organization": {
          "reference": "urn:uuid:8cab3245-492f-4e15-9902-b764a33ab097"
        }
      }
    },
    {
      "fullUrl": "urn:uuid:8cab3245-492f-4e15-9902-b764a33ab097",
      "resource": {
        "resourceType": "Organization",
        "id": "8cab3245-492f-4e15-9902-b764a33ab097",
        "meta": {
          "profile": [
            "http://hl7.eu/fhir/base/StructureDefinition/organization-eu"
          ]
        },
        "identifier": [
          {
            "assigner": {
              "display": "HL7 Europe"
            },
            "system": "urn:oid:2.16.840.1.113883.2.51.999",
            "value": "c3455ea0-aeb0-4830-b552-e3ec684a80b3"
          }
        ],
        "address": [
          {
            "line": [
              "Parnell Square West nan"
            ],
            "city": "Dublin",
            "postalCode": "D01",
            "country": "Ireland"
          }
        ],
        "text": {
          "status": "generated",
          "div": "<div xmlns=\"http://www.w3.org/1999/xhtml\">Provider Organization: Rotunda Hospital</div>"
        },
        "name": "Rotunda Hospital"
      }
    },
    {
      "fullUrl": "urn:uuid:a4a1daf7-a0b8-42a1-9042-d31be8454df4",
      "resource": {
        "resourceType": "Specimen",
        "id": "a4a1daf7-a0b8-42a1-9042-d31be8454df4",
        "meta": {
          "profile": [
            "http://hl7.eu/fhir/laboratory/StructureDefinition/Specimen-eu-lab"
          ]
        },
        "collection": {
          "collectedDateTime": "2024-10-21"
        },
        "text": {
          "status": "generated",
          "div": "<div xmlns=\"http://www.w3.org/1999/xhtml\"><table class=\"hl7__eu__lab__report\"><tr><th>Specimen</th><th>Collection Date</th></tr><tr><td>Acellular blood (serum or plasma) specimen</td><td><span class=\"nb\">21-Oct-2024</span></td></tr></table></div>"
        },
        "type": {
          "coding": [
            {
              "code": "122592007",
              "system": "http://snomed.info/sct",
              "display": "Acellular blood (serum or plasma) specimen"
            }
          ]
        }
      }
    },
    {
      "fullUrl": "urn:uuid:6fc6bd43-eee2-4ee1-98d3-b41bd40e4bfa",
      "resource": {
        "resourceType": "Specimen",
        "id": "6fc6bd43-eee2-4ee1-98d3-b41bd40e4bfa",
        "meta": {
          "profile": [
            "http://hl7.eu/fhir/laboratory/StructureDefinition/Specimen-eu-lab"
          ]
        },
        "collection": {
          "collectedDateTime": "2024-10-21"
        },
        "text": {
          "status": "generated",
          "div": "<div xmlns=\"http://www.w3.org/1999/xhtml\"><table class=\"hl7__eu__lab__report\"><tr><th>Specimen</th><th>Collection Date</th></tr><tr><td>Urine specimen</td><td><span class=\"nb\">21-Oct-2024</span></td></tr></table></div>"
        },
        "type": {
          "coding": [
            {
              "code": "122575003",
              "system": "http://snomed.info/sct",
              "display": "Urine specimen"
            }
          ]
        }
      }
    },
    {
      "fullUrl": "urn:uuid:53f758ca-961d-46c7-9247-c0bdf4cdb4c7",
      "resource": {
        "resourceType": "Specimen",
        "id": "53f758ca-961d-46c7-9247-c0bdf4cdb4c7",
        "meta": {
          "profile": [
            "http://hl7.eu/fhir/laboratory/StructureDefinition/Specimen-eu-lab"
          ]
        },
        "collection": {
          "collectedDateTime": "2024-10-21"
        },
        "text": {
          "status": "generated",
          "div": "<div xmlns=\"http://www.w3.org/1999/xhtml\"><table class=\"hl7__eu__lab__report\"><tr><th>Specimen</th><th>Collection Date</th></tr><tr><td>Whole blood specimen (specimen)</td><td><span class=\"nb\">21-Oct-2024</span></td></tr></table></div>"
        },
        "type": {
          "coding": [
            {
              "code": "258580003",
              "system": "http://snomed.info/sct",
              "display": "Whole blood specimen (specimen)"
            }
          ]
        }
      }
    },
    {
      "fullUrl": "urn:uuid:22a5b382-986a-43f5-ad9d-9d943fc3a678",
      "resource": {
        "resourceType": "Observation",
        "id": "22a5b382-986a-43f5-ad9d-9d943fc3a678",
        "meta": {
          "profile": [
            "http://hl7.eu/fhir/laboratory/StructureDefinition/Observation-resultslab-eu-lab"
          ]
        },
        "performer": [
          {
            "display": "The Central European Lab"
          }
        ],
        "category": [
          {
            "coding": [
              {
                "system": "http://terminology.hl7.org/CodeSystem/observation-category",
                "code": "laboratory"
              }
            ]
          }
        ],
        "code": {
          "coding": [
            {
              "code": "2345-7",
              "system": "http://loinc.org",
              "display": "Glucose [Mass/volume] in Serum or Plasma"
            }
          ],
          "text": "Glucose [Mass/volume] in Serum or Plasma"
        },
        "valueQuantity": {
          "system": "http://unitsofmeasure.org",
          "value": 97.6,
          "unit": "mg/dL",
          "code": "mg/dL"
        },
        "referenceRange": [
          {
            "low": {
              "value": 70,
              "code": "mg/dL",
              "system": "http://unitsofmeasure.org"
            }
          },
          {
            "high": {
              "value": 99,
              "code": "mg/dL",
              "system": "http://unitsofmeasure.org"
            }
          }
        ],
        "text": {
          "status": "generated",
          "div": "<div xmlns=\"http://www.w3.org/1999/xhtml\"><table class=\"hl7__eu__lab__report\"><tr><th>Test</th><th>22-Oct-2024</th><th>Reference&#xA0;Range</th><th>Unit</th></tr><tr><td>Glucose [Mass/volume] in Serum or Plasma</td><td>97.6</td><td>70 - 99</td><td></td><td>mg/dL</td></tr></table></div>"
        },
        "status": "final",
        "subject": {
          "reference": "urn:uuid:3c697d9e-bcc1-4dec-98de-4202727c252b",
          "display": "Meaghan Neary"
        },
        "effectiveDateTime": "2024-10-21T22:11:04Z",
        "specimen": {
          "reference": "urn:uuid:a4a1daf7-a0b8-42a1-9042-d31be8454df4"
        }
      }
    },
    {
      "fullUrl": "urn:uuid:bd8d3e4b-491a-4967-89ea-9f180d479299",
      "resource": {
        "resourceType": "Observation",
        "id": "bd8d3e4b-491a-4967-89ea-9f180d479299",
        "meta": {
          "profile": [
            "http://hl7.eu/fhir/laboratory/StructureDefinition/Observation-resultslab-eu-lab"
          ]
        },
        "performer": [
          {
            "display": "The Central European Lab"
          }
        ],
        "category": [
          {
            "coding": [
              {
                "system": "http://terminology.hl7.org/CodeSystem/observation-category",
                "code": "laboratory"
              }
            ]
          }
        ],
        "code": {
          "coding": [
            {
              "code": "3094-0",
              "system": "http://loinc.org",
              "display": "Urea nitrogen [Mass/volume] in Serum or Plasma"
            }
          ],
          "text": "Urea nitrogen [Mass/volume] in Serum or Plasma"
        },
        "valueQuantity": {
          "system": "http://unitsofmeasure.org",
          "value": 18.2,
          "unit": "mg/dL",
          "code": "mg/dL"
        },
        "referenceRange": [
          {
            "low": {
              "value": 7,
              "code": "mg/dL",
              "system": "http://unitsofmeasure.org"
            }
          },
          {
            "high": {
              "value": 50,
              "code": "mg/dL",
              "system": "http://unitsofmeasure.org"
            }
          }
        ],
        "text": {
          "status": "generated",
          "div": "<div xmlns=\"http://www.w3.org/1999/xhtml\"><table class=\"hl7__eu__lab__report\"><tr><th>Test</th><th>22-Oct-2024</th><th>Reference&#xA0;Range</th><th>Unit</th></tr><tr><td>Urea nitrogen [Mass/volume] in Serum or Plasma</td><td>18.2</td><td>7 - 50</td><td></td><td>mg/dL</td></tr></table></div>"
        },
        "status": "final",
        "subject": {
          "reference": "urn:uuid:3c697d9e-bcc1-4dec-98de-4202727c252b",
          "display": "Meaghan Neary"
        },
        "effectiveDateTime": "2024-10-21T22:11:04Z",
        "specimen": {
          "reference": "urn:uuid:a4a1daf7-a0b8-42a1-9042-d31be8454df4"
        }
      }
    },
    {
      "fullUrl": "urn:uuid:79d3bc83-a1a3-4b69-9a91-b7166bc2017e",
      "resource": {
        "resourceType": "Observation",
        "id": "79d3bc83-a1a3-4b69-9a91-b7166bc2017e",
        "meta": {
          "profile": [
            "http://hl7.eu/fhir/laboratory/StructureDefinition/Observation-resultslab-eu-lab"
          ]
        },
        "performer": [
          {
            "display": "The Central European Lab"
          }
        ],
        "category": [
          {
            "coding": [
              {
                "system": "http://terminology.hl7.org/CodeSystem/observation-category",
                "code": "laboratory"
              }
            ]
          }
        ],
        "code": {
          "coding": [
            {
              "code": "2160-0",
              "system": "http://loinc.org",
              "display": "Creatinine [Mass/volume] in Serum or Plasma"
            }
          ],
          "text": "Creatinine [Mass/volume] in Serum or Plasma"
        },
        "valueQuantity": {
          "system": "http://unitsofmeasure.org",
          "value": 2,
          "unit": "mg/dL",
          "code": "mg/dL"
        },
        "referenceRange": [
          {
            "low": {
              "value": 0.6,
              "code": "mg/dL",
              "system": "http://unitsofmeasure.org"
            }
          },
          {
            "high": {
              "value": 1.1,
              "code": "mg/dL",
              "system": "http://unitsofmeasure.org"
            }
          }
        ],
        "interpretation": [
          {
            "coding": [
              {
                "code": "H",
                "system": "http://terminology.hl7.org/CodeSystem/v3-ObservationInterpretation",
                "display": "High"
              }
            ]
          }
        ],
        "text": {
          "status": "generated",
          "div": "<div xmlns=\"http://www.w3.org/1999/xhtml\"><table class=\"hl7__eu__lab__report\"><tr><th>Test</th><th>22-Oct-2024</th><th>Reference&#xA0;Range</th><th>Unit</th></tr><tr><td>Creatinine [Mass/volume] in Serum or Plasma</td><td>2.0</td><td>0.6 - 1.1</td><td>H</td><td>mg/dL</td></tr></table></div>"
        },
        "status": "final",
        "subject": {
          "reference": "urn:uuid:3c697d9e-bcc1-4dec-98de-4202727c252b",
          "display": "Meaghan Neary"
        },
        "effectiveDateTime": "2024-10-21T22:11:04Z",
        "specimen": {
          "reference": "urn:uuid:a4a1daf7-a0b8-42a1-9042-d31be8454df4"
        }
      }
    },
    {
      "fullUrl": "urn:uuid:b634f7a1-e659-45d3-a460-ef5b0f913fa8",
      "resource": {
        "resourceType": "Observation",
        "id": "b634f7a1-e659-45d3-a460-ef5b0f913fa8",
        "meta": {
          "profile": [
            "http://hl7.eu/fhir/laboratory/StructureDefinition/Observation-resultslab-eu-lab"
          ]
        },
        "performer": [
          {
            "display": "The Central European Lab"
          }
        ],
        "category": [
          {
            "coding": [
              {
                "system": "http://terminology.hl7.org/CodeSystem/observation-category",
                "code": "laboratory"
              }
            ]
          }
        ],
        "code": {
          "coding": [
            {
              "code": "17861-6",
              "system": "http://loinc.org",
              "display": "Calcium [Mass/volume] in Serum or Plasma"
            }
          ],
          "text": "Calcium [Mass/volume] in Serum or Plasma"
        },
        "valueQuantity": {
          "system": "http://unitsofmeasure.org",
          "value": 9.8,
          "unit": "mg/dL",
          "code": "mg/dL"
        },
        "referenceRange": [
          {
            "low": {
              "value": 8.6,
              "code": "mg/dL",
              "system": "http://unitsofmeasure.org"
            }
          },
          {
            "high": {
              "value": 10.4,
              "code": "mg/dL",
              "system": "http://unitsofmeasure.org"
            }
          }
        ],
        "text": {
          "status": "generated",
          "div": "<div xmlns=\"http://www.w3.org/1999/xhtml\"><table class=\"hl7__eu__lab__report\"><tr><th>Test</th><th>22-Oct-2024</th><th>Reference&#xA0;Range</th><th>Unit</th></tr><tr><td>Calcium [Mass/volume] in Serum or Plasma</td><td>9.8</td><td>8.6 - 10.4</td><td></td><td>mg/dL</td></tr></table></div>"
        },
        "status": "final",
        "subject": {
          "reference": "urn:uuid:3c697d9e-bcc1-4dec-98de-4202727c252b",
          "display": "Meaghan Neary"
        },
        "effectiveDateTime": "2024-10-21T22:11:04Z",
        "specimen": {
          "reference": "urn:uuid:a4a1daf7-a0b8-42a1-9042-d31be8454df4"
        }
      }
    },
    {
      "fullUrl": "urn:uuid:261795dc-e723-4cba-aedc-e58d2fc9a831",
      "resource": {
        "resourceType": "Observation",
        "id": "261795dc-e723-4cba-aedc-e58d2fc9a831",
        "meta": {
          "profile": [
            "http://hl7.eu/fhir/laboratory/StructureDefinition/Observation-resultslab-eu-lab"
          ]
        },
        "performer": [
          {
            "display": "The Central European Lab"
          }
        ],
        "category": [
          {
            "coding": [
              {
                "system": "http://terminology.hl7.org/CodeSystem/observation-category",
                "code": "laboratory"
              }
            ]
          }
        ],
        "code": {
          "coding": [
            {
              "code": "2951-2",
              "system": "http://loinc.org",
              "display": "Sodium [Moles/volume] in Serum or Plasma"
            }
          ],
          "text": "Sodium [Moles/volume] in Serum or Plasma"
        },
        "valueQuantity": {
          "system": "http://unitsofmeasure.org",
          "value": 138.9,
          "unit": "mmol/L",
          "code": "mmol/L"
        },
        "referenceRange": [
          {
            "low": {
              "value": 135,
              "code": "mmol/L",
              "system": "http://unitsofmeasure.org"
            }
          },
          {
            "high": {
              "value": 145,
              "code": "mmol/L",
              "system": "http://unitsofmeasure.org"
            }
          }
        ],
        "text": {
          "status": "generated",
          "div": "<div xmlns=\"http://www.w3.org/1999/xhtml\"><table class=\"hl7__eu__lab__report\"><tr><th>Test</th><th>22-Oct-2024</th><th>Reference&#xA0;Range</th><th>Unit</th></tr><tr><td>Sodium [Moles/volume] in Serum or Plasma</td><td>138.9</td><td>135 - 145</td><td></td><td>mmol/L</td></tr></table></div>"
        },
        "status": "final",
        "subject": {
          "reference": "urn:uuid:3c697d9e-bcc1-4dec-98de-4202727c252b",
          "display": "Meaghan Neary"
        },
        "effectiveDateTime": "2024-10-21T22:11:04Z",
        "specimen": {
          "reference": "urn:uuid:a4a1daf7-a0b8-42a1-9042-d31be8454df4"
        }
      }
    },
    {
      "fullUrl": "urn:uuid:918960e4-aed4-4aa8-9810-b6e2c4ae688b",
      "resource": {
        "resourceType": "Observation",
        "id": "918960e4-aed4-4aa8-9810-b6e2c4ae688b",
        "meta": {
          "profile": [
            "http://hl7.eu/fhir/laboratory/StructureDefinition/Observation-resultslab-eu-lab"
          ]
        },
        "performer": [
          {
            "display": "The Central European Lab"
          }
        ],
        "category": [
          {
            "coding": [
              {
                "system": "http://terminology.hl7.org/CodeSystem/observation-category",
                "code": "laboratory"
              }
            ]
          }
        ],
        "code": {
          "coding": [
            {
              "code": "2823-3",
              "system": "http://loinc.org",
              "display": "Potassium [Moles/volume] in Serum or Plasma"
            }
          ],
          "text": "Potassium [Moles/volume] in Serum or Plasma"
        },
        "valueQuantity": {
          "system": "http://unitsofmeasure.org",
          "value": 5,
          "unit": "mmol/L",
          "code": "mmol/L"
        },
        "referenceRange": [
          {
            "low": {
              "value": 3.5,
              "code": "mmol/L",
              "system": "http://unitsofmeasure.org"
            }
          },
          {
            "high": {
              "value": 5.1,
              "code": "mmol/L",
              "system": "http://unitsofmeasure.org"
            }
          }
        ],
        "text": {
          "status": "generated",
          "div": "<div xmlns=\"http://www.w3.org/1999/xhtml\"><table class=\"hl7__eu__lab__report\"><tr><th>Test</th><th>22-Oct-2024</th><th>Reference&#xA0;Range</th><th>Unit</th></tr><tr><td>Potassium [Moles/volume] in Serum or Plasma</td><td>5.0</td><td>3.5 - 5.1</td><td></td><td>mmol/L</td></tr></table></div>"
        },
        "status": "final",
        "subject": {
          "reference": "urn:uuid:3c697d9e-bcc1-4dec-98de-4202727c252b",
          "display": "Meaghan Neary"
        },
        "effectiveDateTime": "2024-10-21T22:11:04Z",
        "specimen": {
          "reference": "urn:uuid:a4a1daf7-a0b8-42a1-9042-d31be8454df4"
        }
      }
    },
    {
      "fullUrl": "urn:uuid:ef927662-ce78-4fd3-9d1e-0a719d6cf688",
      "resource": {
        "resourceType": "Observation",
        "id": "ef927662-ce78-4fd3-9d1e-0a719d6cf688",
        "meta": {
          "profile": [
            "http://hl7.eu/fhir/laboratory/StructureDefinition/Observation-resultslab-eu-lab"
          ]
        },
        "performer": [
          {
            "display": "The Central European Lab"
          }
        ],
        "category": [
          {
            "coding": [
              {
                "system": "http://terminology.hl7.org/CodeSystem/observation-category",
                "code": "laboratory"
              }
            ]
          }
        ],
        "code": {
          "coding": [
            {
              "code": "2075-0",
              "system": "http://loinc.org",
              "display": "Chloride [Moles/volume] in Serum or Plasma"
            }
          ],
          "text": "Chloride [Moles/volume] in Serum or Plasma"
        },
        "valueQuantity": {
          "system": "http://unitsofmeasure.org",
          "value": 105.8,
          "unit": "mmol/L",
          "code": "mmol/L"
        },
        "referenceRange": [
          {
            "low": {
              "value": 98,
              "code": "mmol/L",
              "system": "http://unitsofmeasure.org"
            }
          },
          {
            "high": {
              "value": 108,
              "code": "mmol/L",
              "system": "http://unitsofmeasure.org"
            }
          }
        ],
        "text": {
          "status": "generated",
          "div": "<div xmlns=\"http://www.w3.org/1999/xhtml\"><table class=\"hl7__eu__lab__report\"><tr><th>Test</th><th>22-Oct-2024</th><th>Reference&#xA0;Range</th><th>Unit</th></tr><tr><td>Chloride [Moles/volume] in Serum or Plasma</td><td>105.8</td><td>98 - 108</td><td></td><td>mmol/L</td></tr></table></div>"
        },
        "status": "final",
        "subject": {
          "reference": "urn:uuid:3c697d9e-bcc1-4dec-98de-4202727c252b",
          "display": "Meaghan Neary"
        },
        "effectiveDateTime": "2024-10-21T22:11:04Z",
        "specimen": {
          "reference": "urn:uuid:a4a1daf7-a0b8-42a1-9042-d31be8454df4"
        }
      }
    },
    {
      "fullUrl": "urn:uuid:63c4b4e6-c381-46fe-816c-e70dd2bc9016",
      "resource": {
        "resourceType": "Observation",
        "id": "63c4b4e6-c381-46fe-816c-e70dd2bc9016",
        "meta": {
          "profile": [
            "http://hl7.eu/fhir/laboratory/StructureDefinition/Observation-resultslab-eu-lab"
          ]
        },
        "performer": [
          {
            "display": "The Central European Lab"
          }
        ],
        "category": [
          {
            "coding": [
              {
                "system": "http://terminology.hl7.org/CodeSystem/observation-category",
                "code": "laboratory"
              }
            ]
          }
        ],
        "code": {
          "coding": [
            {
              "code": "2028-9",
              "system": "http://loinc.org",
              "display": "Carbon dioxide, total [Moles/volume] in Serum or Plasma"
            }
          ],
          "text": "Carbon dioxide, total [Moles/volume] in Serum or Plasma"
        },
        "valueQuantity": {
          "system": "http://unitsofmeasure.org",
          "value": 22.3,
          "unit": "mmol/L",
          "code": "mmol/L"
        },
        "referenceRange": [
          {
            "low": {
              "value": 22,
              "code": "mmol/L",
              "system": "http://unitsofmeasure.org"
            }
          },
          {
            "high": {
              "value": 32,
              "code": "mmol/L",
              "system": "http://unitsofmeasure.org"
            }
          }
        ],
        "text": {
          "status": "generated",
          "div": "<div xmlns=\"http://www.w3.org/1999/xhtml\"><table class=\"hl7__eu__lab__report\"><tr><th>Test</th><th>22-Oct-2024</th><th>Reference&#xA0;Range</th><th>Unit</th></tr><tr><td>Carbon dioxide, total [Moles/volume] in Serum or Plasma</td><td>22.3</td><td>22 - 32</td><td></td><td>mmol/L</td></tr></table></div>"
        },
        "status": "final",
        "subject": {
          "reference": "urn:uuid:3c697d9e-bcc1-4dec-98de-4202727c252b",
          "display": "Meaghan Neary"
        },
        "effectiveDateTime": "2024-10-21T22:11:04Z",
        "specimen": {
          "reference": "urn:uuid:a4a1daf7-a0b8-42a1-9042-d31be8454df4"
        }
      }
    },
    {
      "fullUrl": "urn:uuid:72c23921-f483-4092-bebf-d8737691da6e",
      "resource": {
        "resourceType": "Observation",
        "id": "72c23921-f483-4092-bebf-d8737691da6e",
        "meta": {
          "profile": [
            "http://hl7.eu/fhir/laboratory/StructureDefinition/Observation-resultslab-eu-lab"
          ]
        },
        "performer": [
          {
            "display": "The Central European Lab"
          }
        ],
        "category": [
          {
            "coding": [
              {
                "system": "http://terminology.hl7.org/CodeSystem/observation-category",
                "code": "laboratory"
              }
            ]
          }
        ],
        "code": {
          "coding": [
            {
              "code": "5767-9",
              "system": "http://loinc.org",
              "display": "Appearance of Urine"
            }
          ],
          "text": "Appearance of Urine"
        },
        "text": {
          "status": "generated",
          "div": "<div xmlns=\"http://www.w3.org/1999/xhtml\"><table class=\"hl7__eu__lab__report\"><tr><th>Test</th><th>22-Oct-2024</th><th>Reference&#xA0;Range</th><th>Unit</th></tr><tr><td>Appearance of Urine</td></tr></table></div>"
        },
        "status": "final",
        "subject": {
          "reference": "urn:uuid:3c697d9e-bcc1-4dec-98de-4202727c252b",
          "display": "Meaghan Neary"
        },
        "effectiveDateTime": "2024-10-21T22:11:04Z",
        "specimen": {
          "reference": "urn:uuid:6fc6bd43-eee2-4ee1-98d3-b41bd40e4bfa"
        }
      }
    },
    {
      "fullUrl": "urn:uuid:4199bd38-92c6-4545-bf0c-8130e0ba8f83",
      "resource": {
        "resourceType": "Observation",
        "id": "4199bd38-92c6-4545-bf0c-8130e0ba8f83",
        "meta": {
          "profile": [
            "http://hl7.eu/fhir/laboratory/StructureDefinition/Observation-resultslab-eu-lab"
          ]
        },
        "performer": [
          {
            "display": "The Central European Lab"
          }
        ],
        "category": [
          {
            "coding": [
              {
                "system": "http://terminology.hl7.org/CodeSystem/observation-category",
                "code": "laboratory"
              }
            ]
          }
        ],
        "code": {
          "coding": [
            {
              "code": "34533-0",
              "system": "http://loinc.org",
              "display": "Odor of Urine"
            }
          ],
          "text": "Odor of Urine"
        },
        "text": {
          "status": "generated",
          "div": "<div xmlns=\"http://www.w3.org/1999/xhtml\"><table class=\"hl7__eu__lab__report\"><tr><th>Test</th><th>22-Oct-2024</th><th>Reference&#xA0;Range</th><th>Unit</th></tr><tr><td>Odor of Urine</td></tr></table></div>"
        },
        "status": "final",
        "subject": {
          "reference": "urn:uuid:3c697d9e-bcc1-4dec-98de-4202727c252b",
          "display": "Meaghan Neary"
        },
        "effectiveDateTime": "2024-10-21T22:11:04Z",
        "specimen": {
          "reference": "urn:uuid:6fc6bd43-eee2-4ee1-98d3-b41bd40e4bfa"
        }
      }
    },
    {
      "fullUrl": "urn:uuid:e62ca530-bff9-4849-adde-c42fd87178cb",
      "resource": {
        "resourceType": "Observation",
        "id": "e62ca530-bff9-4849-adde-c42fd87178cb",
        "meta": {
          "profile": [
            "http://hl7.eu/fhir/laboratory/StructureDefinition/Observation-resultslab-eu-lab"
          ]
        },
        "performer": [
          {
            "display": "The Central European Lab"
          }
        ],
        "category": [
          {
            "coding": [
              {
                "system": "http://terminology.hl7.org/CodeSystem/observation-category",
                "code": "laboratory"
              }
            ]
          }
        ],
        "code": {
          "coding": [
            {
              "code": "32167-9",
              "system": "http://loinc.org",
              "display": "Clarity of Urine"
            }
          ],
          "text": "Clarity of Urine"
        },
        "text": {
          "status": "generated",
          "div": "<div xmlns=\"http://www.w3.org/1999/xhtml\"><table class=\"hl7__eu__lab__report\"><tr><th>Test</th><th>22-Oct-2024</th><th>Reference&#xA0;Range</th><th>Unit</th></tr><tr><td>Clarity of Urine</td></tr></table></div>"
        },
        "status": "final",
        "subject": {
          "reference": "urn:uuid:3c697d9e-bcc1-4dec-98de-4202727c252b",
          "display": "Meaghan Neary"
        },
        "effectiveDateTime": "2024-10-21T22:11:04Z",
        "specimen": {
          "reference": "urn:uuid:6fc6bd43-eee2-4ee1-98d3-b41bd40e4bfa"
        }
      }
    },
    {
      "fullUrl": "urn:uuid:49d1a489-ee5c-44d9-93ad-dead8c5c680e",
      "resource": {
        "resourceType": "Observation",
        "id": "49d1a489-ee5c-44d9-93ad-dead8c5c680e",
        "meta": {
          "profile": [
            "http://hl7.eu/fhir/laboratory/StructureDefinition/Observation-resultslab-eu-lab"
          ]
        },
        "performer": [
          {
            "display": "The Central European Lab"
          }
        ],
        "category": [
          {
            "coding": [
              {
                "system": "http://terminology.hl7.org/CodeSystem/observation-category",
                "code": "laboratory"
              }
            ]
          }
        ],
        "code": {
          "coding": [
            {
              "code": "5778-6",
              "system": "http://loinc.org",
              "display": "Color of Urine"
            }
          ],
          "text": "Color of Urine"
        },
        "text": {
          "status": "generated",
          "div": "<div xmlns=\"http://www.w3.org/1999/xhtml\"><table class=\"hl7__eu__lab__report\"><tr><th>Test</th><th>22-Oct-2024</th><th>Reference&#xA0;Range</th><th>Unit</th></tr><tr><td>Color of Urine</td></tr></table></div>"
        },
        "status": "final",
        "subject": {
          "reference": "urn:uuid:3c697d9e-bcc1-4dec-98de-4202727c252b",
          "display": "Meaghan Neary"
        },
        "effectiveDateTime": "2024-10-21T22:11:04Z",
        "specimen": {
          "reference": "urn:uuid:6fc6bd43-eee2-4ee1-98d3-b41bd40e4bfa"
        }
      }
    },
    {
      "fullUrl": "urn:uuid:dbba3565-ba56-42e5-a0c4-093af18b49f3",
      "resource": {
        "resourceType": "Observation",
        "id": "dbba3565-ba56-42e5-a0c4-093af18b49f3",
        "meta": {
          "profile": [
            "http://hl7.eu/fhir/laboratory/StructureDefinition/Observation-resultslab-eu-lab"
          ]
        },
        "performer": [
          {
            "display": "The Central European Lab"
          }
        ],
        "category": [
          {
            "coding": [
              {
                "system": "http://terminology.hl7.org/CodeSystem/observation-category",
                "code": "laboratory"
              }
            ]
          }
        ],
        "code": {
          "coding": [
            {
              "code": "5792-7",
              "system": "http://loinc.org",
              "display": "Glucose [Mass/volume] in Urine by Test strip"
            }
          ],
          "text": "Glucose [Mass/volume] in Urine by Test strip"
        },
        "valueQuantity": {
          "system": "http://unitsofmeasure.org",
          "value": 0.7,
          "unit": "mg/dL",
          "code": "mg/dL"
        },
        "referenceRange": [
          {
            "low": {
              "value": 0.8,
              "code": "mg/dL",
              "system": "http://unitsofmeasure.org"
            }
          },
          {
            "high": {
              "value": 0,
              "code": "mg/dL",
              "system": "http://unitsofmeasure.org"
            }
          }
        ],
        "interpretation": [
          {
            "coding": [
              {
                "code": "L",
                "system": "http://terminology.hl7.org/CodeSystem/v3-ObservationInterpretation",
                "display": "Low"
              }
            ]
          }
        ],
        "text": {
          "status": "generated",
          "div": "<div xmlns=\"http://www.w3.org/1999/xhtml\"><table class=\"hl7__eu__lab__report\"><tr><th>Test</th><th>22-Oct-2024</th><th>Reference&#xA0;Range</th><th>Unit</th></tr><tr><td>Glucose [Mass/volume] in Urine by Test strip</td><td>0.7</td><td>0.8 - 0</td><td>L</td><td>mg/dL</td></tr></table></div>"
        },
        "status": "final",
        "subject": {
          "reference": "urn:uuid:3c697d9e-bcc1-4dec-98de-4202727c252b",
          "display": "Meaghan Neary"
        },
        "effectiveDateTime": "2024-10-21T22:11:04Z",
        "specimen": {
          "reference": "urn:uuid:6fc6bd43-eee2-4ee1-98d3-b41bd40e4bfa"
        }
      }
    },
    {
      "fullUrl": "urn:uuid:c6b16c86-3e27-4e6d-b89c-c4a6562cf0f8",
      "resource": {
        "resourceType": "Observation",
        "id": "c6b16c86-3e27-4e6d-b89c-c4a6562cf0f8",
        "meta": {
          "profile": [
            "http://hl7.eu/fhir/laboratory/StructureDefinition/Observation-resultslab-eu-lab"
          ]
        },
        "performer": [
          {
            "display": "The Central European Lab"
          }
        ],
        "category": [
          {
            "coding": [
              {
                "system": "http://terminology.hl7.org/CodeSystem/observation-category",
                "code": "laboratory"
              }
            ]
          }
        ],
        "code": {
          "coding": [
            {
              "code": "25428-4",
              "system": "http://loinc.org",
              "display": "Glucose [Presence] in Urine by Test strip"
            }
          ],
          "text": "Glucose [Presence] in Urine by Test strip"
        },
        "text": {
          "status": "generated",
          "div": "<div xmlns=\"http://www.w3.org/1999/xhtml\"><table class=\"hl7__eu__lab__report\"><tr><th>Test</th><th>22-Oct-2024</th><th>Reference&#xA0;Range</th><th>Unit</th></tr><tr><td>Glucose [Presence] in Urine by Test strip</td></tr></table></div>"
        },
        "status": "final",
        "subject": {
          "reference": "urn:uuid:3c697d9e-bcc1-4dec-98de-4202727c252b",
          "display": "Meaghan Neary"
        },
        "effectiveDateTime": "2024-10-21T22:11:04Z",
        "specimen": {
          "reference": "urn:uuid:6fc6bd43-eee2-4ee1-98d3-b41bd40e4bfa"
        }
      }
    },
    {
      "fullUrl": "urn:uuid:b3fb5424-a812-4586-9c8b-9287f544f0cd",
      "resource": {
        "resourceType": "Observation",
        "id": "b3fb5424-a812-4586-9c8b-9287f544f0cd",
        "meta": {
          "profile": [
            "http://hl7.eu/fhir/laboratory/StructureDefinition/Observation-resultslab-eu-lab"
          ]
        },
        "performer": [
          {
            "display": "The Central European Lab"
          }
        ],
        "category": [
          {
            "coding": [
              {
                "system": "http://terminology.hl7.org/CodeSystem/observation-category",
                "code": "laboratory"
              }
            ]
          }
        ],
        "code": {
          "coding": [
            {
              "code": "20505-4",
              "system": "http://loinc.org",
              "display": "Bilirubin.total [Mass/volume] in Urine by Test strip"
            }
          ],
          "text": "Bilirubin.total [Mass/volume] in Urine by Test strip"
        },
        "valueQuantity": {
          "system": "http://unitsofmeasure.org",
          "value": 0.5,
          "unit": "mg/dL",
          "code": "mg/dL"
        },
        "referenceRange": [
          {
            "low": {
              "value": 0,
              "code": "mg/dL",
              "system": "http://unitsofmeasure.org"
            }
          },
          {
            "high": {
              "value": 1,
              "code": "mg/dL",
              "system": "http://unitsofmeasure.org"
            }
          }
        ],
        "text": {
          "status": "generated",
          "div": "<div xmlns=\"http://www.w3.org/1999/xhtml\"><table class=\"hl7__eu__lab__report\"><tr><th>Test</th><th>22-Oct-2024</th><th>Reference&#xA0;Range</th><th>Unit</th></tr><tr><td>Bilirubin.total [Mass/volume] in Urine by Test strip</td><td>0.5</td><td>0 - 1</td><td></td><td>mg/dL</td></tr></table></div>"
        },
        "status": "final",
        "subject": {
          "reference": "urn:uuid:3c697d9e-bcc1-4dec-98de-4202727c252b",
          "display": "Meaghan Neary"
        },
        "effectiveDateTime": "2024-10-21T22:11:04Z",
        "specimen": {
          "reference": "urn:uuid:6fc6bd43-eee2-4ee1-98d3-b41bd40e4bfa"
        }
      }
    },
    {
      "fullUrl": "urn:uuid:6b044cad-282a-4d19-a66f-c9a69a733bcc",
      "resource": {
        "resourceType": "Observation",
        "id": "6b044cad-282a-4d19-a66f-c9a69a733bcc",
        "meta": {
          "profile": [
            "http://hl7.eu/fhir/laboratory/StructureDefinition/Observation-resultslab-eu-lab"
          ]
        },
        "performer": [
          {
            "display": "The Central European Lab"
          }
        ],
        "category": [
          {
            "coding": [
              {
                "system": "http://terminology.hl7.org/CodeSystem/observation-category",
                "code": "laboratory"
              }
            ]
          }
        ],
        "code": {
          "coding": [
            {
              "code": "5770-3",
              "system": "http://loinc.org",
              "display": "Bilirubin.total [Presence] in Urine by Test strip"
            }
          ],
          "text": "Bilirubin.total [Presence] in Urine by Test strip"
        },
        "text": {
          "status": "generated",
          "div": "<div xmlns=\"http://www.w3.org/1999/xhtml\"><table class=\"hl7__eu__lab__report\"><tr><th>Test</th><th>22-Oct-2024</th><th>Reference&#xA0;Range</th><th>Unit</th></tr><tr><td>Bilirubin.total [Presence] in Urine by Test strip</td></tr></table></div>"
        },
        "status": "final",
        "subject": {
          "reference": "urn:uuid:3c697d9e-bcc1-4dec-98de-4202727c252b",
          "display": "Meaghan Neary"
        },
        "effectiveDateTime": "2024-10-21T22:11:04Z",
        "specimen": {
          "reference": "urn:uuid:6fc6bd43-eee2-4ee1-98d3-b41bd40e4bfa"
        }
      }
    },
    {
      "fullUrl": "urn:uuid:6c345175-b056-474e-a200-d3e6836f3b81",
      "resource": {
        "resourceType": "Observation",
        "id": "6c345175-b056-474e-a200-d3e6836f3b81",
        "meta": {
          "profile": [
            "http://hl7.eu/fhir/laboratory/StructureDefinition/Observation-resultslab-eu-lab"
          ]
        },
        "performer": [
          {
            "display": "The Central European Lab"
          }
        ],
        "category": [
          {
            "coding": [
              {
                "system": "http://terminology.hl7.org/CodeSystem/observation-category",
                "code": "laboratory"
              }
            ]
          }
        ],
        "code": {
          "coding": [
            {
              "code": "5797-6",
              "system": "http://loinc.org",
              "display": "Ketones [Mass/volume] in Urine by Test strip"
            }
          ],
          "text": "Ketones [Mass/volume] in Urine by Test strip"
        },
        "valueQuantity": {
          "system": "http://unitsofmeasure.org",
          "value": 9.3,
          "unit": "mg/dL",
          "code": "mg/dL"
        },
        "referenceRange": [
          {
            "low": {
              "value": 0,
              "code": "mg/dL",
              "system": "http://unitsofmeasure.org"
            }
          },
          {
            "high": {
              "value": 4,
              "code": "mg/dL",
              "system": "http://unitsofmeasure.org"
            }
          }
        ],
        "interpretation": [
          {
            "coding": [
              {
                "code": "H",
                "system": "http://terminology.hl7.org/CodeSystem/v3-ObservationInterpretation",
                "display": "High"
              }
            ]
          }
        ],
        "text": {
          "status": "generated",
          "div": "<div xmlns=\"http://www.w3.org/1999/xhtml\"><table class=\"hl7__eu__lab__report\"><tr><th>Test</th><th>22-Oct-2024</th><th>Reference&#xA0;Range</th><th>Unit</th></tr><tr><td>Ketones [Mass/volume] in Urine by Test strip</td><td>9.3</td><td>0 - 4</td><td>H</td><td>mg/dL</td></tr></table></div>"
        },
        "status": "final",
        "subject": {
          "reference": "urn:uuid:3c697d9e-bcc1-4dec-98de-4202727c252b",
          "display": "Meaghan Neary"
        },
        "effectiveDateTime": "2024-10-21T22:11:04Z",
        "specimen": {
          "reference": "urn:uuid:6fc6bd43-eee2-4ee1-98d3-b41bd40e4bfa"
        }
      }
    },
    {
      "fullUrl": "urn:uuid:10589038-b212-4b71-b2cb-c0ac209f1097",
      "resource": {
        "resourceType": "Observation",
        "id": "10589038-b212-4b71-b2cb-c0ac209f1097",
        "meta": {
          "profile": [
            "http://hl7.eu/fhir/laboratory/StructureDefinition/Observation-resultslab-eu-lab"
          ]
        },
        "performer": [
          {
            "display": "The Central European Lab"
          }
        ],
        "category": [
          {
            "coding": [
              {
                "system": "http://terminology.hl7.org/CodeSystem/observation-category",
                "code": "laboratory"
              }
            ]
          }
        ],
        "code": {
          "coding": [
            {
              "code": "2514-8",
              "system": "http://loinc.org",
              "display": "Ketones [Presence] in Urine by Test strip"
            }
          ],
          "text": "Ketones [Presence] in Urine by Test strip"
        },
        "text": {
          "status": "generated",
          "div": "<div xmlns=\"http://www.w3.org/1999/xhtml\"><table class=\"hl7__eu__lab__report\"><tr><th>Test</th><th>22-Oct-2024</th><th>Reference&#xA0;Range</th><th>Unit</th></tr><tr><td>Ketones [Presence] in Urine by Test strip</td></tr></table></div>"
        },
        "status": "final",
        "subject": {
          "reference": "urn:uuid:3c697d9e-bcc1-4dec-98de-4202727c252b",
          "display": "Meaghan Neary"
        },
        "effectiveDateTime": "2024-10-21T22:11:04Z",
        "specimen": {
          "reference": "urn:uuid:6fc6bd43-eee2-4ee1-98d3-b41bd40e4bfa"
        }
      }
    },
    {
      "fullUrl": "urn:uuid:d40b96ec-a0de-441d-b125-1dba821b024f",
      "resource": {
        "resourceType": "Observation",
        "id": "d40b96ec-a0de-441d-b125-1dba821b024f",
        "meta": {
          "profile": [
            "http://hl7.eu/fhir/laboratory/StructureDefinition/Observation-resultslab-eu-lab"
          ]
        },
        "performer": [
          {
            "display": "The Central European Lab"
          }
        ],
        "category": [
          {
            "coding": [
              {
                "system": "http://terminology.hl7.org/CodeSystem/observation-category",
                "code": "laboratory"
              }
            ]
          }
        ],
        "code": {
          "coding": [
            {
              "code": "5811-5",
              "system": "http://loinc.org",
              "display": "Specific gravity of Urine by Test strip"
            }
          ],
          "text": "Specific gravity of Urine by Test strip"
        },
        "valueQuantity": {
          "system": "http://unitsofmeasure.org",
          "value": 1,
          "unit": "{nominal}",
          "code": "{nominal}"
        },
        "referenceRange": [
          {
            "low": {
              "value": 1.005,
              "code": "g/mL",
              "system": "http://unitsofmeasure.org"
            }
          },
          {
            "high": {
              "value": 1.03,
              "code": "g/mL",
              "system": "http://unitsofmeasure.org"
            }
          }
        ],
        "interpretation": [
          {
            "coding": [
              {
                "code": "L",
                "system": "http://terminology.hl7.org/CodeSystem/v3-ObservationInterpretation",
                "display": "Low"
              }
            ]
          }
        ],
        "text": {
          "status": "generated",
          "div": "<div xmlns=\"http://www.w3.org/1999/xhtml\"><table class=\"hl7__eu__lab__report\"><tr><th>Test</th><th>22-Oct-2024</th><th>Reference&#xA0;Range</th><th>Unit</th></tr><tr><td>Specific gravity of Urine by Test strip</td><td>1.0</td><td>1.005 - 1.03</td><td>L</td><td>{nominal}</td></tr></table></div>"
        },
        "status": "final",
        "subject": {
          "reference": "urn:uuid:3c697d9e-bcc1-4dec-98de-4202727c252b",
          "display": "Meaghan Neary"
        },
        "effectiveDateTime": "2024-10-21T22:11:04Z",
        "specimen": {
          "reference": "urn:uuid:6fc6bd43-eee2-4ee1-98d3-b41bd40e4bfa"
        }
      }
    },
    {
      "fullUrl": "urn:uuid:87698b4c-9510-45a1-a314-dac6a76510be",
      "resource": {
        "resourceType": "Observation",
        "id": "87698b4c-9510-45a1-a314-dac6a76510be",
        "meta": {
          "profile": [
            "http://hl7.eu/fhir/laboratory/StructureDefinition/Observation-resultslab-eu-lab"
          ]
        },
        "performer": [
          {
            "display": "The Central European Lab"
          }
        ],
        "category": [
          {
            "coding": [
              {
                "system": "http://terminology.hl7.org/CodeSystem/observation-category",
                "code": "laboratory"
              }
            ]
          }
        ],
        "code": {
          "coding": [
            {
              "code": "5803-2",
              "system": "http://loinc.org",
              "display": "pH of Urine by Test strip"
            }
          ],
          "text": "pH of Urine by Test strip"
        },
        "valueQuantity": {
          "system": "http://unitsofmeasure.org",
          "value": 6.8,
          "unit": "pH",
          "code": "pH"
        },
        "referenceRange": [
          {
            "low": {
              "value": 4.6,
              "code": "pH",
              "system": "http://unitsofmeasure.org"
            }
          },
          {
            "high": {
              "value": 7,
              "code": "pH",
              "system": "http://unitsofmeasure.org"
            }
          }
        ],
        "text": {
          "status": "generated",
          "div": "<div xmlns=\"http://www.w3.org/1999/xhtml\"><table class=\"hl7__eu__lab__report\"><tr><th>Test</th><th>22-Oct-2024</th><th>Reference&#xA0;Range</th><th>Unit</th></tr><tr><td>pH of Urine by Test strip</td><td>6.8</td><td>4.6 - 7</td><td></td><td>pH</td></tr></table></div>"
        },
        "status": "final",
        "subject": {
          "reference": "urn:uuid:3c697d9e-bcc1-4dec-98de-4202727c252b",
          "display": "Meaghan Neary"
        },
        "effectiveDateTime": "2024-10-21T22:11:04Z",
        "specimen": {
          "reference": "urn:uuid:6fc6bd43-eee2-4ee1-98d3-b41bd40e4bfa"
        }
      }
    },
    {
      "fullUrl": "urn:uuid:5d8cad21-e819-4f43-b767-7c8d2c407ae5",
      "resource": {
        "resourceType": "Observation",
        "id": "5d8cad21-e819-4f43-b767-7c8d2c407ae5",
        "meta": {
          "profile": [
            "http://hl7.eu/fhir/laboratory/StructureDefinition/Observation-resultslab-eu-lab"
          ]
        },
        "performer": [
          {
            "display": "The Central European Lab"
          }
        ],
        "category": [
          {
            "coding": [
              {
                "system": "http://terminology.hl7.org/CodeSystem/observation-category",
                "code": "laboratory"
              }
            ]
          }
        ],
        "code": {
          "coding": [
            {
              "code": "5804-0",
              "system": "http://loinc.org",
              "display": "Protein [Mass/volume] in Urine by Test strip"
            }
          ],
          "text": "Protein [Mass/volume] in Urine by Test strip"
        },
        "valueQuantity": {
          "system": "http://unitsofmeasure.org",
          "value": 312.6,
          "unit": "mg/dL",
          "code": "mg/dL"
        },
        "referenceRange": [
          {
            "low": {
              "value": 0,
              "code": "mg/dL",
              "system": "http://unitsofmeasure.org"
            }
          },
          {
            "high": {
              "value": 14,
              "code": "mg/dL",
              "system": "http://unitsofmeasure.org"
            }
          }
        ],
        "interpretation": [
          {
            "coding": [
              {
                "code": "H",
                "system": "http://terminology.hl7.org/CodeSystem/v3-ObservationInterpretation",
                "display": "High"
              }
            ]
          }
        ],
        "text": {
          "status": "generated",
          "div": "<div xmlns=\"http://www.w3.org/1999/xhtml\"><table class=\"hl7__eu__lab__report\"><tr><th>Test</th><th>22-Oct-2024</th><th>Reference&#xA0;Range</th><th>Unit</th></tr><tr><td>Protein [Mass/volume] in Urine by Test strip</td><td>312.6</td><td>0 - 14</td><td>H</td><td>mg/dL</td></tr></table></div>"
        },
        "status": "final",
        "subject": {
          "reference": "urn:uuid:3c697d9e-bcc1-4dec-98de-4202727c252b",
          "display": "Meaghan Neary"
        },
        "effectiveDateTime": "2024-10-21T22:11:04Z",
        "specimen": {
          "reference": "urn:uuid:6fc6bd43-eee2-4ee1-98d3-b41bd40e4bfa"
        }
      }
    },
    {
      "fullUrl": "urn:uuid:b600cccf-c8f6-4f6e-ad34-eeb7b0c52be8",
      "resource": {
        "resourceType": "Observation",
        "id": "b600cccf-c8f6-4f6e-ad34-eeb7b0c52be8",
        "meta": {
          "profile": [
            "http://hl7.eu/fhir/laboratory/StructureDefinition/Observation-resultslab-eu-lab"
          ]
        },
        "performer": [
          {
            "display": "The Central European Lab"
          }
        ],
        "category": [
          {
            "coding": [
              {
                "system": "http://terminology.hl7.org/CodeSystem/observation-category",
                "code": "laboratory"
              }
            ]
          }
        ],
        "code": {
          "coding": [
            {
              "code": "20454-5",
              "system": "http://loinc.org",
              "display": "Protein [Presence] in Urine by Test strip"
            }
          ],
          "text": "Protein [Presence] in Urine by Test strip"
        },
        "text": {
          "status": "generated",
          "div": "<div xmlns=\"http://www.w3.org/1999/xhtml\"><table class=\"hl7__eu__lab__report\"><tr><th>Test</th><th>22-Oct-2024</th><th>Reference&#xA0;Range</th><th>Unit</th></tr><tr><td>Protein [Presence] in Urine by Test strip</td></tr></table></div>"
        },
        "status": "final",
        "subject": {
          "reference": "urn:uuid:3c697d9e-bcc1-4dec-98de-4202727c252b",
          "display": "Meaghan Neary"
        },
        "effectiveDateTime": "2024-10-21T22:11:04Z",
        "specimen": {
          "reference": "urn:uuid:6fc6bd43-eee2-4ee1-98d3-b41bd40e4bfa"
        }
      }
    },
    {
      "fullUrl": "urn:uuid:86529ed4-a9d6-4fe6-a3b9-b737c1bafe3d",
      "resource": {
        "resourceType": "Observation",
        "id": "86529ed4-a9d6-4fe6-a3b9-b737c1bafe3d",
        "meta": {
          "profile": [
            "http://hl7.eu/fhir/laboratory/StructureDefinition/Observation-resultslab-eu-lab"
          ]
        },
        "performer": [
          {
            "display": "The Central European Lab"
          }
        ],
        "category": [
          {
            "coding": [
              {
                "system": "http://terminology.hl7.org/CodeSystem/observation-category",
                "code": "laboratory"
              }
            ]
          }
        ],
        "code": {
          "coding": [
            {
              "code": "5802-4",
              "system": "http://loinc.org",
              "display": "Nitrite [Presence] in Urine by Test strip"
            }
          ],
          "text": "Nitrite [Presence] in Urine by Test strip"
        },
        "text": {
          "status": "generated",
          "div": "<div xmlns=\"http://www.w3.org/1999/xhtml\"><table class=\"hl7__eu__lab__report\"><tr><th>Test</th><th>22-Oct-2024</th><th>Reference&#xA0;Range</th><th>Unit</th></tr><tr><td>Nitrite [Presence] in Urine by Test strip</td></tr></table></div>"
        },
        "status": "final",
        "subject": {
          "reference": "urn:uuid:3c697d9e-bcc1-4dec-98de-4202727c252b",
          "display": "Meaghan Neary"
        },
        "effectiveDateTime": "2024-10-21T22:11:04Z",
        "specimen": {
          "reference": "urn:uuid:6fc6bd43-eee2-4ee1-98d3-b41bd40e4bfa"
        }
      }
    },
    {
      "fullUrl": "urn:uuid:6b419e88-b25e-4aee-938a-b9de19a7dd17",
      "resource": {
        "resourceType": "Observation",
        "id": "6b419e88-b25e-4aee-938a-b9de19a7dd17",
        "meta": {
          "profile": [
            "http://hl7.eu/fhir/laboratory/StructureDefinition/Observation-resultslab-eu-lab"
          ]
        },
        "performer": [
          {
            "display": "The Central European Lab"
          }
        ],
        "category": [
          {
            "coding": [
              {
                "system": "http://terminology.hl7.org/CodeSystem/observation-category",
                "code": "laboratory"
              }
            ]
          }
        ],
        "code": {
          "coding": [
            {
              "code": "5794-3",
              "system": "http://loinc.org",
              "display": "Hemoglobin [Presence] in Urine by Test strip"
            }
          ],
          "text": "Hemoglobin [Presence] in Urine by Test strip"
        },
        "text": {
          "status": "generated",
          "div": "<div xmlns=\"http://www.w3.org/1999/xhtml\"><table class=\"hl7__eu__lab__report\"><tr><th>Test</th><th>22-Oct-2024</th><th>Reference&#xA0;Range</th><th>Unit</th></tr><tr><td>Hemoglobin [Presence] in Urine by Test strip</td></tr></table></div>"
        },
        "status": "final",
        "subject": {
          "reference": "urn:uuid:3c697d9e-bcc1-4dec-98de-4202727c252b",
          "display": "Meaghan Neary"
        },
        "effectiveDateTime": "2024-10-21T22:11:04Z",
        "specimen": {
          "reference": "urn:uuid:6fc6bd43-eee2-4ee1-98d3-b41bd40e4bfa"
        }
      }
    },
    {
      "fullUrl": "urn:uuid:f1d93a59-7537-4057-8f9b-c38e36bbf14c",
      "resource": {
        "resourceType": "Observation",
        "id": "f1d93a59-7537-4057-8f9b-c38e36bbf14c",
        "meta": {
          "profile": [
            "http://hl7.eu/fhir/laboratory/StructureDefinition/Observation-resultslab-eu-lab"
          ]
        },
        "performer": [
          {
            "display": "The Central European Lab"
          }
        ],
        "category": [
          {
            "coding": [
              {
                "system": "http://terminology.hl7.org/CodeSystem/observation-category",
                "code": "laboratory"
              }
            ]
          }
        ],
        "code": {
          "coding": [
            {
              "code": "5799-2",
              "system": "http://loinc.org",
              "display": "Leukocyte esterase [Presence] in Urine by Test strip"
            }
          ],
          "text": "Leukocyte esterase [Presence] in Urine by Test strip"
        },
        "text": {
          "status": "generated",
          "div": "<div xmlns=\"http://www.w3.org/1999/xhtml\"><table class=\"hl7__eu__lab__report\"><tr><th>Test</th><th>22-Oct-2024</th><th>Reference&#xA0;Range</th><th>Unit</th></tr><tr><td>Leukocyte esterase [Presence] in Urine by Test strip</td></tr></table></div>"
        },
        "status": "final",
        "subject": {
          "reference": "urn:uuid:3c697d9e-bcc1-4dec-98de-4202727c252b",
          "display": "Meaghan Neary"
        },
        "effectiveDateTime": "2024-10-21T22:11:04Z",
        "specimen": {
          "reference": "urn:uuid:6fc6bd43-eee2-4ee1-98d3-b41bd40e4bfa"
        }
      }
    },
    {
      "fullUrl": "urn:uuid:8ec9159d-56f9-4fe3-8d9a-33e6f28a139e",
      "resource": {
        "resourceType": "Observation",
        "id": "8ec9159d-56f9-4fe3-8d9a-33e6f28a139e",
        "meta": {
          "profile": [
            "http://hl7.eu/fhir/laboratory/StructureDefinition/Observation-resultslab-eu-lab"
          ]
        },
        "performer": [
          {
            "display": "The Central European Lab"
          }
        ],
        "category": [
          {
            "coding": [
              {
                "system": "http://terminology.hl7.org/CodeSystem/observation-category",
                "code": "laboratory"
              }
            ]
          }
        ],
        "code": {
          "coding": [
            {
              "code": "4548-4",
              "system": "http://loinc.org",
              "display": "Hemoglobin A1c/Hemoglobin.total in Blood"
            }
          ],
          "text": "Hemoglobin A1c/Hemoglobin.total in Blood"
        },
        "valueQuantity": {
          "system": "http://unitsofmeasure.org",
          "value": 4,
          "unit": "%",
          "code": "%"
        },
        "referenceRange": [
          {
            "low": {
              "value": 4,
              "code": "%",
              "system": "http://unitsofmeasure.org"
            }
          },
          {
            "high": {
              "value": 6.4,
              "code": "%",
              "system": "http://unitsofmeasure.org"
            }
          }
        ],
        "text": {
          "status": "generated",
          "div": "<div xmlns=\"http://www.w3.org/1999/xhtml\"><table class=\"hl7__eu__lab__report\"><tr><th>Test</th><th>22-Oct-2024</th><th>Reference&#xA0;Range</th><th>Unit</th></tr><tr><td>Hemoglobin A1c/Hemoglobin.total in Blood</td><td>4.0</td><td>4 - 6.4</td><td></td><td>%</td></tr></table></div>"
        },
        "status": "final",
        "subject": {
          "reference": "urn:uuid:3c697d9e-bcc1-4dec-98de-4202727c252b",
          "display": "Meaghan Neary"
        },
        "effectiveDateTime": "2024-10-21T22:11:04Z",
        "specimen": {
          "reference": "urn:uuid:53f758ca-961d-46c7-9247-c0bdf4cdb4c7"
        }
      }
    },
    {
      "fullUrl": "urn:uuid:adaad985-3439-4384-8b41-e9bc35bf98fd",
      "resource": {
        "resourceType": "Observation",
        "id": "adaad985-3439-4384-8b41-e9bc35bf98fd",
        "meta": {
          "profile": [
            "http://hl7.eu/fhir/laboratory/StructureDefinition/Observation-resultslab-eu-lab"
          ]
        },
        "performer": [
          {
            "display": "The Central European Lab"
          }
        ],
        "category": [
          {
            "coding": [
              {
                "system": "http://terminology.hl7.org/CodeSystem/observation-category",
                "code": "laboratory"
              }
            ]
          }
        ],
        "code": {
          "coding": [
            {
              "code": "2339-0",
              "system": "http://loinc.org",
              "display": "Glucose [Mass/volume] in Blood"
            }
          ],
          "text": "Glucose [Mass/volume] in Blood"
        },
        "valueQuantity": {
          "system": "http://unitsofmeasure.org",
          "value": 97.6,
          "unit": "mg/dL",
          "code": "mg/dL"
        },
        "referenceRange": [
          {
            "low": {
              "value": 70,
              "code": "mg/dL",
              "system": "http://unitsofmeasure.org"
            }
          },
          {
            "high": {
              "value": 100,
              "code": "mg/dL",
              "system": "http://unitsofmeasure.org"
            }
          }
        ],
        "text": {
          "status": "generated",
          "div": "<div xmlns=\"http://www.w3.org/1999/xhtml\"><table class=\"hl7__eu__lab__report\"><tr><th>Test</th><th>22-Oct-2024</th><th>Reference&#xA0;Range</th><th>Unit</th></tr><tr><td>Glucose [Mass/volume] in Blood</td><td>97.6</td><td>70 - 100</td><td></td><td>mg/dL</td></tr></table></div>"
        },
        "status": "final",
        "subject": {
          "reference": "urn:uuid:3c697d9e-bcc1-4dec-98de-4202727c252b",
          "display": "Meaghan Neary"
        },
        "effectiveDateTime": "2024-10-21T22:11:04Z",
        "specimen": {
          "reference": "urn:uuid:53f758ca-961d-46c7-9247-c0bdf4cdb4c7"
        }
      }
    },
    {
      "fullUrl": "urn:uuid:b4c7d3bb-72de-4796-8227-5a31c5a6760f",
      "resource": {
        "resourceType": "Observation",
        "id": "b4c7d3bb-72de-4796-8227-5a31c5a6760f",
        "meta": {
          "profile": [
            "http://hl7.eu/fhir/laboratory/StructureDefinition/Observation-resultslab-eu-lab"
          ]
        },
        "performer": [
          {
            "display": "The Central European Lab"
          }
        ],
        "category": [
          {
            "coding": [
              {
                "system": "http://terminology.hl7.org/CodeSystem/observation-category",
                "code": "laboratory"
              }
            ]
          }
        ],
        "code": {
          "coding": [
            {
              "code": "6299-2",
              "system": "http://loinc.org",
              "display": "Urea nitrogen [Mass/volume] in Blood"
            }
          ],
          "text": "Urea nitrogen [Mass/volume] in Blood"
        },
        "valueQuantity": {
          "system": "http://unitsofmeasure.org",
          "value": 18.2,
          "unit": "mg/dL",
          "code": "mg/dL"
        },
        "referenceRange": [
          {
            "low": {
              "value": 7,
              "code": "mg/dL",
              "system": "http://unitsofmeasure.org"
            }
          },
          {
            "high": {
              "value": 43,
              "code": "mg/dL",
              "system": "http://unitsofmeasure.org"
            }
          }
        ],
        "text": {
          "status": "generated",
          "div": "<div xmlns=\"http://www.w3.org/1999/xhtml\"><table class=\"hl7__eu__lab__report\"><tr><th>Test</th><th>22-Oct-2024</th><th>Reference&#xA0;Range</th><th>Unit</th></tr><tr><td>Urea nitrogen [Mass/volume] in Blood</td><td>18.2</td><td>7 - 43</td><td></td><td>mg/dL</td></tr></table></div>"
        },
        "status": "final",
        "subject": {
          "reference": "urn:uuid:3c697d9e-bcc1-4dec-98de-4202727c252b",
          "display": "Meaghan Neary"
        },
        "effectiveDateTime": "2024-10-21T22:11:04Z",
        "specimen": {
          "reference": "urn:uuid:53f758ca-961d-46c7-9247-c0bdf4cdb4c7"
        }
      }
    },
    {
      "fullUrl": "urn:uuid:f7b29418-d30b-4bbf-8209-eea18d6464f7",
      "resource": {
        "resourceType": "Observation",
        "id": "f7b29418-d30b-4bbf-8209-eea18d6464f7",
        "meta": {
          "profile": [
            "http://hl7.eu/fhir/laboratory/StructureDefinition/Observation-resultslab-eu-lab"
          ]
        },
        "performer": [
          {
            "display": "The Central European Lab"
          }
        ],
        "category": [
          {
            "coding": [
              {
                "system": "http://terminology.hl7.org/CodeSystem/observation-category",
                "code": "laboratory"
              }
            ]
          }
        ],
        "code": {
          "coding": [
            {
              "code": "38483-4",
              "system": "http://loinc.org",
              "display": "Creatinine [Mass/volume] in Blood"
            }
          ],
          "text": "Creatinine [Mass/volume] in Blood"
        },
        "valueQuantity": {
          "system": "http://unitsofmeasure.org",
          "value": 3.2,
          "unit": "mg/dL",
          "code": "mg/dL"
        },
        "referenceRange": [
          {
            "low": {
              "value": 0.6,
              "code": "mg/dL",
              "system": "http://unitsofmeasure.org"
            }
          },
          {
            "high": {
              "value": 1.1,
              "code": "mg/dL",
              "system": "http://unitsofmeasure.org"
            }
          }
        ],
        "interpretation": [
          {
            "coding": [
              {
                "code": "H",
                "system": "http://terminology.hl7.org/CodeSystem/v3-ObservationInterpretation",
                "display": "High"
              }
            ]
          }
        ],
        "text": {
          "status": "generated",
          "div": "<div xmlns=\"http://www.w3.org/1999/xhtml\"><table class=\"hl7__eu__lab__report\"><tr><th>Test</th><th>22-Oct-2024</th><th>Reference&#xA0;Range</th><th>Unit</th></tr><tr><td>Creatinine [Mass/volume] in Blood</td><td>3.2</td><td>0.6 - 1.1</td><td>H</td><td>mg/dL</td></tr></table></div>"
        },
        "status": "final",
        "subject": {
          "reference": "urn:uuid:3c697d9e-bcc1-4dec-98de-4202727c252b",
          "display": "Meaghan Neary"
        },
        "effectiveDateTime": "2024-10-21T22:11:04Z",
        "specimen": {
          "reference": "urn:uuid:53f758ca-961d-46c7-9247-c0bdf4cdb4c7"
        }
      }
    },
    {
      "fullUrl": "urn:uuid:caacb0fb-8a3f-4c7b-a518-a0800ca48788",
      "resource": {
        "resourceType": "Observation",
        "id": "caacb0fb-8a3f-4c7b-a518-a0800ca48788",
        "meta": {
          "profile": [
            "http://hl7.eu/fhir/laboratory/StructureDefinition/Observation-resultslab-eu-lab"
          ]
        },
        "performer": [
          {
            "display": "The Central European Lab"
          }
        ],
        "category": [
          {
            "coding": [
              {
                "system": "http://terminology.hl7.org/CodeSystem/observation-category",
                "code": "laboratory"
              }
            ]
          }
        ],
        "code": {
          "coding": [
            {
              "code": "49765-1",
              "system": "http://loinc.org",
              "display": "Calcium [Mass/volume] in Blood"
            }
          ],
          "text": "Calcium [Mass/volume] in Blood"
        },
        "valueQuantity": {
          "system": "http://unitsofmeasure.org",
          "value": 9.8,
          "unit": "mg/dL",
          "code": "mg/dL"
        },
        "referenceRange": [
          {
            "low": {
              "value": 8.5,
              "code": "mg/dL",
              "system": "http://unitsofmeasure.org"
            }
          },
          {
            "high": {
              "value": 10.5,
              "code": "mg/dL",
              "system": "http://unitsofmeasure.org"
            }
          }
        ],
        "text": {
          "status": "generated",
          "div": "<div xmlns=\"http://www.w3.org/1999/xhtml\"><table class=\"hl7__eu__lab__report\"><tr><th>Test</th><th>22-Oct-2024</th><th>Reference&#xA0;Range</th><th>Unit</th></tr><tr><td>Calcium [Mass/volume] in Blood</td><td>9.8</td><td>8.5 - 10.5</td><td></td><td>mg/dL</td></tr></table></div>"
        },
        "status": "final",
        "subject": {
          "reference": "urn:uuid:3c697d9e-bcc1-4dec-98de-4202727c252b",
          "display": "Meaghan Neary"
        },
        "effectiveDateTime": "2024-10-21T22:11:04Z",
        "specimen": {
          "reference": "urn:uuid:53f758ca-961d-46c7-9247-c0bdf4cdb4c7"
        }
      }
    },
    {
      "fullUrl": "urn:uuid:c1c4e628-39b9-442a-a68b-612c655a56a1",
      "resource": {
        "resourceType": "Observation",
        "id": "c1c4e628-39b9-442a-a68b-612c655a56a1",
        "meta": {
          "profile": [
            "http://hl7.eu/fhir/laboratory/StructureDefinition/Observation-resultslab-eu-lab"
          ]
        },
        "performer": [
          {
            "display": "The Central European Lab"
          }
        ],
        "category": [
          {
            "coding": [
              {
                "system": "http://terminology.hl7.org/CodeSystem/observation-category",
                "code": "laboratory"
              }
            ]
          }
        ],
        "code": {
          "coding": [
            {
              "code": "2947-0",
              "system": "http://loinc.org",
              "display": "Sodium [Moles/volume] in Blood"
            }
          ],
          "text": "Sodium [Moles/volume] in Blood"
        },
        "valueQuantity": {
          "system": "http://unitsofmeasure.org",
          "value": 138.9,
          "unit": "mmol/L",
          "code": "mmol/L"
        },
        "referenceRange": [
          {
            "low": {
              "value": 135,
              "code": "mmol/L",
              "system": "http://unitsofmeasure.org"
            }
          },
          {
            "high": {
              "value": 145,
              "code": "mmol/L",
              "system": "http://unitsofmeasure.org"
            }
          }
        ],
        "text": {
          "status": "generated",
          "div": "<div xmlns=\"http://www.w3.org/1999/xhtml\"><table class=\"hl7__eu__lab__report\"><tr><th>Test</th><th>22-Oct-2024</th><th>Reference&#xA0;Range</th><th>Unit</th></tr><tr><td>Sodium [Moles/volume] in Blood</td><td>138.9</td><td>135 - 145</td><td></td><td>mmol/L</td></tr></table></div>"
        },
        "status": "final",
        "subject": {
          "reference": "urn:uuid:3c697d9e-bcc1-4dec-98de-4202727c252b",
          "display": "Meaghan Neary"
        },
        "effectiveDateTime": "2024-10-21T22:11:04Z",
        "specimen": {
          "reference": "urn:uuid:53f758ca-961d-46c7-9247-c0bdf4cdb4c7"
        }
      }
    },
    {
      "fullUrl": "urn:uuid:32bbe4cb-105b-40c1-83b0-3d692b37400b",
      "resource": {
        "resourceType": "Observation",
        "id": "32bbe4cb-105b-40c1-83b0-3d692b37400b",
        "meta": {
          "profile": [
            "http://hl7.eu/fhir/laboratory/StructureDefinition/Observation-resultslab-eu-lab"
          ]
        },
        "performer": [
          {
            "display": "The Central European Lab"
          }
        ],
        "category": [
          {
            "coding": [
              {
                "system": "http://terminology.hl7.org/CodeSystem/observation-category",
                "code": "laboratory"
              }
            ]
          }
        ],
        "code": {
          "coding": [
            {
              "code": "6298-4",
              "system": "http://loinc.org",
              "display": "Potassium [Moles/volume] in Blood"
            }
          ],
          "text": "Potassium [Moles/volume] in Blood"
        },
        "valueQuantity": {
          "system": "http://unitsofmeasure.org",
          "value": 5,
          "unit": "mmol/L",
          "code": "mmol/L"
        },
        "referenceRange": [
          {
            "low": {
              "value": 3.5,
              "code": "mmol/L",
              "system": "http://unitsofmeasure.org"
            }
          },
          {
            "high": {
              "value": 5.1,
              "code": "mmol/L",
              "system": "http://unitsofmeasure.org"
            }
          }
        ],
        "text": {
          "status": "generated",
          "div": "<div xmlns=\"http://www.w3.org/1999/xhtml\"><table class=\"hl7__eu__lab__report\"><tr><th>Test</th><th>22-Oct-2024</th><th>Reference&#xA0;Range</th><th>Unit</th></tr><tr><td>Potassium [Moles/volume] in Blood</td><td>5.0</td><td>3.5 - 5.1</td><td></td><td>mmol/L</td></tr></table></div>"
        },
        "status": "final",
        "subject": {
          "reference": "urn:uuid:3c697d9e-bcc1-4dec-98de-4202727c252b",
          "display": "Meaghan Neary"
        },
        "effectiveDateTime": "2024-10-21T22:11:04Z",
        "specimen": {
          "reference": "urn:uuid:53f758ca-961d-46c7-9247-c0bdf4cdb4c7"
        }
      }
    },
    {
      "fullUrl": "urn:uuid:e9046a3f-ba13-4491-990c-fd83343daaa4",
      "resource": {
        "resourceType": "Observation",
        "id": "e9046a3f-ba13-4491-990c-fd83343daaa4",
        "meta": {
          "profile": [
            "http://hl7.eu/fhir/laboratory/StructureDefinition/Observation-resultslab-eu-lab"
          ]
        },
        "performer": [
          {
            "display": "The Central European Lab"
          }
        ],
        "category": [
          {
            "coding": [
              {
                "system": "http://terminology.hl7.org/CodeSystem/observation-category",
                "code": "laboratory"
              }
            ]
          }
        ],
        "code": {
          "coding": [
            {
              "code": "2069-3",
              "system": "http://loinc.org",
              "display": "Chloride [Moles/volume] in Blood"
            }
          ],
          "text": "Chloride [Moles/volume] in Blood"
        },
        "valueQuantity": {
          "system": "http://unitsofmeasure.org",
          "value": 105.8,
          "unit": "mmol/L",
          "code": "mmol/L"
        },
        "referenceRange": [
          {
            "low": {
              "value": 98,
              "code": "mmol/L",
              "system": "http://unitsofmeasure.org"
            }
          },
          {
            "high": {
              "value": 108,
              "code": "mmol/L",
              "system": "http://unitsofmeasure.org"
            }
          }
        ],
        "text": {
          "status": "generated",
          "div": "<div xmlns=\"http://www.w3.org/1999/xhtml\"><table class=\"hl7__eu__lab__report\"><tr><th>Test</th><th>22-Oct-2024</th><th>Reference&#xA0;Range</th><th>Unit</th></tr><tr><td>Chloride [Moles/volume] in Blood</td><td>105.8</td><td>98 - 108</td><td></td><td>mmol/L</td></tr></table></div>"
        },
        "status": "final",
        "subject": {
          "reference": "urn:uuid:3c697d9e-bcc1-4dec-98de-4202727c252b",
          "display": "Meaghan Neary"
        },
        "effectiveDateTime": "2024-10-21T22:11:04Z",
        "specimen": {
          "reference": "urn:uuid:53f758ca-961d-46c7-9247-c0bdf4cdb4c7"
        }
      }
    },
    {
      "fullUrl": "urn:uuid:89b35dc7-7bea-4995-b23a-f9cd8b72add9",
      "resource": {
        "resourceType": "Observation",
        "id": "89b35dc7-7bea-4995-b23a-f9cd8b72add9",
        "meta": {
          "profile": [
            "http://hl7.eu/fhir/laboratory/StructureDefinition/Observation-resultslab-eu-lab"
          ]
        },
        "performer": [
          {
            "display": "The Central European Lab"
          }
        ],
        "category": [
          {
            "coding": [
              {
                "system": "http://terminology.hl7.org/CodeSystem/observation-category",
                "code": "laboratory"
              }
            ]
          }
        ],
        "code": {
          "coding": [
            {
              "code": "20565-8",
              "system": "http://loinc.org",
              "display": "Carbon dioxide, total [Moles/volume] in Blood"
            }
          ],
          "text": "Carbon dioxide, total [Moles/volume] in Blood"
        },
        "valueQuantity": {
          "system": "http://unitsofmeasure.org",
          "value": 22.3,
          "unit": "mmol/L",
          "code": "mmol/L"
        },
        "referenceRange": [
          {
            "low": {
              "value": 22,
              "code": "mmol/L",
              "system": "http://unitsofmeasure.org"
            }
          },
          {
            "high": {
              "value": 29,
              "code": "mmol/L",
              "system": "http://unitsofmeasure.org"
            }
          }
        ],
        "text": {
          "status": "generated",
          "div": "<div xmlns=\"http://www.w3.org/1999/xhtml\"><table class=\"hl7__eu__lab__report\"><tr><th>Test</th><th>22-Oct-2024</th><th>Reference&#xA0;Range</th><th>Unit</th></tr><tr><td>Carbon dioxide, total [Moles/volume] in Blood</td><td>22.3</td><td>22 - 29</td><td></td><td>mmol/L</td></tr></table></div>"
        },
        "status": "final",
        "subject": {
          "reference": "urn:uuid:3c697d9e-bcc1-4dec-98de-4202727c252b",
          "display": "Meaghan Neary"
        },
        "effectiveDateTime": "2024-10-21T22:11:04Z",
        "specimen": {
          "reference": "urn:uuid:53f758ca-961d-46c7-9247-c0bdf4cdb4c7"
        }
      }
    },
    {
      "fullUrl": "urn:uuid:0157876c-2c93-4123-9015-b751c664c136",
      "resource": {
        "resourceType": "Device",
        "id": "0157876c-2c93-4123-9015-b751c664c136",
        "deviceName": [
          {
            "name": "SYNDERAI Synthetic Generator",
            "type": "manufacturer-name"
          }
        ],
        "version": [
          {
            "value": "5.0"
          }
        ],
        "text": {
          "status": "generated",
          "div": "<div xmlns=\"http://www.w3.org/1999/xhtml\">SYNDERAI Synthetic Generator v5.0</div>"
        },
        "status": "active\"",
        "distinctIdentifier": "synderai-generator-50",
        "manufacturer": "SYNDERAI Project"
      }
    },
    {
      "fullUrl": "urn:uuid:cae3bf18-26f2-403e-85b8-c6f314ed6236",
      "resource": {
        "resourceType": "Provenance",
        "id": "cae3bf18-26f2-403e-85b8-c6f314ed6236",
        "target": [
          {
            "reference": "Patient/3c697d9e-bcc1-4dec-98de-4202727c252b"
          },
          {
            "reference": "Bundle/931fb8ae-59d2-4ad1-82b2-a6a7b3bd7b6f"
          },
          {
            "reference": "Composition/b2fc13dc-e27a-4fa4-8b19-1645007781d3"
          },
          {
            "reference": "PractitionerRole/5549a9a7-3fd9-407a-b84f-7023fe09bed9"
          },
          {
            "reference": "Practitioner/7206b724-0979-4f5a-ae6b-910081a2360c"
          },
          {
            "reference": "PractitionerRole/7f7ca2b7-89d9-465a-bb2f-bdb083cb1e15"
          },
          {
            "reference": "Organization/8cab3245-492f-4e15-9902-b764a33ab097"
          }
        ],
        "activity": {
          "text": "Synthetic Example Data Generation"
        },
        "policy": [
          "https://synderai.net/synderai-synthetic-data-policy"
        ],
        "agent": [
          {
            "type": {
              "text": "author"
            },
            "who": {
              "reference": "Device/0157876c-2c93-4123-9015-b751c664c136"
            }
          }
        ],
        "reason": [
          {
            "text": "Interoperability Testing and Training (non-clinical use)"
          }
        ],
        "text": {
          "status": "generated",
          "div": "<div xmlns=\"http://www.w3.org/1999/xhtml\">Provenance for SYNDERAI Synthetic Example Data Resource</div>"
        },
        "recorded": "2024-10-22T00:11:04Z"
      }
    },
    {
      "fullUrl": "urn:uuid:5549a9a7-3fd9-407a-b84f-7023fe09bed9",
      "resource": {
        "resourceType": "PractitionerRole",
        "id": "5549a9a7-3fd9-407a-b84f-7023fe09bed9",
        "meta": {
          "profile": [
            "http://hl7.eu/fhir/base/StructureDefinition/practitionerRole-eu"
          ]
        },
        "text": {
          "status": "generated",
          "div": "<div xmlns=\"http://www.w3.org/1999/xhtml\">Laboratory Role Id: 5549a9a7-3fd9-407a-b84f-7023fe09bed9</div>"
        },
        "practitioner": {
          "reference": "urn:uuid:7206b724-0979-4f5a-ae6b-910081a2360c"
        }
      }
    },
    {
      "fullUrl": "urn:uuid:7206b724-0979-4f5a-ae6b-910081a2360c",
      "resource": {
        "resourceType": "Practitioner",
        "id": "7206b724-0979-4f5a-ae6b-910081a2360c",
        "meta": {
          "profile": [
            "http://hl7.eu/fhir/base/StructureDefinition/practitioner-eu"
          ]
        },
        "identifier": [
          {
            "assigner": {
              "display": "HL7 Europe"
            },
            "system": "urn:oid:2.16.840.1.113883.2.51.999",
            "value": "2bb94e16-67a9-405c-8b89-b58d21208812"
          }
        ],
        "name": [
          {
            "prefix": [
              "dr"
            ],
            "given": [
              "Ex"
            ],
            "family": "Ample"
          }
        ],
        "address": [
          {
            "line": [
              "Laboratoire Central Européenne",
              "Boulevard du Jardin Botanique 32"
            ],
            "postalCode": "1000",
            "city": "Brussels",
            "country": "Belgium"
          }
        ],
        "text": {
          "status": "generated",
          "div": "<div xmlns=\"http://www.w3.org/1999/xhtml\">Laboratory: Laboratoire Central Européenne, 1000 Brussels, Belgium</div>"
        }
      }
    }
  ],
  "type": "document",
  "timestamp": "2024-10-22T00:11:04Z"
}
