{
  "resourceType": "Bundle",
  "id": "34983b81-71c6-47e8-bd0e-d9241503303a",
  "meta": {
    "profile": [
      "http://hl7.eu/fhir/laboratory/StructureDefinition/Bundle-eu-lab"
    ]
  },
  "identifier": {
    "assigner": {
      "display": "HL7 Europe"
    },
    "system": "urn:oid:2.16.840.1.113883.2.51.999",
    "value": "cce62ad5-b9ba-4286-8f01-5684cc170878"
  },
  "entry": [
    {
      "fullUrl": "urn:uuid:4c890a35-048c-4500-b8ca-2dc166516347",
      "resource": {
        "resourceType": "Composition",
        "id": "4c890a35-048c-4500-b8ca-2dc166516347",
        "meta": {
          "profile": [
            "http://hl7.eu/fhir/laboratory/StructureDefinition/Composition-eu-lab"
          ]
        },
        "identifier": {
          "assigner": {
            "display": "HL7 Europe"
          },
          "system": "urn:oid:2.16.840.1.113883.2.51.999",
          "value": "a92d35df-dc53-43a1-996a-81f2f6e4854a"
        },
        "author": [
          {
            "reference": "urn:uuid:de24c20a-d804-4d30-9306-795949d26bd0"
          }
        ],
        "category": [
          {
            "coding": [
              {
                "code": "26436-6",
                "system": "http://loinc.org",
                "display": "Laboratory studies (set)"
              }
            ]
          }
        ],
        "type": {
          "coding": [
            {
              "code": "11502-2",
              "system": "http://loinc.org",
              "display": "Laboratory report"
            }
          ],
          "text": "Laboratory Report"
        },
        "section": [
          {
            "code": {
              "coding": [
                {
                  "code": "26436-6",
                  "system": "http://loinc.org",
                  "display": "Laboratory studies (set)"
                }
              ],
              "text": "Laboratory studies"
            },
            "section": [
              {
                "code": {
                  "coding": [
                    {
                      "code": "$18719-5",
                      "system": "http://loinc.org",
                      "display": "Chemistry studies (set)"
                    }
                  ],
                  "text": "Chemistry"
                },
                "entry": [
                  {
                    "reference": "urn:uuid:b857701c-9360-46d4-bf6c-b09fd3ada713"
                  },
                  {
                    "reference": "urn:uuid:ea23a408-c1a6-41e5-8c83-8da3df2c48ea"
                  },
                  {
                    "reference": "urn:uuid:f31dd86a-5a9c-4ba2-b4ec-5dc7292670a0"
                  },
                  {
                    "reference": "urn:uuid:2e53d790-6378-48bb-891f-9766dc81e9f2"
                  },
                  {
                    "reference": "urn:uuid:36e6b9d9-2be0-4156-af3d-b72b6bb85a99"
                  },
                  {
                    "reference": "urn:uuid:a5d33e4b-c504-4d57-8a49-feb7e2fed39a"
                  },
                  {
                    "reference": "urn:uuid:ae445e38-0cff-475e-94e5-c9c03a5eb26e"
                  },
                  {
                    "reference": "urn:uuid:3864c3de-b3c1-4046-bff2-aab51edf9a45"
                  },
                  {
                    "reference": "urn:uuid:73f5b9c5-a516-4be2-94de-e288ce2d0359"
                  },
                  {
                    "reference": "urn:uuid:7051415d-5371-435a-beec-5e7c6beb61db"
                  },
                  {
                    "reference": "urn:uuid:7b65a935-203d-4dd8-8be4-fa8a67282fbf"
                  },
                  {
                    "reference": "urn:uuid:3ad6a613-bf23-44ed-8957-34f6de26180f"
                  },
                  {
                    "reference": "urn:uuid:8687cce1-c2be-4fb3-bd34-3633abd884d8"
                  }
                ],
                "text": {
                  "status": "generated",
                  "div": "<div xmlns=\"http://www.w3.org/1999/xhtml\"><h3>Chemistry</h3><table class=\"hl7__eu__lab__report\"><thead><tr><th>Test</th><th>06-NOV-2021</th><th>Reference&#xA0;Range</th><th>Unit</th></tr></thead><tbody><tr><td>Hemoglobin A1c/Hemoglobin.total in Blood</td><td>6.0</td><td>4.5 - 6.4</td><td>%</td></tr><tr><td>Glucose [Mass/volume] in Blood</td><td>87.7</td><td>70 - 140</td><td>mg/dL</td></tr><tr><td>Urea nitrogen [Mass/volume] in Blood</td><td>19.5</td><td>7 - 25</td><td>mg/dL</td></tr><tr><td>Creatinine [Mass/volume] in Blood</td><td><strong>0.5 L</strong></td><td>0.6 - 1.1</td><td>mg/dL</td></tr><tr><td>Calcium [Mass/volume] in Blood</td><td>8.6</td><td>8.6 - 10.4</td><td>mg/dL</td></tr><tr><td>Sodium [Moles/volume] in Blood</td><td>143.1</td><td>135 - 145</td><td>mmol/L</td></tr><tr><td>Potassium [Moles/volume] in Blood</td><td>4.9</td><td>3.5 - 5.3</td><td>mmol/L</td></tr><tr><td>Chloride [Moles/volume] in Blood</td><td><strong>110.0 H</strong></td><td>98 - 108</td><td>mmol/L</td></tr><tr><td>Carbon dioxide, total [Moles/volume] in Blood</td><td>24.3</td><td>22 - 32</td><td>mmol/L</td></tr><tr><td>Cholesterol [Mass/volume] in Serum or Plasma</td><td>133.0</td><td>125 - 200</td><td>mg/dL</td></tr><tr><td>Triglyceride [Mass/volume] in Serum or Plasma</td><td>105.5</td><td>10 - 175</td><td>mg/dL</td></tr><tr><td>Cholesterol in LDL [Mass/volume] in Serum or Plasma by Direct assay</td><td>56.9</td><td>0 - 130</td><td>mg/dL</td></tr><tr><td>Cholesterol in HDL [Mass/volume] in Serum or Plasma</td><td>55.0</td><td>50 - 100</td><td>mg/dL</td></tr></tbody></table></div>"
                },
                "title": "Chemistry"
              }
            ],
            "title": "Laboratory Report"
          },
          {
            "text": {
              "status": "generated",
              "div": "<div xmlns=\"http://www.w3.org/1999/xhtml\"><h3>Annotation</h3><table class=\"hl7__eu__lab__report\"><tr><th>Conclusion and Recommendations based on this report and previous findings known to us</th></tr><tr><td>Laboratory results are generally within normal limits. There is a mildly low creatinine, likely reflecting reduced muscle mass in this elderly patient, and a slightly elevated chloride, which may be clinically insignificant if the patient is asymptomatic. Glucose control and lipid profile are good. No acute abnormalities detected. Recommend clinical correlation.</td></tr></table></div>"
            },
            "code": {
              "coding": [
                {
                  "system": "http://loinc.org",
                  "code": "48767-8",
                  "display": "Annotation comment"
                }
              ]
            },
            "title": "Annotation comment"
          }
        ],
        "status": "final",
        "subject": {
          "reference": "urn:uuid:5412b4b2-c268-466f-89a9-9ffdc569cbeb",
          "display": "Helene Andresen"
        },
        "date": "2021-11-06T23:53:36Z",
        "title": "Laboratory Report",
        "confidentiality": "N"
      }
    },
    {
      "fullUrl": "urn:uuid:46c10f9a-5c08-4cf3-bab2-dddc86204306",
      "resource": {
        "resourceType": "DiagnosticReport",
        "id": "46c10f9a-5c08-4cf3-bab2-dddc86204306",
        "meta": {
          "profile": [
            "http://hl7.eu/fhir/laboratory/StructureDefinition/DiagnosticReport-eu-lab"
          ]
        },
        "identifier": [
          {
            "assigner": {
              "display": "HL7 Europe"
            },
            "system": "urn:oid:2.16.840.1.113883.2.51.999",
            "value": "68657310-b2bf-4dab-9341-916b315d8dbb"
          }
        ],
        "extension": [
          {
            "url": "http://hl7.org/fhir/5.0/StructureDefinition/extension-DiagnosticReport.composition",
            "valueReference": {
              "reference": "urn:uuid:a92d35df-dc53-43a1-996a-81f2f6e4854a"
            }
          }
        ],
        "category": [
          {
            "coding": [
              {
                "code": "26436-6",
                "system": "http://loinc.org",
                "display": "Laboratory studies (set)"
              }
            ]
          }
        ],
        "specimen": [
          {
            "reference": "urn:uuid:68319056-abec-480a-b472-5e7519ed1a34"
          },
          {
            "reference": "urn:uuid:b0f169f6-707b-4ba1-85e0-5e5d41e85ff3"
          }
        ],
        "result": [
          {
            "reference": "urn:uuid:b857701c-9360-46d4-bf6c-b09fd3ada713"
          },
          {
            "reference": "urn:uuid:ea23a408-c1a6-41e5-8c83-8da3df2c48ea"
          },
          {
            "reference": "urn:uuid:f31dd86a-5a9c-4ba2-b4ec-5dc7292670a0"
          },
          {
            "reference": "urn:uuid:2e53d790-6378-48bb-891f-9766dc81e9f2"
          },
          {
            "reference": "urn:uuid:36e6b9d9-2be0-4156-af3d-b72b6bb85a99"
          },
          {
            "reference": "urn:uuid:a5d33e4b-c504-4d57-8a49-feb7e2fed39a"
          },
          {
            "reference": "urn:uuid:ae445e38-0cff-475e-94e5-c9c03a5eb26e"
          },
          {
            "reference": "urn:uuid:3864c3de-b3c1-4046-bff2-aab51edf9a45"
          },
          {
            "reference": "urn:uuid:73f5b9c5-a516-4be2-94de-e288ce2d0359"
          },
          {
            "reference": "urn:uuid:7051415d-5371-435a-beec-5e7c6beb61db"
          },
          {
            "reference": "urn:uuid:7b65a935-203d-4dd8-8be4-fa8a67282fbf"
          },
          {
            "reference": "urn:uuid:3ad6a613-bf23-44ed-8957-34f6de26180f"
          },
          {
            "reference": "urn:uuid:8687cce1-c2be-4fb3-bd34-3633abd884d8"
          }
        ],
        "status": "registered",
        "code": {
          "coding": [
            {
              "code": "11502-2",
              "system": "http://loinc.org",
              "display": "Laboratory report"
            }
          ]
        },
        "subject": {
          "reference": "urn:uuid:5412b4b2-c268-466f-89a9-9ffdc569cbeb",
          "display": "Helene Andresen"
        }
      }
    },
    {
      "fullUrl": "urn:uuid:5412b4b2-c268-466f-89a9-9ffdc569cbeb",
      "resource": {
        "resourceType": "Patient",
        "id": "5412b4b2-c268-466f-89a9-9ffdc569cbeb",
        "meta": {
          "security": [
            {
              "system": "http://terminology.hl7.org/CodeSystem/v3-ActReason",
              "code": "HTEST"
            },
            {
              "system": "http://terminology.hl7.org/CodeSystem/v3-ActReason",
              "code": "TRAIN"
            }
          ],
          "tag": [
            {
              "system": "https://synderai.net/fhir/CodeSystem/tags",
              "code": "synthetic",
              "display": "SYNDERAI Synthetic data"
            }
          ],
          "profile": [
            "http://hl7.eu/fhir/base/StructureDefinition/patient-eu-core"
          ]
        },
        "identifier": [
          {
            "type": {
              "coding": [
                {
                  "code": "PT",
                  "system": "http://terminology.hl7.org/CodeSystem/v2-0203"
                }
              ]
            },
            "system": "http://ec.europa.eu/identifier/eci",
            "value": "3450-170343-2"
          },
          {
            "type": {
              "coding": [
                {
                  "code": "MR",
                  "system": "http://terminology.hl7.org/CodeSystem/v2-0203"
                }
              ]
            },
            "system": "http://local.setting.eu/identifier",
            "value": "72e91c9c-0b01-42b0-a6a0-6dcc70aeec49"
          }
        ],
        "name": [
          {
            "family": "Andresen"
          },
          {
            "given": [
              "Helene"
            ]
          },
          {
            "text": "Helene Andresen"
          }
        ],
        "address": [
          {
            "line": [
              "Kristiansenberget 2"
            ],
            "use": "home",
            "type": "physical",
            "postalCode": "0172",
            "city": "Sørensen",
            "country": "Norway"
          }
        ],
        "telecom": [
          {
            "system": "phone",
            "value": "53 98 86 24"
          }
        ],
        "extension": [
          {
            "url": "http://hl7.org/fhir/StructureDefinition/patient-nationality",
            "valueCodeableConcept": {
              "coding": [
                {
                  "code": "NO",
                  "system": "http://hl7.org/fhir/ValueSet/country"
                }
              ]
            }
          }
        ],
        "text": {
          "status": "generated",
          "div": "<div xmlns=\"http://www.w3.org/1999/xhtml\"><table class=\"hl7__ips\"><tr><td>Helene Andresen</td><td>female</td><td>17-Oct-1939</td></tr></table></div>"
        },
        "gender": "female",
        "birthDate": "1939-10-17"
      }
    },
    {
      "fullUrl": "urn:uuid:2bef2384-c8d2-4793-9bfc-489d68cfd3b0",
      "resource": {
        "resourceType": "ServiceRequest",
        "id": "2bef2384-c8d2-4793-9bfc-489d68cfd3b0",
        "meta": {
          "profile": [
            "http://hl7.eu/fhir/laboratory/StructureDefinition/ServiceRequest-eu-lab"
          ]
        },
        "identifier": [
          {
            "system": "http://example.org",
            "value": "399a8f9c-4364-417c-9669-c07f47c0e5b4"
          }
        ],
        "specimen": [
          {
            "reference": "urn:uuid:68319056-abec-480a-b472-5e7519ed1a34"
          },
          {
            "reference": "urn:uuid:b0f169f6-707b-4ba1-85e0-5e5d41e85ff3"
          }
        ],
        "reasonCode": [
          {
            "coding": [
              {
                "code": "64859006",
                "system": "http://snomed.info/sct",
                "display": "Osteoporosis"
              }
            ]
          },
          {
            "coding": [
              {
                "code": "40055000",
                "system": "http://snomed.info/sct",
                "display": "Chronic sinusitis"
              }
            ]
          },
          {
            "coding": [
              {
                "code": "55822004",
                "system": "http://snomed.info/sct",
                "display": "Hyperlipidemia"
              }
            ]
          },
          {
            "coding": [
              {
                "code": "271737000",
                "system": "http://snomed.info/sct",
                "display": "Anemia"
              }
            ]
          },
          {
            "coding": [
              {
                "code": "15777000",
                "system": "http://snomed.info/sct",
                "display": "Prediabetes"
              }
            ]
          },
          {
            "coding": [
              {
                "code": "128613002",
                "system": "http://snomed.info/sct",
                "display": "Seizure disorder"
              }
            ]
          }
        ],
        "status": "active",
        "intent": "order",
        "code": {
          "coding": [
            {
              "code": "108252007",
              "system": "http://snomed.info/sct",
              "display": "Laboratory procedure"
            }
          ]
        },
        "subject": {
          "reference": "urn:uuid:5412b4b2-c268-466f-89a9-9ffdc569cbeb",
          "display": "Helene Andresen"
        },
        "requester": {
          "reference": "urn:uuid:376e88c6-18bb-4a08-8fdd-f0d3cf86bb49"
        }
      }
    },
    {
      "fullUrl": "urn:uuid:376e88c6-18bb-4a08-8fdd-f0d3cf86bb49",
      "resource": {
        "resourceType": "PractitionerRole",
        "id": "376e88c6-18bb-4a08-8fdd-f0d3cf86bb49",
        "meta": {
          "profile": [
            "http://hl7.eu/fhir/base/StructureDefinition/practitionerRole-eu"
          ]
        },
        "text": {
          "status": "generated",
          "div": "<div xmlns=\"http://www.w3.org/1999/xhtml\">Provider Role Id: 376e88c6-18bb-4a08-8fdd-f0d3cf86bb49</div>"
        },
        "organization": {
          "reference": "urn:uuid:5af8ee15-67e8-45f6-a513-8176187ac4c1"
        }
      }
    },
    {
      "fullUrl": "urn:uuid:5af8ee15-67e8-45f6-a513-8176187ac4c1",
      "resource": {
        "resourceType": "Organization",
        "id": "5af8ee15-67e8-45f6-a513-8176187ac4c1",
        "meta": {
          "profile": [
            "http://hl7.eu/fhir/base/StructureDefinition/organization-eu"
          ]
        },
        "identifier": [
          {
            "assigner": {
              "display": "HL7 Europe"
            },
            "system": "urn:oid:2.16.840.1.113883.2.51.999",
            "value": "6429bf41-d12e-4cc5-a990-01a6c2b19cf1"
          }
        ],
        "address": [
          {
            "city": "Oslo",
            "postalCode": "0155",
            "country": "Norway"
          }
        ],
        "text": {
          "status": "generated",
          "div": "<div xmlns=\"http://www.w3.org/1999/xhtml\">Provider Organization: Oslo universitetssykehus (Ullevål)</div>"
        },
        "name": "Oslo universitetssykehus (Ullevål)"
      }
    },
    {
      "fullUrl": "urn:uuid:68319056-abec-480a-b472-5e7519ed1a34",
      "resource": {
        "resourceType": "Specimen",
        "id": "68319056-abec-480a-b472-5e7519ed1a34",
        "meta": {
          "profile": [
            "http://hl7.eu/fhir/laboratory/StructureDefinition/Specimen-eu-lab"
          ]
        },
        "collection": {
          "collectedDateTime": "2021-11-06"
        },
        "text": {
          "status": "generated",
          "div": "<div xmlns=\"http://www.w3.org/1999/xhtml\"><table class=\"hl7__eu__lab__report\"><tr><th>Specimen</th><th>Collection Date</th></tr><tr><td>Whole blood specimen (specimen)</td><td><span class=\"nb\">06-Nov-2021</span></td></tr></table></div>"
        },
        "type": {
          "coding": [
            {
              "code": "258580003",
              "system": "http://snomed.info/sct",
              "display": "Whole blood specimen (specimen)"
            }
          ]
        }
      }
    },
    {
      "fullUrl": "urn:uuid:b0f169f6-707b-4ba1-85e0-5e5d41e85ff3",
      "resource": {
        "resourceType": "Specimen",
        "id": "b0f169f6-707b-4ba1-85e0-5e5d41e85ff3",
        "meta": {
          "profile": [
            "http://hl7.eu/fhir/laboratory/StructureDefinition/Specimen-eu-lab"
          ]
        },
        "collection": {
          "collectedDateTime": "2021-11-06"
        },
        "text": {
          "status": "generated",
          "div": "<div xmlns=\"http://www.w3.org/1999/xhtml\"><table class=\"hl7__eu__lab__report\"><tr><th>Specimen</th><th>Collection Date</th></tr><tr><td>Acellular blood (serum or plasma) specimen</td><td><span class=\"nb\">06-Nov-2021</span></td></tr></table></div>"
        },
        "type": {
          "coding": [
            {
              "code": "122592007",
              "system": "http://snomed.info/sct",
              "display": "Acellular blood (serum or plasma) specimen"
            }
          ]
        }
      }
    },
    {
      "fullUrl": "urn:uuid:b857701c-9360-46d4-bf6c-b09fd3ada713",
      "resource": {
        "resourceType": "Observation",
        "id": "b857701c-9360-46d4-bf6c-b09fd3ada713",
        "meta": {
          "profile": [
            "http://hl7.eu/fhir/laboratory/StructureDefinition/Observation-resultslab-eu-lab"
          ]
        },
        "performer": [
          {
            "display": "The Central European Lab"
          }
        ],
        "category": [
          {
            "coding": [
              {
                "system": "http://terminology.hl7.org/CodeSystem/observation-category",
                "code": "laboratory"
              }
            ]
          }
        ],
        "code": {
          "coding": [
            {
              "code": "4548-4",
              "system": "http://loinc.org",
              "display": "Hemoglobin A1c/Hemoglobin.total in Blood"
            }
          ],
          "text": "Hemoglobin A1c/Hemoglobin.total in Blood"
        },
        "valueQuantity": {
          "system": "http://unitsofmeasure.org",
          "value": 6,
          "unit": "%",
          "code": "%"
        },
        "referenceRange": [
          {
            "low": {
              "value": 4.5,
              "code": "%",
              "system": "http://unitsofmeasure.org"
            }
          },
          {
            "high": {
              "value": 6.4,
              "code": "%",
              "system": "http://unitsofmeasure.org"
            }
          }
        ],
        "text": {
          "status": "generated",
          "div": "<div xmlns=\"http://www.w3.org/1999/xhtml\"><table class=\"hl7__eu__lab__report\"><tr><th>Test</th><th>06-Nov-2021</th><th>Reference&#xA0;Range</th><th>Unit</th></tr><tr><td>Hemoglobin A1c/Hemoglobin.total in Blood</td><td>6.0</td><td>4.5 - 6.4</td><td></td><td>%</td></tr></table></div>"
        },
        "status": "final",
        "subject": {
          "reference": "urn:uuid:5412b4b2-c268-466f-89a9-9ffdc569cbeb",
          "display": "Helene Andresen"
        },
        "effectiveDateTime": "2021-11-06T22:53:36Z",
        "specimen": {
          "reference": "urn:uuid:68319056-abec-480a-b472-5e7519ed1a34"
        }
      }
    },
    {
      "fullUrl": "urn:uuid:ea23a408-c1a6-41e5-8c83-8da3df2c48ea",
      "resource": {
        "resourceType": "Observation",
        "id": "ea23a408-c1a6-41e5-8c83-8da3df2c48ea",
        "meta": {
          "profile": [
            "http://hl7.eu/fhir/laboratory/StructureDefinition/Observation-resultslab-eu-lab"
          ]
        },
        "performer": [
          {
            "display": "The Central European Lab"
          }
        ],
        "category": [
          {
            "coding": [
              {
                "system": "http://terminology.hl7.org/CodeSystem/observation-category",
                "code": "laboratory"
              }
            ]
          }
        ],
        "code": {
          "coding": [
            {
              "code": "2339-0",
              "system": "http://loinc.org",
              "display": "Glucose [Mass/volume] in Blood"
            }
          ],
          "text": "Glucose [Mass/volume] in Blood"
        },
        "valueQuantity": {
          "system": "http://unitsofmeasure.org",
          "value": 87.7,
          "unit": "mg/dL",
          "code": "mg/dL"
        },
        "referenceRange": [
          {
            "low": {
              "value": 70,
              "code": "mg/dL",
              "system": "http://unitsofmeasure.org"
            }
          },
          {
            "high": {
              "value": 140,
              "code": "mg/dL",
              "system": "http://unitsofmeasure.org"
            }
          }
        ],
        "text": {
          "status": "generated",
          "div": "<div xmlns=\"http://www.w3.org/1999/xhtml\"><table class=\"hl7__eu__lab__report\"><tr><th>Test</th><th>06-Nov-2021</th><th>Reference&#xA0;Range</th><th>Unit</th></tr><tr><td>Glucose [Mass/volume] in Blood</td><td>87.7</td><td>70 - 140</td><td></td><td>mg/dL</td></tr></table></div>"
        },
        "status": "final",
        "subject": {
          "reference": "urn:uuid:5412b4b2-c268-466f-89a9-9ffdc569cbeb",
          "display": "Helene Andresen"
        },
        "effectiveDateTime": "2021-11-06T22:53:36Z",
        "specimen": {
          "reference": "urn:uuid:68319056-abec-480a-b472-5e7519ed1a34"
        }
      }
    },
    {
      "fullUrl": "urn:uuid:f31dd86a-5a9c-4ba2-b4ec-5dc7292670a0",
      "resource": {
        "resourceType": "Observation",
        "id": "f31dd86a-5a9c-4ba2-b4ec-5dc7292670a0",
        "meta": {
          "profile": [
            "http://hl7.eu/fhir/laboratory/StructureDefinition/Observation-resultslab-eu-lab"
          ]
        },
        "performer": [
          {
            "display": "The Central European Lab"
          }
        ],
        "category": [
          {
            "coding": [
              {
                "system": "http://terminology.hl7.org/CodeSystem/observation-category",
                "code": "laboratory"
              }
            ]
          }
        ],
        "code": {
          "coding": [
            {
              "code": "6299-2",
              "system": "http://loinc.org",
              "display": "Urea nitrogen [Mass/volume] in Blood"
            }
          ],
          "text": "Urea nitrogen [Mass/volume] in Blood"
        },
        "valueQuantity": {
          "system": "http://unitsofmeasure.org",
          "value": 19.5,
          "unit": "mg/dL",
          "code": "mg/dL"
        },
        "referenceRange": [
          {
            "low": {
              "value": 7,
              "code": "mg/dL",
              "system": "http://unitsofmeasure.org"
            }
          },
          {
            "high": {
              "value": 25,
              "code": "mg/dL",
              "system": "http://unitsofmeasure.org"
            }
          }
        ],
        "text": {
          "status": "generated",
          "div": "<div xmlns=\"http://www.w3.org/1999/xhtml\"><table class=\"hl7__eu__lab__report\"><tr><th>Test</th><th>06-Nov-2021</th><th>Reference&#xA0;Range</th><th>Unit</th></tr><tr><td>Urea nitrogen [Mass/volume] in Blood</td><td>19.5</td><td>7 - 25</td><td></td><td>mg/dL</td></tr></table></div>"
        },
        "status": "final",
        "subject": {
          "reference": "urn:uuid:5412b4b2-c268-466f-89a9-9ffdc569cbeb",
          "display": "Helene Andresen"
        },
        "effectiveDateTime": "2021-11-06T22:53:36Z",
        "specimen": {
          "reference": "urn:uuid:68319056-abec-480a-b472-5e7519ed1a34"
        }
      }
    },
    {
      "fullUrl": "urn:uuid:2e53d790-6378-48bb-891f-9766dc81e9f2",
      "resource": {
        "resourceType": "Observation",
        "id": "2e53d790-6378-48bb-891f-9766dc81e9f2",
        "meta": {
          "profile": [
            "http://hl7.eu/fhir/laboratory/StructureDefinition/Observation-resultslab-eu-lab"
          ]
        },
        "performer": [
          {
            "display": "The Central European Lab"
          }
        ],
        "category": [
          {
            "coding": [
              {
                "system": "http://terminology.hl7.org/CodeSystem/observation-category",
                "code": "laboratory"
              }
            ]
          }
        ],
        "code": {
          "coding": [
            {
              "code": "38483-4",
              "system": "http://loinc.org",
              "display": "Creatinine [Mass/volume] in Blood"
            }
          ],
          "text": "Creatinine [Mass/volume] in Blood"
        },
        "valueQuantity": {
          "system": "http://unitsofmeasure.org",
          "value": 0.5,
          "unit": "mg/dL",
          "code": "mg/dL"
        },
        "referenceRange": [
          {
            "low": {
              "value": 0.6,
              "code": "mg/dL",
              "system": "http://unitsofmeasure.org"
            }
          },
          {
            "high": {
              "value": 1.1,
              "code": "mg/dL",
              "system": "http://unitsofmeasure.org"
            }
          }
        ],
        "interpretation": [
          {
            "coding": [
              {
                "code": "L",
                "system": "http://terminology.hl7.org/CodeSystem/v3-ObservationInterpretation",
                "display": "Low"
              }
            ]
          }
        ],
        "text": {
          "status": "generated",
          "div": "<div xmlns=\"http://www.w3.org/1999/xhtml\"><table class=\"hl7__eu__lab__report\"><tr><th>Test</th><th>06-Nov-2021</th><th>Reference&#xA0;Range</th><th>Unit</th></tr><tr><td>Creatinine [Mass/volume] in Blood</td><td>0.5</td><td>0.6 - 1.1</td><td>L</td><td>mg/dL</td></tr></table></div>"
        },
        "status": "final",
        "subject": {
          "reference": "urn:uuid:5412b4b2-c268-466f-89a9-9ffdc569cbeb",
          "display": "Helene Andresen"
        },
        "effectiveDateTime": "2021-11-06T22:53:36Z",
        "specimen": {
          "reference": "urn:uuid:68319056-abec-480a-b472-5e7519ed1a34"
        }
      }
    },
    {
      "fullUrl": "urn:uuid:36e6b9d9-2be0-4156-af3d-b72b6bb85a99",
      "resource": {
        "resourceType": "Observation",
        "id": "36e6b9d9-2be0-4156-af3d-b72b6bb85a99",
        "meta": {
          "profile": [
            "http://hl7.eu/fhir/laboratory/StructureDefinition/Observation-resultslab-eu-lab"
          ]
        },
        "performer": [
          {
            "display": "The Central European Lab"
          }
        ],
        "category": [
          {
            "coding": [
              {
                "system": "http://terminology.hl7.org/CodeSystem/observation-category",
                "code": "laboratory"
              }
            ]
          }
        ],
        "code": {
          "coding": [
            {
              "code": "49765-1",
              "system": "http://loinc.org",
              "display": "Calcium [Mass/volume] in Blood"
            }
          ],
          "text": "Calcium [Mass/volume] in Blood"
        },
        "valueQuantity": {
          "system": "http://unitsofmeasure.org",
          "value": 8.6,
          "unit": "mg/dL",
          "code": "mg/dL"
        },
        "referenceRange": [
          {
            "low": {
              "value": 8.6,
              "code": "mg/dL",
              "system": "http://unitsofmeasure.org"
            }
          },
          {
            "high": {
              "value": 10.4,
              "code": "mg/dL",
              "system": "http://unitsofmeasure.org"
            }
          }
        ],
        "text": {
          "status": "generated",
          "div": "<div xmlns=\"http://www.w3.org/1999/xhtml\"><table class=\"hl7__eu__lab__report\"><tr><th>Test</th><th>06-Nov-2021</th><th>Reference&#xA0;Range</th><th>Unit</th></tr><tr><td>Calcium [Mass/volume] in Blood</td><td>8.6</td><td>8.6 - 10.4</td><td></td><td>mg/dL</td></tr></table></div>"
        },
        "status": "final",
        "subject": {
          "reference": "urn:uuid:5412b4b2-c268-466f-89a9-9ffdc569cbeb",
          "display": "Helene Andresen"
        },
        "effectiveDateTime": "2021-11-06T22:53:36Z",
        "specimen": {
          "reference": "urn:uuid:68319056-abec-480a-b472-5e7519ed1a34"
        }
      }
    },
    {
      "fullUrl": "urn:uuid:a5d33e4b-c504-4d57-8a49-feb7e2fed39a",
      "resource": {
        "resourceType": "Observation",
        "id": "a5d33e4b-c504-4d57-8a49-feb7e2fed39a",
        "meta": {
          "profile": [
            "http://hl7.eu/fhir/laboratory/StructureDefinition/Observation-resultslab-eu-lab"
          ]
        },
        "performer": [
          {
            "display": "The Central European Lab"
          }
        ],
        "category": [
          {
            "coding": [
              {
                "system": "http://terminology.hl7.org/CodeSystem/observation-category",
                "code": "laboratory"
              }
            ]
          }
        ],
        "code": {
          "coding": [
            {
              "code": "2947-0",
              "system": "http://loinc.org",
              "display": "Sodium [Moles/volume] in Blood"
            }
          ],
          "text": "Sodium [Moles/volume] in Blood"
        },
        "valueQuantity": {
          "system": "http://unitsofmeasure.org",
          "value": 143.1,
          "unit": "mmol/L",
          "code": "mmol/L"
        },
        "referenceRange": [
          {
            "low": {
              "value": 135,
              "code": "mmol/L",
              "system": "http://unitsofmeasure.org"
            }
          },
          {
            "high": {
              "value": 145,
              "code": "mmol/L",
              "system": "http://unitsofmeasure.org"
            }
          }
        ],
        "text": {
          "status": "generated",
          "div": "<div xmlns=\"http://www.w3.org/1999/xhtml\"><table class=\"hl7__eu__lab__report\"><tr><th>Test</th><th>06-Nov-2021</th><th>Reference&#xA0;Range</th><th>Unit</th></tr><tr><td>Sodium [Moles/volume] in Blood</td><td>143.1</td><td>135 - 145</td><td></td><td>mmol/L</td></tr></table></div>"
        },
        "status": "final",
        "subject": {
          "reference": "urn:uuid:5412b4b2-c268-466f-89a9-9ffdc569cbeb",
          "display": "Helene Andresen"
        },
        "effectiveDateTime": "2021-11-06T22:53:36Z",
        "specimen": {
          "reference": "urn:uuid:68319056-abec-480a-b472-5e7519ed1a34"
        }
      }
    },
    {
      "fullUrl": "urn:uuid:ae445e38-0cff-475e-94e5-c9c03a5eb26e",
      "resource": {
        "resourceType": "Observation",
        "id": "ae445e38-0cff-475e-94e5-c9c03a5eb26e",
        "meta": {
          "profile": [
            "http://hl7.eu/fhir/laboratory/StructureDefinition/Observation-resultslab-eu-lab"
          ]
        },
        "performer": [
          {
            "display": "The Central European Lab"
          }
        ],
        "category": [
          {
            "coding": [
              {
                "system": "http://terminology.hl7.org/CodeSystem/observation-category",
                "code": "laboratory"
              }
            ]
          }
        ],
        "code": {
          "coding": [
            {
              "code": "6298-4",
              "system": "http://loinc.org",
              "display": "Potassium [Moles/volume] in Blood"
            }
          ],
          "text": "Potassium [Moles/volume] in Blood"
        },
        "valueQuantity": {
          "system": "http://unitsofmeasure.org",
          "value": 4.9,
          "unit": "mmol/L",
          "code": "mmol/L"
        },
        "referenceRange": [
          {
            "low": {
              "value": 3.5,
              "code": "mmol/L",
              "system": "http://unitsofmeasure.org"
            }
          },
          {
            "high": {
              "value": 5.3,
              "code": "mmol/L",
              "system": "http://unitsofmeasure.org"
            }
          }
        ],
        "text": {
          "status": "generated",
          "div": "<div xmlns=\"http://www.w3.org/1999/xhtml\"><table class=\"hl7__eu__lab__report\"><tr><th>Test</th><th>06-Nov-2021</th><th>Reference&#xA0;Range</th><th>Unit</th></tr><tr><td>Potassium [Moles/volume] in Blood</td><td>4.9</td><td>3.5 - 5.3</td><td></td><td>mmol/L</td></tr></table></div>"
        },
        "status": "final",
        "subject": {
          "reference": "urn:uuid:5412b4b2-c268-466f-89a9-9ffdc569cbeb",
          "display": "Helene Andresen"
        },
        "effectiveDateTime": "2021-11-06T22:53:36Z",
        "specimen": {
          "reference": "urn:uuid:68319056-abec-480a-b472-5e7519ed1a34"
        }
      }
    },
    {
      "fullUrl": "urn:uuid:3864c3de-b3c1-4046-bff2-aab51edf9a45",
      "resource": {
        "resourceType": "Observation",
        "id": "3864c3de-b3c1-4046-bff2-aab51edf9a45",
        "meta": {
          "profile": [
            "http://hl7.eu/fhir/laboratory/StructureDefinition/Observation-resultslab-eu-lab"
          ]
        },
        "performer": [
          {
            "display": "The Central European Lab"
          }
        ],
        "category": [
          {
            "coding": [
              {
                "system": "http://terminology.hl7.org/CodeSystem/observation-category",
                "code": "laboratory"
              }
            ]
          }
        ],
        "code": {
          "coding": [
            {
              "code": "2069-3",
              "system": "http://loinc.org",
              "display": "Chloride [Moles/volume] in Blood"
            }
          ],
          "text": "Chloride [Moles/volume] in Blood"
        },
        "valueQuantity": {
          "system": "http://unitsofmeasure.org",
          "value": 110,
          "unit": "mmol/L",
          "code": "mmol/L"
        },
        "referenceRange": [
          {
            "low": {
              "value": 98,
              "code": "mmol/L",
              "system": "http://unitsofmeasure.org"
            }
          },
          {
            "high": {
              "value": 108,
              "code": "mmol/L",
              "system": "http://unitsofmeasure.org"
            }
          }
        ],
        "interpretation": [
          {
            "coding": [
              {
                "code": "H",
                "system": "http://terminology.hl7.org/CodeSystem/v3-ObservationInterpretation",
                "display": "High"
              }
            ]
          }
        ],
        "text": {
          "status": "generated",
          "div": "<div xmlns=\"http://www.w3.org/1999/xhtml\"><table class=\"hl7__eu__lab__report\"><tr><th>Test</th><th>06-Nov-2021</th><th>Reference&#xA0;Range</th><th>Unit</th></tr><tr><td>Chloride [Moles/volume] in Blood</td><td>110.0</td><td>98 - 108</td><td>H</td><td>mmol/L</td></tr></table></div>"
        },
        "status": "final",
        "subject": {
          "reference": "urn:uuid:5412b4b2-c268-466f-89a9-9ffdc569cbeb",
          "display": "Helene Andresen"
        },
        "effectiveDateTime": "2021-11-06T22:53:36Z",
        "specimen": {
          "reference": "urn:uuid:68319056-abec-480a-b472-5e7519ed1a34"
        }
      }
    },
    {
      "fullUrl": "urn:uuid:73f5b9c5-a516-4be2-94de-e288ce2d0359",
      "resource": {
        "resourceType": "Observation",
        "id": "73f5b9c5-a516-4be2-94de-e288ce2d0359",
        "meta": {
          "profile": [
            "http://hl7.eu/fhir/laboratory/StructureDefinition/Observation-resultslab-eu-lab"
          ]
        },
        "performer": [
          {
            "display": "The Central European Lab"
          }
        ],
        "category": [
          {
            "coding": [
              {
                "system": "http://terminology.hl7.org/CodeSystem/observation-category",
                "code": "laboratory"
              }
            ]
          }
        ],
        "code": {
          "coding": [
            {
              "code": "20565-8",
              "system": "http://loinc.org",
              "display": "Carbon dioxide, total [Moles/volume] in Blood"
            }
          ],
          "text": "Carbon dioxide, total [Moles/volume] in Blood"
        },
        "valueQuantity": {
          "system": "http://unitsofmeasure.org",
          "value": 24.3,
          "unit": "mmol/L",
          "code": "mmol/L"
        },
        "referenceRange": [
          {
            "low": {
              "value": 22,
              "code": "mmol/L",
              "system": "http://unitsofmeasure.org"
            }
          },
          {
            "high": {
              "value": 32,
              "code": "mmol/L",
              "system": "http://unitsofmeasure.org"
            }
          }
        ],
        "text": {
          "status": "generated",
          "div": "<div xmlns=\"http://www.w3.org/1999/xhtml\"><table class=\"hl7__eu__lab__report\"><tr><th>Test</th><th>06-Nov-2021</th><th>Reference&#xA0;Range</th><th>Unit</th></tr><tr><td>Carbon dioxide, total [Moles/volume] in Blood</td><td>24.3</td><td>22 - 32</td><td></td><td>mmol/L</td></tr></table></div>"
        },
        "status": "final",
        "subject": {
          "reference": "urn:uuid:5412b4b2-c268-466f-89a9-9ffdc569cbeb",
          "display": "Helene Andresen"
        },
        "effectiveDateTime": "2021-11-06T22:53:36Z",
        "specimen": {
          "reference": "urn:uuid:68319056-abec-480a-b472-5e7519ed1a34"
        }
      }
    },
    {
      "fullUrl": "urn:uuid:7051415d-5371-435a-beec-5e7c6beb61db",
      "resource": {
        "resourceType": "Observation",
        "id": "7051415d-5371-435a-beec-5e7c6beb61db",
        "meta": {
          "profile": [
            "http://hl7.eu/fhir/laboratory/StructureDefinition/Observation-resultslab-eu-lab"
          ]
        },
        "performer": [
          {
            "display": "The Central European Lab"
          }
        ],
        "category": [
          {
            "coding": [
              {
                "system": "http://terminology.hl7.org/CodeSystem/observation-category",
                "code": "laboratory"
              }
            ]
          }
        ],
        "code": {
          "coding": [
            {
              "code": "2093-3",
              "system": "http://loinc.org",
              "display": "Cholesterol [Mass/volume] in Serum or Plasma"
            }
          ],
          "text": "Cholesterol [Mass/volume] in Serum or Plasma"
        },
        "valueQuantity": {
          "system": "http://unitsofmeasure.org",
          "value": 133,
          "unit": "mg/dL",
          "code": "mg/dL"
        },
        "referenceRange": [
          {
            "low": {
              "value": 125,
              "code": "mg/dL",
              "system": "http://unitsofmeasure.org"
            }
          },
          {
            "high": {
              "value": 200,
              "code": "mg/dL",
              "system": "http://unitsofmeasure.org"
            }
          }
        ],
        "text": {
          "status": "generated",
          "div": "<div xmlns=\"http://www.w3.org/1999/xhtml\"><table class=\"hl7__eu__lab__report\"><tr><th>Test</th><th>06-Nov-2021</th><th>Reference&#xA0;Range</th><th>Unit</th></tr><tr><td>Cholesterol [Mass/volume] in Serum or Plasma</td><td>133.0</td><td>125 - 200</td><td></td><td>mg/dL</td></tr></table></div>"
        },
        "status": "final",
        "subject": {
          "reference": "urn:uuid:5412b4b2-c268-466f-89a9-9ffdc569cbeb",
          "display": "Helene Andresen"
        },
        "effectiveDateTime": "2021-11-06T22:53:36Z",
        "specimen": {
          "reference": "urn:uuid:b0f169f6-707b-4ba1-85e0-5e5d41e85ff3"
        }
      }
    },
    {
      "fullUrl": "urn:uuid:7b65a935-203d-4dd8-8be4-fa8a67282fbf",
      "resource": {
        "resourceType": "Observation",
        "id": "7b65a935-203d-4dd8-8be4-fa8a67282fbf",
        "meta": {
          "profile": [
            "http://hl7.eu/fhir/laboratory/StructureDefinition/Observation-resultslab-eu-lab"
          ]
        },
        "performer": [
          {
            "display": "The Central European Lab"
          }
        ],
        "category": [
          {
            "coding": [
              {
                "system": "http://terminology.hl7.org/CodeSystem/observation-category",
                "code": "laboratory"
              }
            ]
          }
        ],
        "code": {
          "coding": [
            {
              "code": "2571-8",
              "system": "http://loinc.org",
              "display": "Triglyceride [Mass/volume] in Serum or Plasma"
            }
          ],
          "text": "Triglyceride [Mass/volume] in Serum or Plasma"
        },
        "valueQuantity": {
          "system": "http://unitsofmeasure.org",
          "value": 105.5,
          "unit": "mg/dL",
          "code": "mg/dL"
        },
        "referenceRange": [
          {
            "low": {
              "value": 10,
              "code": "mg/dL",
              "system": "http://unitsofmeasure.org"
            }
          },
          {
            "high": {
              "value": 175,
              "code": "mg/dL",
              "system": "http://unitsofmeasure.org"
            }
          }
        ],
        "text": {
          "status": "generated",
          "div": "<div xmlns=\"http://www.w3.org/1999/xhtml\"><table class=\"hl7__eu__lab__report\"><tr><th>Test</th><th>06-Nov-2021</th><th>Reference&#xA0;Range</th><th>Unit</th></tr><tr><td>Triglyceride [Mass/volume] in Serum or Plasma</td><td>105.5</td><td>10 - 175</td><td></td><td>mg/dL</td></tr></table></div>"
        },
        "status": "final",
        "subject": {
          "reference": "urn:uuid:5412b4b2-c268-466f-89a9-9ffdc569cbeb",
          "display": "Helene Andresen"
        },
        "effectiveDateTime": "2021-11-06T22:53:36Z",
        "specimen": {
          "reference": "urn:uuid:b0f169f6-707b-4ba1-85e0-5e5d41e85ff3"
        }
      }
    },
    {
      "fullUrl": "urn:uuid:3ad6a613-bf23-44ed-8957-34f6de26180f",
      "resource": {
        "resourceType": "Observation",
        "id": "3ad6a613-bf23-44ed-8957-34f6de26180f",
        "meta": {
          "profile": [
            "http://hl7.eu/fhir/laboratory/StructureDefinition/Observation-resultslab-eu-lab"
          ]
        },
        "performer": [
          {
            "display": "The Central European Lab"
          }
        ],
        "category": [
          {
            "coding": [
              {
                "system": "http://terminology.hl7.org/CodeSystem/observation-category",
                "code": "laboratory"
              }
            ]
          }
        ],
        "code": {
          "coding": [
            {
              "code": "18262-6",
              "system": "http://loinc.org",
              "display": "Cholesterol in LDL [Mass/volume] in Serum or Plasma by Direct assay"
            }
          ],
          "text": "Cholesterol in LDL [Mass/volume] in Serum or Plasma by Direct assay"
        },
        "valueQuantity": {
          "system": "http://unitsofmeasure.org",
          "value": 56.9,
          "unit": "mg/dL",
          "code": "mg/dL"
        },
        "referenceRange": [
          {
            "low": {
              "value": 0,
              "code": "mg/dL",
              "system": "http://unitsofmeasure.org"
            }
          },
          {
            "high": {
              "value": 130,
              "code": "mg/dL",
              "system": "http://unitsofmeasure.org"
            }
          }
        ],
        "text": {
          "status": "generated",
          "div": "<div xmlns=\"http://www.w3.org/1999/xhtml\"><table class=\"hl7__eu__lab__report\"><tr><th>Test</th><th>06-Nov-2021</th><th>Reference&#xA0;Range</th><th>Unit</th></tr><tr><td>Cholesterol in LDL [Mass/volume] in Serum or Plasma by Direct assay</td><td>56.9</td><td>0 - 130</td><td></td><td>mg/dL</td></tr></table></div>"
        },
        "status": "final",
        "subject": {
          "reference": "urn:uuid:5412b4b2-c268-466f-89a9-9ffdc569cbeb",
          "display": "Helene Andresen"
        },
        "effectiveDateTime": "2021-11-06T22:53:36Z",
        "specimen": {
          "reference": "urn:uuid:b0f169f6-707b-4ba1-85e0-5e5d41e85ff3"
        }
      }
    },
    {
      "fullUrl": "urn:uuid:8687cce1-c2be-4fb3-bd34-3633abd884d8",
      "resource": {
        "resourceType": "Observation",
        "id": "8687cce1-c2be-4fb3-bd34-3633abd884d8",
        "meta": {
          "profile": [
            "http://hl7.eu/fhir/laboratory/StructureDefinition/Observation-resultslab-eu-lab"
          ]
        },
        "performer": [
          {
            "display": "The Central European Lab"
          }
        ],
        "category": [
          {
            "coding": [
              {
                "system": "http://terminology.hl7.org/CodeSystem/observation-category",
                "code": "laboratory"
              }
            ]
          }
        ],
        "code": {
          "coding": [
            {
              "code": "2085-9",
              "system": "http://loinc.org",
              "display": "Cholesterol in HDL [Mass/volume] in Serum or Plasma"
            }
          ],
          "text": "Cholesterol in HDL [Mass/volume] in Serum or Plasma"
        },
        "valueQuantity": {
          "system": "http://unitsofmeasure.org",
          "value": 55,
          "unit": "mg/dL",
          "code": "mg/dL"
        },
        "referenceRange": [
          {
            "low": {
              "value": 50,
              "code": "mg/dL",
              "system": "http://unitsofmeasure.org"
            }
          },
          {
            "high": {
              "value": 100,
              "code": "mg/dL",
              "system": "http://unitsofmeasure.org"
            }
          }
        ],
        "text": {
          "status": "generated",
          "div": "<div xmlns=\"http://www.w3.org/1999/xhtml\"><table class=\"hl7__eu__lab__report\"><tr><th>Test</th><th>06-Nov-2021</th><th>Reference&#xA0;Range</th><th>Unit</th></tr><tr><td>Cholesterol in HDL [Mass/volume] in Serum or Plasma</td><td>55.0</td><td>50 - 100</td><td></td><td>mg/dL</td></tr></table></div>"
        },
        "status": "final",
        "subject": {
          "reference": "urn:uuid:5412b4b2-c268-466f-89a9-9ffdc569cbeb",
          "display": "Helene Andresen"
        },
        "effectiveDateTime": "2021-11-06T22:53:36Z",
        "specimen": {
          "reference": "urn:uuid:b0f169f6-707b-4ba1-85e0-5e5d41e85ff3"
        }
      }
    },
    {
      "fullUrl": "urn:uuid:921cfeaa-cc01-4352-a84d-8b4b17d0d757",
      "resource": {
        "resourceType": "Device",
        "id": "921cfeaa-cc01-4352-a84d-8b4b17d0d757",
        "deviceName": [
          {
            "name": "SYNDERAI Synthetic Generator",
            "type": "manufacturer-name"
          }
        ],
        "version": [
          {
            "value": "5.0"
          }
        ],
        "text": {
          "status": "generated",
          "div": "<div xmlns=\"http://www.w3.org/1999/xhtml\">SYNDERAI Synthetic Generator v5.0</div>"
        },
        "status": "active\"",
        "distinctIdentifier": "synderai-generator-50",
        "manufacturer": "SYNDERAI Project"
      }
    },
    {
      "fullUrl": "urn:uuid:f8dcace9-68c9-44f3-84f7-77b1e5a157d9",
      "resource": {
        "resourceType": "Provenance",
        "id": "f8dcace9-68c9-44f3-84f7-77b1e5a157d9",
        "target": [
          {
            "reference": "Patient/5412b4b2-c268-466f-89a9-9ffdc569cbeb"
          },
          {
            "reference": "Bundle/34983b81-71c6-47e8-bd0e-d9241503303a"
          },
          {
            "reference": "Composition/4c890a35-048c-4500-b8ca-2dc166516347"
          },
          {
            "reference": "PractitionerRole/de24c20a-d804-4d30-9306-795949d26bd0"
          },
          {
            "reference": "Practitioner/d6ac0e20-ef52-4de7-9fd1-23eaaa226e5b"
          },
          {
            "reference": "PractitionerRole/376e88c6-18bb-4a08-8fdd-f0d3cf86bb49"
          },
          {
            "reference": "Organization/5af8ee15-67e8-45f6-a513-8176187ac4c1"
          }
        ],
        "activity": {
          "text": "Synthetic Example Data Generation"
        },
        "policy": [
          "https://synderai.net/synderai-synthetic-data-policy"
        ],
        "agent": [
          {
            "type": {
              "text": "author"
            },
            "who": {
              "reference": "Device/921cfeaa-cc01-4352-a84d-8b4b17d0d757"
            }
          }
        ],
        "reason": [
          {
            "text": "Interoperability Testing and Training (non-clinical use)"
          }
        ],
        "text": {
          "status": "generated",
          "div": "<div xmlns=\"http://www.w3.org/1999/xhtml\">Provenance for SYNDERAI Synthetic Example Data Resource</div>"
        },
        "recorded": "2021-11-06T23:53:36Z"
      }
    },
    {
      "fullUrl": "urn:uuid:de24c20a-d804-4d30-9306-795949d26bd0",
      "resource": {
        "resourceType": "PractitionerRole",
        "id": "de24c20a-d804-4d30-9306-795949d26bd0",
        "meta": {
          "profile": [
            "http://hl7.eu/fhir/base/StructureDefinition/practitionerRole-eu"
          ]
        },
        "text": {
          "status": "generated",
          "div": "<div xmlns=\"http://www.w3.org/1999/xhtml\">Laboratory Role Id: de24c20a-d804-4d30-9306-795949d26bd0</div>"
        },
        "practitioner": {
          "reference": "urn:uuid:d6ac0e20-ef52-4de7-9fd1-23eaaa226e5b"
        }
      }
    },
    {
      "fullUrl": "urn:uuid:d6ac0e20-ef52-4de7-9fd1-23eaaa226e5b",
      "resource": {
        "resourceType": "Practitioner",
        "id": "d6ac0e20-ef52-4de7-9fd1-23eaaa226e5b",
        "meta": {
          "profile": [
            "http://hl7.eu/fhir/base/StructureDefinition/practitioner-eu"
          ]
        },
        "identifier": [
          {
            "assigner": {
              "display": "HL7 Europe"
            },
            "system": "urn:oid:2.16.840.1.113883.2.51.999",
            "value": "38971ddd-f400-4276-9da7-53ec3c2453d8"
          }
        ],
        "name": [
          {
            "prefix": [
              "dr"
            ],
            "given": [
              "Ex"
            ],
            "family": "Ample"
          }
        ],
        "address": [
          {
            "line": [
              "Laboratoire Central Européenne",
              "Boulevard du Jardin Botanique 32"
            ],
            "postalCode": "1000",
            "city": "Brussels",
            "country": "Belgium"
          }
        ],
        "text": {
          "status": "generated",
          "div": "<div xmlns=\"http://www.w3.org/1999/xhtml\">Laboratory: Laboratoire Central Européenne, 1000 Brussels, Belgium</div>"
        }
      }
    }
  ],
  "type": "document",
  "timestamp": "2021-11-06T23:53:36Z"
}
