{
  "resourceType": "Bundle",
  "id": "7b27ba1c-a860-4e03-93a4-9d80712c3849",
  "meta": {
    "profile": [
      "http://hl7.eu/fhir/laboratory/StructureDefinition/Bundle-eu-lab"
    ]
  },
  "identifier": {
    "assigner": {
      "display": "HL7 Europe"
    },
    "system": "urn:oid:2.16.840.1.113883.2.51.999",
    "value": "181a571d-5e8d-448d-861e-cb9b836741f7"
  },
  "entry": [
    {
      "fullUrl": "urn:uuid:a3d6bdfd-0774-450c-b6b2-6006186a0c25",
      "resource": {
        "resourceType": "Composition",
        "id": "a3d6bdfd-0774-450c-b6b2-6006186a0c25",
        "meta": {
          "profile": [
            "http://hl7.eu/fhir/laboratory/StructureDefinition/Composition-eu-lab"
          ]
        },
        "identifier": {
          "assigner": {
            "display": "HL7 Europe"
          },
          "system": "urn:oid:2.16.840.1.113883.2.51.999",
          "value": "068746b4-fdcb-48cb-b72a-9ca4f6b91157"
        },
        "author": [
          {
            "reference": "urn:uuid:0c863637-b3a6-4653-af4f-5a161103ec0d"
          }
        ],
        "category": [
          {
            "coding": [
              {
                "code": "26436-6",
                "system": "http://loinc.org",
                "display": "Laboratory studies (set)"
              }
            ]
          }
        ],
        "type": {
          "coding": [
            {
              "code": "11502-2",
              "system": "http://loinc.org",
              "display": "Laboratory report"
            }
          ],
          "text": "Laboratory Report"
        },
        "section": [
          {
            "code": {
              "coding": [
                {
                  "code": "26436-6",
                  "system": "http://loinc.org",
                  "display": "Laboratory studies (set)"
                }
              ],
              "text": "Laboratory studies"
            },
            "section": [
              {
                "code": {
                  "coding": [
                    {
                      "code": "$18719-5",
                      "system": "http://loinc.org",
                      "display": "Chemistry studies (set)"
                    }
                  ],
                  "text": "Chemistry"
                },
                "entry": [
                  {
                    "reference": "urn:uuid:d3a0ee53-54c1-42e6-bc04-48016904a7ca"
                  },
                  {
                    "reference": "urn:uuid:cee5b715-0b7d-4795-848f-9b8c4ce68238"
                  },
                  {
                    "reference": "urn:uuid:c8119e7b-9dd0-4e66-b045-7c25f9bbb932"
                  },
                  {
                    "reference": "urn:uuid:d0029f48-185a-4a69-a954-d982fedb6ddf"
                  },
                  {
                    "reference": "urn:uuid:aef3a49a-4c4e-44e8-8c46-ed56656f6104"
                  },
                  {
                    "reference": "urn:uuid:8c6804a7-e27a-443d-a415-8d95a3072244"
                  },
                  {
                    "reference": "urn:uuid:282f6408-0dae-4de7-841a-6b0dce75a607"
                  },
                  {
                    "reference": "urn:uuid:b7e364e1-c2b8-4c74-b9be-a1a93e402913"
                  },
                  {
                    "reference": "urn:uuid:aceb6560-d9ba-40db-bfaa-5c16d31d2cb0"
                  }
                ],
                "text": {
                  "status": "generated",
                  "div": "<div xmlns=\"http://www.w3.org/1999/xhtml\"><h3>Chemistry</h3><table class=\"hl7__eu__lab__report\"><thead><tr><th>Test</th><th>08-FEB-2020</th><th>Reference&#xA0;Range</th><th>Unit</th></tr></thead><tbody><tr><td>Hemoglobin A1c/Hemoglobin.total in Blood</td><td>5.9</td><td>4 - 6</td><td>%</td></tr><tr><td>Glucose [Mass/volume] in Blood</td><td><strong>66.1 L</strong></td><td>70 - 140</td><td>mg/dL</td></tr><tr><td>Urea nitrogen [Mass/volume] in Blood</td><td>10.4</td><td>7 - 45</td><td>mg/dL</td></tr><tr><td>Creatinine [Mass/volume] in Blood</td><td>0.9</td><td>0.6 - 1.1</td><td>mg/dL</td></tr><tr><td>Calcium [Mass/volume] in Blood</td><td>9.1</td><td>8.5 - 10.5</td><td>mg/dL</td></tr><tr><td>Sodium [Moles/volume] in Blood</td><td>138.0</td><td>135 - 145</td><td>mmol/L</td></tr><tr><td>Potassium [Moles/volume] in Blood</td><td>5.1</td><td>3.5 - 5.1</td><td>mmol/L</td></tr><tr><td>Chloride [Moles/volume] in Blood</td><td><strong>110.1 H</strong></td><td>98 - 107</td><td>mmol/L</td></tr><tr><td>Carbon dioxide, total [Moles/volume] in Blood</td><td>23.8</td><td>22 - 32</td><td>mmol/L</td></tr></tbody></table></div>"
                },
                "title": "Chemistry"
              }
            ],
            "title": "Laboratory Report"
          },
          {
            "text": {
              "status": "generated",
              "div": "<div xmlns=\"http://www.w3.org/1999/xhtml\"><h3>Annotation</h3><table class=\"hl7__eu__lab__report\"><tr><th>Conclusion and Recommendations based on this report and previous findings known to us</th></tr><tr><td>The patient shows mild hypoglycemia and a slightly elevated chloride level; all other parameters are within normal limits. HbA1c is at the upper end of normal, suggesting good long-term glycemic control. No evidence of renal dysfunction or electrolyte imbalance apart from mild hyperchloremia. Clinical correlation is recommended for the low glucose and elevated chloride.</td></tr></table></div>"
            },
            "code": {
              "coding": [
                {
                  "system": "http://loinc.org",
                  "code": "48767-8",
                  "display": "Annotation comment"
                }
              ]
            },
            "title": "Annotation comment"
          }
        ],
        "status": "final",
        "subject": {
          "reference": "urn:uuid:c2c4d711-5fc9-45dd-a9f8-63c66dfed989",
          "display": "Lydia Ward"
        },
        "date": "2020-02-08T00:08:09Z",
        "title": "Laboratory Report",
        "confidentiality": "N"
      }
    },
    {
      "fullUrl": "urn:uuid:6d3003ae-ebda-41be-9788-993bdd0bc126",
      "resource": {
        "resourceType": "DiagnosticReport",
        "id": "6d3003ae-ebda-41be-9788-993bdd0bc126",
        "meta": {
          "profile": [
            "http://hl7.eu/fhir/laboratory/StructureDefinition/DiagnosticReport-eu-lab"
          ]
        },
        "identifier": [
          {
            "assigner": {
              "display": "HL7 Europe"
            },
            "system": "urn:oid:2.16.840.1.113883.2.51.999",
            "value": "59c3f105-aff5-481b-a36b-797dd82081ad"
          }
        ],
        "extension": [
          {
            "url": "http://hl7.org/fhir/5.0/StructureDefinition/extension-DiagnosticReport.composition",
            "valueReference": {
              "reference": "urn:uuid:068746b4-fdcb-48cb-b72a-9ca4f6b91157"
            }
          }
        ],
        "category": [
          {
            "coding": [
              {
                "code": "26436-6",
                "system": "http://loinc.org",
                "display": "Laboratory studies (set)"
              }
            ]
          }
        ],
        "specimen": [
          {
            "reference": "urn:uuid:45952c9e-7680-478a-9482-360ddd7d1091"
          }
        ],
        "result": [
          {
            "reference": "urn:uuid:d3a0ee53-54c1-42e6-bc04-48016904a7ca"
          },
          {
            "reference": "urn:uuid:cee5b715-0b7d-4795-848f-9b8c4ce68238"
          },
          {
            "reference": "urn:uuid:c8119e7b-9dd0-4e66-b045-7c25f9bbb932"
          },
          {
            "reference": "urn:uuid:d0029f48-185a-4a69-a954-d982fedb6ddf"
          },
          {
            "reference": "urn:uuid:aef3a49a-4c4e-44e8-8c46-ed56656f6104"
          },
          {
            "reference": "urn:uuid:8c6804a7-e27a-443d-a415-8d95a3072244"
          },
          {
            "reference": "urn:uuid:282f6408-0dae-4de7-841a-6b0dce75a607"
          },
          {
            "reference": "urn:uuid:b7e364e1-c2b8-4c74-b9be-a1a93e402913"
          },
          {
            "reference": "urn:uuid:aceb6560-d9ba-40db-bfaa-5c16d31d2cb0"
          }
        ],
        "status": "registered",
        "code": {
          "coding": [
            {
              "code": "11502-2",
              "system": "http://loinc.org",
              "display": "Laboratory report"
            }
          ]
        },
        "subject": {
          "reference": "urn:uuid:c2c4d711-5fc9-45dd-a9f8-63c66dfed989",
          "display": "Lydia Ward"
        }
      }
    },
    {
      "fullUrl": "urn:uuid:c2c4d711-5fc9-45dd-a9f8-63c66dfed989",
      "resource": {
        "resourceType": "Patient",
        "id": "c2c4d711-5fc9-45dd-a9f8-63c66dfed989",
        "meta": {
          "security": [
            {
              "system": "http://terminology.hl7.org/CodeSystem/v3-ActReason",
              "code": "HTEST"
            },
            {
              "system": "http://terminology.hl7.org/CodeSystem/v3-ActReason",
              "code": "TRAIN"
            }
          ],
          "tag": [
            {
              "system": "https://synderai.net/fhir/CodeSystem/tags",
              "code": "synthetic",
              "display": "SYNDERAI Synthetic data"
            }
          ],
          "profile": [
            "http://hl7.eu/fhir/base/StructureDefinition/patient-eu-core"
          ]
        },
        "identifier": [
          {
            "type": {
              "coding": [
                {
                  "code": "PT",
                  "system": "http://terminology.hl7.org/CodeSystem/v2-0203"
                }
              ]
            },
            "system": "http://ec.europa.eu/identifier/eci",
            "value": "8944-364030-8"
          },
          {
            "type": {
              "coding": [
                {
                  "code": "MR",
                  "system": "http://terminology.hl7.org/CodeSystem/v2-0203"
                }
              ]
            },
            "system": "http://local.setting.eu/identifier",
            "value": "9edf6b8d-b276-7218-98c6-ccf8d15f2a01"
          }
        ],
        "name": [
          {
            "family": "Ward"
          },
          {
            "given": [
              "Lydia"
            ]
          },
          {
            "text": "Lydia Ward"
          }
        ],
        "address": [
          {
            "line": [
              "6 Hunt radial"
            ],
            "use": "home",
            "type": "physical",
            "postalCode": "EH33",
            "city": "South Rosieside",
            "country": "United Kingdom"
          }
        ],
        "telecom": [
          {
            "system": "phone",
            "value": "01144960349"
          }
        ],
        "extension": [
          {
            "url": "http://hl7.org/fhir/StructureDefinition/patient-nationality",
            "valueCodeableConcept": {
              "coding": [
                {
                  "code": "GB",
                  "system": "http://hl7.org/fhir/ValueSet/country"
                }
              ]
            }
          }
        ],
        "text": {
          "status": "generated",
          "div": "<div xmlns=\"http://www.w3.org/1999/xhtml\"><table class=\"hl7__ips\"><tr><td>Lydia Ward</td><td>female</td><td>27-Dec-1968</td></tr></table></div>"
        },
        "gender": "female",
        "birthDate": "1968-12-27"
      }
    },
    {
      "fullUrl": "urn:uuid:5fef7f2d-26f7-4f81-a772-f62dd33f5c69",
      "resource": {
        "resourceType": "ServiceRequest",
        "id": "5fef7f2d-26f7-4f81-a772-f62dd33f5c69",
        "meta": {
          "profile": [
            "http://hl7.eu/fhir/laboratory/StructureDefinition/ServiceRequest-eu-lab"
          ]
        },
        "identifier": [
          {
            "system": "http://example.org",
            "value": "f1547f9a-987e-4699-b6af-e305e0d4cc96"
          }
        ],
        "specimen": [
          {
            "reference": "urn:uuid:45952c9e-7680-478a-9482-360ddd7d1091"
          }
        ],
        "reasonCode": [
          {
            "coding": [
              {
                "code": "271737000",
                "system": "http://snomed.info/sct",
                "display": "Anemia"
              }
            ]
          },
          {
            "coding": [
              {
                "code": "15777000",
                "system": "http://snomed.info/sct",
                "display": "Prediabetes"
              }
            ]
          }
        ],
        "status": "active",
        "intent": "order",
        "code": {
          "coding": [
            {
              "code": "108252007",
              "system": "http://snomed.info/sct",
              "display": "Laboratory procedure"
            }
          ]
        },
        "subject": {
          "reference": "urn:uuid:c2c4d711-5fc9-45dd-a9f8-63c66dfed989",
          "display": "Lydia Ward"
        },
        "requester": {
          "reference": "urn:uuid:55def840-a26a-4fab-96d2-aa9337c7f9f0"
        }
      }
    },
    {
      "fullUrl": "urn:uuid:55def840-a26a-4fab-96d2-aa9337c7f9f0",
      "resource": {
        "resourceType": "PractitionerRole",
        "id": "55def840-a26a-4fab-96d2-aa9337c7f9f0",
        "meta": {
          "profile": [
            "http://hl7.eu/fhir/base/StructureDefinition/practitionerRole-eu"
          ]
        },
        "text": {
          "status": "generated",
          "div": "<div xmlns=\"http://www.w3.org/1999/xhtml\">Provider Role Id: 55def840-a26a-4fab-96d2-aa9337c7f9f0</div>"
        },
        "organization": {
          "reference": "urn:uuid:803c740a-34ae-4e0a-87e1-e45030a0716a"
        }
      }
    },
    {
      "fullUrl": "urn:uuid:803c740a-34ae-4e0a-87e1-e45030a0716a",
      "resource": {
        "resourceType": "Organization",
        "id": "803c740a-34ae-4e0a-87e1-e45030a0716a",
        "meta": {
          "profile": [
            "http://hl7.eu/fhir/base/StructureDefinition/organization-eu"
          ]
        },
        "identifier": [
          {
            "assigner": {
              "display": "HL7 Europe"
            },
            "system": "urn:oid:2.16.840.1.113883.2.51.999",
            "value": "a68d80fb-b032-4569-9c2a-401136ee3a3d"
          }
        ],
        "address": [
          {
            "city": "Edinburgh",
            "postalCode": "EH9 2",
            "country": "United Kingdom"
          }
        ],
        "text": {
          "status": "generated",
          "div": "<div xmlns=\"http://www.w3.org/1999/xhtml\">Provider Organization: Royal Hospital for Sick Children</div>"
        },
        "name": "Royal Hospital for Sick Children"
      }
    },
    {
      "fullUrl": "urn:uuid:45952c9e-7680-478a-9482-360ddd7d1091",
      "resource": {
        "resourceType": "Specimen",
        "id": "45952c9e-7680-478a-9482-360ddd7d1091",
        "meta": {
          "profile": [
            "http://hl7.eu/fhir/laboratory/StructureDefinition/Specimen-eu-lab"
          ]
        },
        "collection": {
          "collectedDateTime": "2020-02-07"
        },
        "text": {
          "status": "generated",
          "div": "<div xmlns=\"http://www.w3.org/1999/xhtml\"><table class=\"hl7__eu__lab__report\"><tr><th>Specimen</th><th>Collection Date</th></tr><tr><td>Whole blood specimen (specimen)</td><td><span class=\"nb\">07-Feb-2020</span></td></tr></table></div>"
        },
        "type": {
          "coding": [
            {
              "code": "258580003",
              "system": "http://snomed.info/sct",
              "display": "Whole blood specimen (specimen)"
            }
          ]
        }
      }
    },
    {
      "fullUrl": "urn:uuid:d3a0ee53-54c1-42e6-bc04-48016904a7ca",
      "resource": {
        "resourceType": "Observation",
        "id": "d3a0ee53-54c1-42e6-bc04-48016904a7ca",
        "meta": {
          "profile": [
            "http://hl7.eu/fhir/laboratory/StructureDefinition/Observation-resultslab-eu-lab"
          ]
        },
        "performer": [
          {
            "display": "The Central European Lab"
          }
        ],
        "category": [
          {
            "coding": [
              {
                "system": "http://terminology.hl7.org/CodeSystem/observation-category",
                "code": "laboratory"
              }
            ]
          }
        ],
        "code": {
          "coding": [
            {
              "code": "4548-4",
              "system": "http://loinc.org",
              "display": "Hemoglobin A1c/Hemoglobin.total in Blood"
            }
          ],
          "text": "Hemoglobin A1c/Hemoglobin.total in Blood"
        },
        "valueQuantity": {
          "system": "http://unitsofmeasure.org",
          "value": 5.9,
          "unit": "%",
          "code": "%"
        },
        "referenceRange": [
          {
            "low": {
              "value": 4,
              "code": "%",
              "system": "http://unitsofmeasure.org"
            }
          },
          {
            "high": {
              "value": 6,
              "code": "%",
              "system": "http://unitsofmeasure.org"
            }
          }
        ],
        "text": {
          "status": "generated",
          "div": "<div xmlns=\"http://www.w3.org/1999/xhtml\"><table class=\"hl7__eu__lab__report\"><tr><th>Test</th><th>08-Feb-2020</th><th>Reference&#xA0;Range</th><th>Unit</th></tr><tr><td>Hemoglobin A1c/Hemoglobin.total in Blood</td><td>5.9</td><td>4 - 6</td><td></td><td>%</td></tr></table></div>"
        },
        "status": "final",
        "subject": {
          "reference": "urn:uuid:c2c4d711-5fc9-45dd-a9f8-63c66dfed989",
          "display": "Lydia Ward"
        },
        "effectiveDateTime": "2020-02-07T23:08:09Z",
        "specimen": {
          "reference": "urn:uuid:45952c9e-7680-478a-9482-360ddd7d1091"
        }
      }
    },
    {
      "fullUrl": "urn:uuid:cee5b715-0b7d-4795-848f-9b8c4ce68238",
      "resource": {
        "resourceType": "Observation",
        "id": "cee5b715-0b7d-4795-848f-9b8c4ce68238",
        "meta": {
          "profile": [
            "http://hl7.eu/fhir/laboratory/StructureDefinition/Observation-resultslab-eu-lab"
          ]
        },
        "performer": [
          {
            "display": "The Central European Lab"
          }
        ],
        "category": [
          {
            "coding": [
              {
                "system": "http://terminology.hl7.org/CodeSystem/observation-category",
                "code": "laboratory"
              }
            ]
          }
        ],
        "code": {
          "coding": [
            {
              "code": "2339-0",
              "system": "http://loinc.org",
              "display": "Glucose [Mass/volume] in Blood"
            }
          ],
          "text": "Glucose [Mass/volume] in Blood"
        },
        "valueQuantity": {
          "system": "http://unitsofmeasure.org",
          "value": 66.1,
          "unit": "mg/dL",
          "code": "mg/dL"
        },
        "referenceRange": [
          {
            "low": {
              "value": 70,
              "code": "mg/dL",
              "system": "http://unitsofmeasure.org"
            }
          },
          {
            "high": {
              "value": 140,
              "code": "mg/dL",
              "system": "http://unitsofmeasure.org"
            }
          }
        ],
        "interpretation": [
          {
            "coding": [
              {
                "code": "L",
                "system": "http://terminology.hl7.org/CodeSystem/v3-ObservationInterpretation",
                "display": "Low"
              }
            ]
          }
        ],
        "text": {
          "status": "generated",
          "div": "<div xmlns=\"http://www.w3.org/1999/xhtml\"><table class=\"hl7__eu__lab__report\"><tr><th>Test</th><th>08-Feb-2020</th><th>Reference&#xA0;Range</th><th>Unit</th></tr><tr><td>Glucose [Mass/volume] in Blood</td><td>66.1</td><td>70 - 140</td><td>L</td><td>mg/dL</td></tr></table></div>"
        },
        "status": "final",
        "subject": {
          "reference": "urn:uuid:c2c4d711-5fc9-45dd-a9f8-63c66dfed989",
          "display": "Lydia Ward"
        },
        "effectiveDateTime": "2020-02-07T23:08:09Z",
        "specimen": {
          "reference": "urn:uuid:45952c9e-7680-478a-9482-360ddd7d1091"
        }
      }
    },
    {
      "fullUrl": "urn:uuid:c8119e7b-9dd0-4e66-b045-7c25f9bbb932",
      "resource": {
        "resourceType": "Observation",
        "id": "c8119e7b-9dd0-4e66-b045-7c25f9bbb932",
        "meta": {
          "profile": [
            "http://hl7.eu/fhir/laboratory/StructureDefinition/Observation-resultslab-eu-lab"
          ]
        },
        "performer": [
          {
            "display": "The Central European Lab"
          }
        ],
        "category": [
          {
            "coding": [
              {
                "system": "http://terminology.hl7.org/CodeSystem/observation-category",
                "code": "laboratory"
              }
            ]
          }
        ],
        "code": {
          "coding": [
            {
              "code": "6299-2",
              "system": "http://loinc.org",
              "display": "Urea nitrogen [Mass/volume] in Blood"
            }
          ],
          "text": "Urea nitrogen [Mass/volume] in Blood"
        },
        "valueQuantity": {
          "system": "http://unitsofmeasure.org",
          "value": 10.4,
          "unit": "mg/dL",
          "code": "mg/dL"
        },
        "referenceRange": [
          {
            "low": {
              "value": 7,
              "code": "mg/dL",
              "system": "http://unitsofmeasure.org"
            }
          },
          {
            "high": {
              "value": 45,
              "code": "mg/dL",
              "system": "http://unitsofmeasure.org"
            }
          }
        ],
        "text": {
          "status": "generated",
          "div": "<div xmlns=\"http://www.w3.org/1999/xhtml\"><table class=\"hl7__eu__lab__report\"><tr><th>Test</th><th>08-Feb-2020</th><th>Reference&#xA0;Range</th><th>Unit</th></tr><tr><td>Urea nitrogen [Mass/volume] in Blood</td><td>10.4</td><td>7 - 45</td><td></td><td>mg/dL</td></tr></table></div>"
        },
        "status": "final",
        "subject": {
          "reference": "urn:uuid:c2c4d711-5fc9-45dd-a9f8-63c66dfed989",
          "display": "Lydia Ward"
        },
        "effectiveDateTime": "2020-02-07T23:08:09Z",
        "specimen": {
          "reference": "urn:uuid:45952c9e-7680-478a-9482-360ddd7d1091"
        }
      }
    },
    {
      "fullUrl": "urn:uuid:d0029f48-185a-4a69-a954-d982fedb6ddf",
      "resource": {
        "resourceType": "Observation",
        "id": "d0029f48-185a-4a69-a954-d982fedb6ddf",
        "meta": {
          "profile": [
            "http://hl7.eu/fhir/laboratory/StructureDefinition/Observation-resultslab-eu-lab"
          ]
        },
        "performer": [
          {
            "display": "The Central European Lab"
          }
        ],
        "category": [
          {
            "coding": [
              {
                "system": "http://terminology.hl7.org/CodeSystem/observation-category",
                "code": "laboratory"
              }
            ]
          }
        ],
        "code": {
          "coding": [
            {
              "code": "38483-4",
              "system": "http://loinc.org",
              "display": "Creatinine [Mass/volume] in Blood"
            }
          ],
          "text": "Creatinine [Mass/volume] in Blood"
        },
        "valueQuantity": {
          "system": "http://unitsofmeasure.org",
          "value": 0.9,
          "unit": "mg/dL",
          "code": "mg/dL"
        },
        "referenceRange": [
          {
            "low": {
              "value": 0.6,
              "code": "mg/dL",
              "system": "http://unitsofmeasure.org"
            }
          },
          {
            "high": {
              "value": 1.1,
              "code": "mg/dL",
              "system": "http://unitsofmeasure.org"
            }
          }
        ],
        "text": {
          "status": "generated",
          "div": "<div xmlns=\"http://www.w3.org/1999/xhtml\"><table class=\"hl7__eu__lab__report\"><tr><th>Test</th><th>08-Feb-2020</th><th>Reference&#xA0;Range</th><th>Unit</th></tr><tr><td>Creatinine [Mass/volume] in Blood</td><td>0.9</td><td>0.6 - 1.1</td><td></td><td>mg/dL</td></tr></table></div>"
        },
        "status": "final",
        "subject": {
          "reference": "urn:uuid:c2c4d711-5fc9-45dd-a9f8-63c66dfed989",
          "display": "Lydia Ward"
        },
        "effectiveDateTime": "2020-02-07T23:08:09Z",
        "specimen": {
          "reference": "urn:uuid:45952c9e-7680-478a-9482-360ddd7d1091"
        }
      }
    },
    {
      "fullUrl": "urn:uuid:aef3a49a-4c4e-44e8-8c46-ed56656f6104",
      "resource": {
        "resourceType": "Observation",
        "id": "aef3a49a-4c4e-44e8-8c46-ed56656f6104",
        "meta": {
          "profile": [
            "http://hl7.eu/fhir/laboratory/StructureDefinition/Observation-resultslab-eu-lab"
          ]
        },
        "performer": [
          {
            "display": "The Central European Lab"
          }
        ],
        "category": [
          {
            "coding": [
              {
                "system": "http://terminology.hl7.org/CodeSystem/observation-category",
                "code": "laboratory"
              }
            ]
          }
        ],
        "code": {
          "coding": [
            {
              "code": "49765-1",
              "system": "http://loinc.org",
              "display": "Calcium [Mass/volume] in Blood"
            }
          ],
          "text": "Calcium [Mass/volume] in Blood"
        },
        "valueQuantity": {
          "system": "http://unitsofmeasure.org",
          "value": 9.1,
          "unit": "mg/dL",
          "code": "mg/dL"
        },
        "referenceRange": [
          {
            "low": {
              "value": 8.5,
              "code": "mg/dL",
              "system": "http://unitsofmeasure.org"
            }
          },
          {
            "high": {
              "value": 10.5,
              "code": "mg/dL",
              "system": "http://unitsofmeasure.org"
            }
          }
        ],
        "text": {
          "status": "generated",
          "div": "<div xmlns=\"http://www.w3.org/1999/xhtml\"><table class=\"hl7__eu__lab__report\"><tr><th>Test</th><th>08-Feb-2020</th><th>Reference&#xA0;Range</th><th>Unit</th></tr><tr><td>Calcium [Mass/volume] in Blood</td><td>9.1</td><td>8.5 - 10.5</td><td></td><td>mg/dL</td></tr></table></div>"
        },
        "status": "final",
        "subject": {
          "reference": "urn:uuid:c2c4d711-5fc9-45dd-a9f8-63c66dfed989",
          "display": "Lydia Ward"
        },
        "effectiveDateTime": "2020-02-07T23:08:09Z",
        "specimen": {
          "reference": "urn:uuid:45952c9e-7680-478a-9482-360ddd7d1091"
        }
      }
    },
    {
      "fullUrl": "urn:uuid:8c6804a7-e27a-443d-a415-8d95a3072244",
      "resource": {
        "resourceType": "Observation",
        "id": "8c6804a7-e27a-443d-a415-8d95a3072244",
        "meta": {
          "profile": [
            "http://hl7.eu/fhir/laboratory/StructureDefinition/Observation-resultslab-eu-lab"
          ]
        },
        "performer": [
          {
            "display": "The Central European Lab"
          }
        ],
        "category": [
          {
            "coding": [
              {
                "system": "http://terminology.hl7.org/CodeSystem/observation-category",
                "code": "laboratory"
              }
            ]
          }
        ],
        "code": {
          "coding": [
            {
              "code": "2947-0",
              "system": "http://loinc.org",
              "display": "Sodium [Moles/volume] in Blood"
            }
          ],
          "text": "Sodium [Moles/volume] in Blood"
        },
        "valueQuantity": {
          "system": "http://unitsofmeasure.org",
          "value": 138,
          "unit": "mmol/L",
          "code": "mmol/L"
        },
        "referenceRange": [
          {
            "low": {
              "value": 135,
              "code": "mmol/L",
              "system": "http://unitsofmeasure.org"
            }
          },
          {
            "high": {
              "value": 145,
              "code": "mmol/L",
              "system": "http://unitsofmeasure.org"
            }
          }
        ],
        "text": {
          "status": "generated",
          "div": "<div xmlns=\"http://www.w3.org/1999/xhtml\"><table class=\"hl7__eu__lab__report\"><tr><th>Test</th><th>08-Feb-2020</th><th>Reference&#xA0;Range</th><th>Unit</th></tr><tr><td>Sodium [Moles/volume] in Blood</td><td>138.0</td><td>135 - 145</td><td></td><td>mmol/L</td></tr></table></div>"
        },
        "status": "final",
        "subject": {
          "reference": "urn:uuid:c2c4d711-5fc9-45dd-a9f8-63c66dfed989",
          "display": "Lydia Ward"
        },
        "effectiveDateTime": "2020-02-07T23:08:09Z",
        "specimen": {
          "reference": "urn:uuid:45952c9e-7680-478a-9482-360ddd7d1091"
        }
      }
    },
    {
      "fullUrl": "urn:uuid:282f6408-0dae-4de7-841a-6b0dce75a607",
      "resource": {
        "resourceType": "Observation",
        "id": "282f6408-0dae-4de7-841a-6b0dce75a607",
        "meta": {
          "profile": [
            "http://hl7.eu/fhir/laboratory/StructureDefinition/Observation-resultslab-eu-lab"
          ]
        },
        "performer": [
          {
            "display": "The Central European Lab"
          }
        ],
        "category": [
          {
            "coding": [
              {
                "system": "http://terminology.hl7.org/CodeSystem/observation-category",
                "code": "laboratory"
              }
            ]
          }
        ],
        "code": {
          "coding": [
            {
              "code": "6298-4",
              "system": "http://loinc.org",
              "display": "Potassium [Moles/volume] in Blood"
            }
          ],
          "text": "Potassium [Moles/volume] in Blood"
        },
        "valueQuantity": {
          "system": "http://unitsofmeasure.org",
          "value": 5.1,
          "unit": "mmol/L",
          "code": "mmol/L"
        },
        "referenceRange": [
          {
            "low": {
              "value": 3.5,
              "code": "mmol/L",
              "system": "http://unitsofmeasure.org"
            }
          },
          {
            "high": {
              "value": 5.1,
              "code": "mmol/L",
              "system": "http://unitsofmeasure.org"
            }
          }
        ],
        "text": {
          "status": "generated",
          "div": "<div xmlns=\"http://www.w3.org/1999/xhtml\"><table class=\"hl7__eu__lab__report\"><tr><th>Test</th><th>08-Feb-2020</th><th>Reference&#xA0;Range</th><th>Unit</th></tr><tr><td>Potassium [Moles/volume] in Blood</td><td>5.1</td><td>3.5 - 5.1</td><td></td><td>mmol/L</td></tr></table></div>"
        },
        "status": "final",
        "subject": {
          "reference": "urn:uuid:c2c4d711-5fc9-45dd-a9f8-63c66dfed989",
          "display": "Lydia Ward"
        },
        "effectiveDateTime": "2020-02-07T23:08:09Z",
        "specimen": {
          "reference": "urn:uuid:45952c9e-7680-478a-9482-360ddd7d1091"
        }
      }
    },
    {
      "fullUrl": "urn:uuid:b7e364e1-c2b8-4c74-b9be-a1a93e402913",
      "resource": {
        "resourceType": "Observation",
        "id": "b7e364e1-c2b8-4c74-b9be-a1a93e402913",
        "meta": {
          "profile": [
            "http://hl7.eu/fhir/laboratory/StructureDefinition/Observation-resultslab-eu-lab"
          ]
        },
        "performer": [
          {
            "display": "The Central European Lab"
          }
        ],
        "category": [
          {
            "coding": [
              {
                "system": "http://terminology.hl7.org/CodeSystem/observation-category",
                "code": "laboratory"
              }
            ]
          }
        ],
        "code": {
          "coding": [
            {
              "code": "2069-3",
              "system": "http://loinc.org",
              "display": "Chloride [Moles/volume] in Blood"
            }
          ],
          "text": "Chloride [Moles/volume] in Blood"
        },
        "valueQuantity": {
          "system": "http://unitsofmeasure.org",
          "value": 110.1,
          "unit": "mmol/L",
          "code": "mmol/L"
        },
        "referenceRange": [
          {
            "low": {
              "value": 98,
              "code": "mmol/L",
              "system": "http://unitsofmeasure.org"
            }
          },
          {
            "high": {
              "value": 107,
              "code": "mmol/L",
              "system": "http://unitsofmeasure.org"
            }
          }
        ],
        "interpretation": [
          {
            "coding": [
              {
                "code": "H",
                "system": "http://terminology.hl7.org/CodeSystem/v3-ObservationInterpretation",
                "display": "High"
              }
            ]
          }
        ],
        "text": {
          "status": "generated",
          "div": "<div xmlns=\"http://www.w3.org/1999/xhtml\"><table class=\"hl7__eu__lab__report\"><tr><th>Test</th><th>08-Feb-2020</th><th>Reference&#xA0;Range</th><th>Unit</th></tr><tr><td>Chloride [Moles/volume] in Blood</td><td>110.1</td><td>98 - 107</td><td>H</td><td>mmol/L</td></tr></table></div>"
        },
        "status": "final",
        "subject": {
          "reference": "urn:uuid:c2c4d711-5fc9-45dd-a9f8-63c66dfed989",
          "display": "Lydia Ward"
        },
        "effectiveDateTime": "2020-02-07T23:08:09Z",
        "specimen": {
          "reference": "urn:uuid:45952c9e-7680-478a-9482-360ddd7d1091"
        }
      }
    },
    {
      "fullUrl": "urn:uuid:aceb6560-d9ba-40db-bfaa-5c16d31d2cb0",
      "resource": {
        "resourceType": "Observation",
        "id": "aceb6560-d9ba-40db-bfaa-5c16d31d2cb0",
        "meta": {
          "profile": [
            "http://hl7.eu/fhir/laboratory/StructureDefinition/Observation-resultslab-eu-lab"
          ]
        },
        "performer": [
          {
            "display": "The Central European Lab"
          }
        ],
        "category": [
          {
            "coding": [
              {
                "system": "http://terminology.hl7.org/CodeSystem/observation-category",
                "code": "laboratory"
              }
            ]
          }
        ],
        "code": {
          "coding": [
            {
              "code": "20565-8",
              "system": "http://loinc.org",
              "display": "Carbon dioxide, total [Moles/volume] in Blood"
            }
          ],
          "text": "Carbon dioxide, total [Moles/volume] in Blood"
        },
        "valueQuantity": {
          "system": "http://unitsofmeasure.org",
          "value": 23.8,
          "unit": "mmol/L",
          "code": "mmol/L"
        },
        "referenceRange": [
          {
            "low": {
              "value": 22,
              "code": "mmol/L",
              "system": "http://unitsofmeasure.org"
            }
          },
          {
            "high": {
              "value": 32,
              "code": "mmol/L",
              "system": "http://unitsofmeasure.org"
            }
          }
        ],
        "text": {
          "status": "generated",
          "div": "<div xmlns=\"http://www.w3.org/1999/xhtml\"><table class=\"hl7__eu__lab__report\"><tr><th>Test</th><th>08-Feb-2020</th><th>Reference&#xA0;Range</th><th>Unit</th></tr><tr><td>Carbon dioxide, total [Moles/volume] in Blood</td><td>23.8</td><td>22 - 32</td><td></td><td>mmol/L</td></tr></table></div>"
        },
        "status": "final",
        "subject": {
          "reference": "urn:uuid:c2c4d711-5fc9-45dd-a9f8-63c66dfed989",
          "display": "Lydia Ward"
        },
        "effectiveDateTime": "2020-02-07T23:08:09Z",
        "specimen": {
          "reference": "urn:uuid:45952c9e-7680-478a-9482-360ddd7d1091"
        }
      }
    },
    {
      "fullUrl": "urn:uuid:4a3261c3-060f-41ac-9d6d-5bfeb3a39369",
      "resource": {
        "resourceType": "Device",
        "id": "4a3261c3-060f-41ac-9d6d-5bfeb3a39369",
        "deviceName": [
          {
            "name": "SYNDERAI Synthetic Generator",
            "type": "manufacturer-name"
          }
        ],
        "version": [
          {
            "value": "5.0"
          }
        ],
        "text": {
          "status": "generated",
          "div": "<div xmlns=\"http://www.w3.org/1999/xhtml\">SYNDERAI Synthetic Generator v5.0</div>"
        },
        "status": "active\"",
        "distinctIdentifier": "synderai-generator-50",
        "manufacturer": "SYNDERAI Project"
      }
    },
    {
      "fullUrl": "urn:uuid:8915c333-44c4-4aee-a98a-1ecfde827b64",
      "resource": {
        "resourceType": "Provenance",
        "id": "8915c333-44c4-4aee-a98a-1ecfde827b64",
        "target": [
          {
            "reference": "Patient/c2c4d711-5fc9-45dd-a9f8-63c66dfed989"
          },
          {
            "reference": "Bundle/7b27ba1c-a860-4e03-93a4-9d80712c3849"
          },
          {
            "reference": "Composition/a3d6bdfd-0774-450c-b6b2-6006186a0c25"
          },
          {
            "reference": "PractitionerRole/0c863637-b3a6-4653-af4f-5a161103ec0d"
          },
          {
            "reference": "Practitioner/3403361c-cf1a-46e5-9454-19b0afc990c2"
          },
          {
            "reference": "PractitionerRole/55def840-a26a-4fab-96d2-aa9337c7f9f0"
          },
          {
            "reference": "Organization/803c740a-34ae-4e0a-87e1-e45030a0716a"
          }
        ],
        "activity": {
          "text": "Synthetic Example Data Generation"
        },
        "policy": [
          "https://synderai.net/synderai-synthetic-data-policy"
        ],
        "agent": [
          {
            "type": {
              "text": "author"
            },
            "who": {
              "reference": "Device/4a3261c3-060f-41ac-9d6d-5bfeb3a39369"
            }
          }
        ],
        "reason": [
          {
            "text": "Interoperability Testing and Training (non-clinical use)"
          }
        ],
        "text": {
          "status": "generated",
          "div": "<div xmlns=\"http://www.w3.org/1999/xhtml\">Provenance for SYNDERAI Synthetic Example Data Resource</div>"
        },
        "recorded": "2020-02-08T00:08:09Z"
      }
    },
    {
      "fullUrl": "urn:uuid:0c863637-b3a6-4653-af4f-5a161103ec0d",
      "resource": {
        "resourceType": "PractitionerRole",
        "id": "0c863637-b3a6-4653-af4f-5a161103ec0d",
        "meta": {
          "profile": [
            "http://hl7.eu/fhir/base/StructureDefinition/practitionerRole-eu"
          ]
        },
        "text": {
          "status": "generated",
          "div": "<div xmlns=\"http://www.w3.org/1999/xhtml\">Laboratory Role Id: 0c863637-b3a6-4653-af4f-5a161103ec0d</div>"
        },
        "practitioner": {
          "reference": "urn:uuid:3403361c-cf1a-46e5-9454-19b0afc990c2"
        }
      }
    },
    {
      "fullUrl": "urn:uuid:3403361c-cf1a-46e5-9454-19b0afc990c2",
      "resource": {
        "resourceType": "Practitioner",
        "id": "3403361c-cf1a-46e5-9454-19b0afc990c2",
        "meta": {
          "profile": [
            "http://hl7.eu/fhir/base/StructureDefinition/practitioner-eu"
          ]
        },
        "identifier": [
          {
            "assigner": {
              "display": "HL7 Europe"
            },
            "system": "urn:oid:2.16.840.1.113883.2.51.999",
            "value": "a3efcee3-c721-4d46-b5c8-6dfcd9a1fcda"
          }
        ],
        "name": [
          {
            "prefix": [
              "dr"
            ],
            "given": [
              "Ex"
            ],
            "family": "Ample"
          }
        ],
        "address": [
          {
            "line": [
              "Laboratoire Central Européenne",
              "Boulevard du Jardin Botanique 32"
            ],
            "postalCode": "1000",
            "city": "Brussels",
            "country": "Belgium"
          }
        ],
        "text": {
          "status": "generated",
          "div": "<div xmlns=\"http://www.w3.org/1999/xhtml\">Laboratory: Laboratoire Central Européenne, 1000 Brussels, Belgium</div>"
        }
      }
    }
  ],
  "type": "document",
  "timestamp": "2020-02-08T00:08:09Z"
}
