{
  "resourceType": "Bundle",
  "id": "77079d7e-5de3-4f3f-a7e1-e974803bc327",
  "meta": {
    "profile": [
      "http://hl7.eu/fhir/laboratory/StructureDefinition/Bundle-eu-lab"
    ]
  },
  "identifier": {
    "assigner": {
      "display": "HL7 Europe"
    },
    "system": "urn:oid:2.16.840.1.113883.2.51.999",
    "value": "6b7c3440-3d9d-49ab-8117-e78f6690afcf"
  },
  "entry": [
    {
      "fullUrl": "urn:uuid:175a14b9-53b9-48c8-8959-e6b746cb903d",
      "resource": {
        "resourceType": "Composition",
        "id": "175a14b9-53b9-48c8-8959-e6b746cb903d",
        "meta": {
          "profile": [
            "http://hl7.eu/fhir/laboratory/StructureDefinition/Composition-eu-lab"
          ]
        },
        "identifier": {
          "assigner": {
            "display": "HL7 Europe"
          },
          "system": "urn:oid:2.16.840.1.113883.2.51.999",
          "value": "ccddd2fe-4697-4905-8129-1872435b0e03"
        },
        "author": [
          {
            "reference": "urn:uuid:70f5f7fa-bb1b-4a07-8ed1-e7ab5ee6aaf6"
          }
        ],
        "category": [
          {
            "coding": [
              {
                "code": "26436-6",
                "system": "http://loinc.org",
                "display": "Laboratory studies (set)"
              }
            ]
          }
        ],
        "type": {
          "coding": [
            {
              "code": "11502-2",
              "system": "http://loinc.org",
              "display": "Laboratory report"
            }
          ],
          "text": "Laboratory Report"
        },
        "section": [
          {
            "code": {
              "coding": [
                {
                  "code": "26436-6",
                  "system": "http://loinc.org",
                  "display": "Laboratory studies (set)"
                }
              ],
              "text": "Laboratory studies"
            },
            "section": [
              {
                "code": {
                  "coding": [
                    {
                      "code": "$18719-5",
                      "system": "http://loinc.org",
                      "display": "Chemistry studies (set)"
                    }
                  ],
                  "text": "Chemistry"
                },
                "entry": [
                  {
                    "reference": "urn:uuid:d373a93e-04ea-4c90-b76b-803e48424661"
                  },
                  {
                    "reference": "urn:uuid:c49e1d71-3223-47dd-903e-7619074a9fbb"
                  },
                  {
                    "reference": "urn:uuid:39066285-319b-4683-bdbf-5c7fe162508a"
                  },
                  {
                    "reference": "urn:uuid:27d4c2fc-8d76-4bd7-b2cc-32df2473db52"
                  },
                  {
                    "reference": "urn:uuid:4c7f990b-424a-498c-aeae-f11c85d02781"
                  },
                  {
                    "reference": "urn:uuid:11b5c654-9157-4b9c-8624-d5c2243bc906"
                  },
                  {
                    "reference": "urn:uuid:76030c92-16c8-4273-b710-e961d826382b"
                  },
                  {
                    "reference": "urn:uuid:a7b2bca0-997e-41c2-b4a0-0bfef46c07ab"
                  },
                  {
                    "reference": "urn:uuid:8696acee-9d50-4349-9094-e4cfc7273f88"
                  }
                ],
                "text": {
                  "status": "generated",
                  "div": "<div xmlns=\"http://www.w3.org/1999/xhtml\"><h3>Chemistry</h3><table class=\"hl7__eu__lab__report\"><thead><tr><th>Test</th><th>05-MAR-2017</th><th>Reference&#xA0;Range</th><th>Unit</th></tr></thead><tbody><tr><td>Hemoglobin A1c/Hemoglobin.total in Blood</td><td><strong>3.9 L</strong></td><td>4 - 6</td><td>%</td></tr><tr><td>Glucose [Mass/volume] in Blood</td><td>73.8</td><td>70 - 140</td><td>mg/dL</td></tr><tr><td>Urea nitrogen [Mass/volume] in Blood</td><td>11.9</td><td>7 - 20</td><td>mg/dL</td></tr><tr><td>Creatinine [Mass/volume] in Blood</td><td>0.5</td><td>0.5 - 1.3</td><td>mg/dL</td></tr><tr><td>Calcium [Mass/volume] in Blood</td><td>9.8</td><td>8.5 - 10.5</td><td>mg/dL</td></tr><tr><td>Sodium [Moles/volume] in Blood</td><td>137.2</td><td>135 - 145</td><td>mmol/L</td></tr><tr><td>Potassium [Moles/volume] in Blood</td><td>5.1</td><td>3.5 - 5.1</td><td>mmol/L</td></tr><tr><td>Chloride [Moles/volume] in Blood</td><td>104.5</td><td>98 - 108</td><td>mmol/L</td></tr><tr><td>Carbon dioxide, total [Moles/volume] in Blood</td><td>25.0</td><td>22 - 29</td><td>mmol/L</td></tr></tbody></table></div>"
                },
                "title": "Chemistry"
              }
            ],
            "title": "Laboratory Report"
          },
          {
            "text": {
              "status": "generated",
              "div": "<div xmlns=\"http://www.w3.org/1999/xhtml\"><h3>Annotation</h3><table class=\"hl7__eu__lab__report\"><tr><th>Conclusion and Recommendations based on this report and previous findings known to us</th></tr><tr><td>All measured parameters are within normal limits except for a slightly low HbA1c, which may suggest recent hypoglycemia or tight glycemic control. Glucose is at the lower end of normal. Renal function, electrolytes, and calcium are unremarkable. No acute laboratory abnormalities detected; clinical correlation recommended, especially regarding glycemic management.</td></tr></table></div>"
            },
            "code": {
              "coding": [
                {
                  "system": "http://loinc.org",
                  "code": "48767-8",
                  "display": "Annotation comment"
                }
              ]
            },
            "title": "Annotation comment"
          }
        ],
        "status": "final",
        "subject": {
          "reference": "urn:uuid:5bef4e21-b618-4048-9f55-f2cf9fab5f5b",
          "display": "Marlene Gerlach"
        },
        "date": "2017-03-05T20:24:33Z",
        "title": "Laboratory Report",
        "confidentiality": "N"
      }
    },
    {
      "fullUrl": "urn:uuid:31a98613-bc23-4dbb-9cba-0cfad42cc199",
      "resource": {
        "resourceType": "DiagnosticReport",
        "id": "31a98613-bc23-4dbb-9cba-0cfad42cc199",
        "meta": {
          "profile": [
            "http://hl7.eu/fhir/laboratory/StructureDefinition/DiagnosticReport-eu-lab"
          ]
        },
        "identifier": [
          {
            "assigner": {
              "display": "HL7 Europe"
            },
            "system": "urn:oid:2.16.840.1.113883.2.51.999",
            "value": "9d21c18f-4cc3-469b-8ab9-8ce8a22d1e6c"
          }
        ],
        "extension": [
          {
            "url": "http://hl7.org/fhir/5.0/StructureDefinition/extension-DiagnosticReport.composition",
            "valueReference": {
              "reference": "urn:uuid:ccddd2fe-4697-4905-8129-1872435b0e03"
            }
          }
        ],
        "category": [
          {
            "coding": [
              {
                "code": "26436-6",
                "system": "http://loinc.org",
                "display": "Laboratory studies (set)"
              }
            ]
          }
        ],
        "specimen": [
          {
            "reference": "urn:uuid:9d2a09b7-0154-4d52-b749-18b01b4dc835"
          }
        ],
        "result": [
          {
            "reference": "urn:uuid:d373a93e-04ea-4c90-b76b-803e48424661"
          },
          {
            "reference": "urn:uuid:c49e1d71-3223-47dd-903e-7619074a9fbb"
          },
          {
            "reference": "urn:uuid:39066285-319b-4683-bdbf-5c7fe162508a"
          },
          {
            "reference": "urn:uuid:27d4c2fc-8d76-4bd7-b2cc-32df2473db52"
          },
          {
            "reference": "urn:uuid:4c7f990b-424a-498c-aeae-f11c85d02781"
          },
          {
            "reference": "urn:uuid:11b5c654-9157-4b9c-8624-d5c2243bc906"
          },
          {
            "reference": "urn:uuid:76030c92-16c8-4273-b710-e961d826382b"
          },
          {
            "reference": "urn:uuid:a7b2bca0-997e-41c2-b4a0-0bfef46c07ab"
          },
          {
            "reference": "urn:uuid:8696acee-9d50-4349-9094-e4cfc7273f88"
          }
        ],
        "status": "registered",
        "code": {
          "coding": [
            {
              "code": "11502-2",
              "system": "http://loinc.org",
              "display": "Laboratory report"
            }
          ]
        },
        "subject": {
          "reference": "urn:uuid:5bef4e21-b618-4048-9f55-f2cf9fab5f5b",
          "display": "Marlene Gerlach"
        }
      }
    },
    {
      "fullUrl": "urn:uuid:5bef4e21-b618-4048-9f55-f2cf9fab5f5b",
      "resource": {
        "resourceType": "Patient",
        "id": "5bef4e21-b618-4048-9f55-f2cf9fab5f5b",
        "meta": {
          "security": [
            {
              "system": "http://terminology.hl7.org/CodeSystem/v3-ActReason",
              "code": "HTEST"
            },
            {
              "system": "http://terminology.hl7.org/CodeSystem/v3-ActReason",
              "code": "TRAIN"
            }
          ],
          "tag": [
            {
              "system": "https://synderai.net/fhir/CodeSystem/tags",
              "code": "synthetic",
              "display": "SYNDERAI Synthetic data"
            }
          ],
          "profile": [
            "http://hl7.eu/fhir/base/StructureDefinition/patient-eu-core"
          ]
        },
        "identifier": [
          {
            "type": {
              "coding": [
                {
                  "code": "PT",
                  "system": "http://terminology.hl7.org/CodeSystem/v2-0203"
                }
              ]
            },
            "system": "http://ec.europa.eu/identifier/eci",
            "value": "4536-398571-9"
          },
          {
            "type": {
              "coding": [
                {
                  "code": "MR",
                  "system": "http://terminology.hl7.org/CodeSystem/v2-0203"
                }
              ]
            },
            "system": "http://local.setting.eu/identifier",
            "value": "ff7a4ff6-4bac-f07f-03c9-b91b1e1cfb23"
          }
        ],
        "name": [
          {
            "family": "Gerlach"
          },
          {
            "given": [
              "Marlene"
            ]
          },
          {
            "text": "Marlene Gerlach"
          }
        ],
        "address": [
          {
            "line": [
              "Etzlerplatz 57-53"
            ],
            "use": "home",
            "type": "physical",
            "postalCode": "71522",
            "city": "Backnang",
            "country": "Germany"
          }
        ],
        "telecom": [
          {
            "system": "phone",
            "value": "+49(0)2700 61724"
          }
        ],
        "extension": [
          {
            "url": "http://hl7.org/fhir/StructureDefinition/patient-nationality",
            "valueCodeableConcept": {
              "coding": [
                {
                  "code": "DE",
                  "system": "http://hl7.org/fhir/ValueSet/country"
                }
              ]
            }
          }
        ],
        "text": {
          "status": "generated",
          "div": "<div xmlns=\"http://www.w3.org/1999/xhtml\"><table class=\"hl7__ips\"><tr><td>Marlene Gerlach</td><td>female</td><td>28-Aug-1939</td></tr></table></div>"
        },
        "gender": "female",
        "birthDate": "1939-08-28"
      }
    },
    {
      "fullUrl": "urn:uuid:9ade5c00-8e0c-43a0-9a52-61f244c3a8cf",
      "resource": {
        "resourceType": "ServiceRequest",
        "id": "9ade5c00-8e0c-43a0-9a52-61f244c3a8cf",
        "meta": {
          "profile": [
            "http://hl7.eu/fhir/laboratory/StructureDefinition/ServiceRequest-eu-lab"
          ]
        },
        "identifier": [
          {
            "system": "http://example.org",
            "value": "7ca7c151-9022-4fe6-be83-9c7b11c14396"
          }
        ],
        "specimen": [
          {
            "reference": "urn:uuid:9d2a09b7-0154-4d52-b749-18b01b4dc835"
          }
        ],
        "reasonCode": [
          {
            "coding": [
              {
                "code": "55822004",
                "system": "http://snomed.info/sct",
                "display": "Hyperlipidemia"
              }
            ]
          },
          {
            "coding": [
              {
                "code": "414545008",
                "system": "http://snomed.info/sct",
                "display": "Ischemic heart disease"
              }
            ]
          },
          {
            "coding": [
              {
                "code": "157141000119108",
                "system": "http://snomed.info/sct",
                "display": "Proteinuria due to type 2 diabetes mellitus"
              }
            ]
          },
          {
            "coding": [
              {
                "code": "90781000119102",
                "system": "http://snomed.info/sct",
                "display": "Microalbuminuria due to type 2 diabetes mellitus"
              }
            ]
          },
          {
            "coding": [
              {
                "code": "127013003",
                "system": "http://snomed.info/sct",
                "display": "Disorder of kidney due to diabetes mellitus"
              }
            ]
          },
          {
            "coding": [
              {
                "code": "271737000",
                "system": "http://snomed.info/sct",
                "display": "Anemia"
              }
            ]
          },
          {
            "coding": [
              {
                "code": "15777000",
                "system": "http://snomed.info/sct",
                "display": "Prediabetes"
              }
            ]
          },
          {
            "coding": [
              {
                "code": "59621000",
                "system": "http://snomed.info/sct",
                "display": "Essential hypertension"
              }
            ]
          }
        ],
        "status": "active",
        "intent": "order",
        "code": {
          "coding": [
            {
              "code": "108252007",
              "system": "http://snomed.info/sct",
              "display": "Laboratory procedure"
            }
          ]
        },
        "subject": {
          "reference": "urn:uuid:5bef4e21-b618-4048-9f55-f2cf9fab5f5b",
          "display": "Marlene Gerlach"
        },
        "requester": {
          "reference": "urn:uuid:f45d6088-e6fb-4e53-a960-d897d47ace6c"
        }
      }
    },
    {
      "fullUrl": "urn:uuid:f45d6088-e6fb-4e53-a960-d897d47ace6c",
      "resource": {
        "resourceType": "PractitionerRole",
        "id": "f45d6088-e6fb-4e53-a960-d897d47ace6c",
        "meta": {
          "profile": [
            "http://hl7.eu/fhir/base/StructureDefinition/practitionerRole-eu"
          ]
        },
        "text": {
          "status": "generated",
          "div": "<div xmlns=\"http://www.w3.org/1999/xhtml\">Provider Role Id: f45d6088-e6fb-4e53-a960-d897d47ace6c</div>"
        },
        "organization": {
          "reference": "urn:uuid:8b0b9ea7-9aaa-4415-a3fc-f9fceead71f2"
        }
      }
    },
    {
      "fullUrl": "urn:uuid:8b0b9ea7-9aaa-4415-a3fc-f9fceead71f2",
      "resource": {
        "resourceType": "Organization",
        "id": "8b0b9ea7-9aaa-4415-a3fc-f9fceead71f2",
        "meta": {
          "profile": [
            "http://hl7.eu/fhir/base/StructureDefinition/organization-eu"
          ]
        },
        "identifier": [
          {
            "assigner": {
              "display": "HL7 Europe"
            },
            "system": "urn:oid:2.16.840.1.113883.2.51.999",
            "value": "358b8d41-2bb8-447b-b4c3-3dbeefde0c85"
          }
        ],
        "address": [
          {
            "line": [
              "Karl-Krische-Straße 4"
            ],
            "city": "Backnang",
            "postalCode": "71522",
            "country": "Germany"
          }
        ],
        "text": {
          "status": "generated",
          "div": "<div xmlns=\"http://www.w3.org/1999/xhtml\">Provider Organization: Gesundheitszentrum</div>"
        },
        "name": "Gesundheitszentrum"
      }
    },
    {
      "fullUrl": "urn:uuid:9d2a09b7-0154-4d52-b749-18b01b4dc835",
      "resource": {
        "resourceType": "Specimen",
        "id": "9d2a09b7-0154-4d52-b749-18b01b4dc835",
        "meta": {
          "profile": [
            "http://hl7.eu/fhir/laboratory/StructureDefinition/Specimen-eu-lab"
          ]
        },
        "collection": {
          "collectedDateTime": "2017-03-05"
        },
        "text": {
          "status": "generated",
          "div": "<div xmlns=\"http://www.w3.org/1999/xhtml\"><table class=\"hl7__eu__lab__report\"><tr><th>Specimen</th><th>Collection Date</th></tr><tr><td>Whole blood specimen (specimen)</td><td><span class=\"nb\">05-Mar-2017</span></td></tr></table></div>"
        },
        "type": {
          "coding": [
            {
              "code": "258580003",
              "system": "http://snomed.info/sct",
              "display": "Whole blood specimen (specimen)"
            }
          ]
        }
      }
    },
    {
      "fullUrl": "urn:uuid:d373a93e-04ea-4c90-b76b-803e48424661",
      "resource": {
        "resourceType": "Observation",
        "id": "d373a93e-04ea-4c90-b76b-803e48424661",
        "meta": {
          "profile": [
            "http://hl7.eu/fhir/laboratory/StructureDefinition/Observation-resultslab-eu-lab"
          ]
        },
        "performer": [
          {
            "display": "The Central European Lab"
          }
        ],
        "category": [
          {
            "coding": [
              {
                "system": "http://terminology.hl7.org/CodeSystem/observation-category",
                "code": "laboratory"
              }
            ]
          }
        ],
        "code": {
          "coding": [
            {
              "code": "4548-4",
              "system": "http://loinc.org",
              "display": "Hemoglobin A1c/Hemoglobin.total in Blood"
            }
          ],
          "text": "Hemoglobin A1c/Hemoglobin.total in Blood"
        },
        "valueQuantity": {
          "system": "http://unitsofmeasure.org",
          "value": 3.9,
          "unit": "%",
          "code": "%"
        },
        "referenceRange": [
          {
            "low": {
              "value": 4,
              "code": "%",
              "system": "http://unitsofmeasure.org"
            }
          },
          {
            "high": {
              "value": 6,
              "code": "%",
              "system": "http://unitsofmeasure.org"
            }
          }
        ],
        "interpretation": [
          {
            "coding": [
              {
                "code": "L",
                "system": "http://terminology.hl7.org/CodeSystem/v3-ObservationInterpretation",
                "display": "Low"
              }
            ]
          }
        ],
        "text": {
          "status": "generated",
          "div": "<div xmlns=\"http://www.w3.org/1999/xhtml\"><table class=\"hl7__eu__lab__report\"><tr><th>Test</th><th>05-Mar-2017</th><th>Reference&#xA0;Range</th><th>Unit</th></tr><tr><td>Hemoglobin A1c/Hemoglobin.total in Blood</td><td>3.9</td><td>4 - 6</td><td>L</td><td>%</td></tr></table></div>"
        },
        "status": "final",
        "subject": {
          "reference": "urn:uuid:5bef4e21-b618-4048-9f55-f2cf9fab5f5b",
          "display": "Marlene Gerlach"
        },
        "effectiveDateTime": "2017-03-05T19:24:33Z",
        "specimen": {
          "reference": "urn:uuid:9d2a09b7-0154-4d52-b749-18b01b4dc835"
        }
      }
    },
    {
      "fullUrl": "urn:uuid:c49e1d71-3223-47dd-903e-7619074a9fbb",
      "resource": {
        "resourceType": "Observation",
        "id": "c49e1d71-3223-47dd-903e-7619074a9fbb",
        "meta": {
          "profile": [
            "http://hl7.eu/fhir/laboratory/StructureDefinition/Observation-resultslab-eu-lab"
          ]
        },
        "performer": [
          {
            "display": "The Central European Lab"
          }
        ],
        "category": [
          {
            "coding": [
              {
                "system": "http://terminology.hl7.org/CodeSystem/observation-category",
                "code": "laboratory"
              }
            ]
          }
        ],
        "code": {
          "coding": [
            {
              "code": "2339-0",
              "system": "http://loinc.org",
              "display": "Glucose [Mass/volume] in Blood"
            }
          ],
          "text": "Glucose [Mass/volume] in Blood"
        },
        "valueQuantity": {
          "system": "http://unitsofmeasure.org",
          "value": 73.8,
          "unit": "mg/dL",
          "code": "mg/dL"
        },
        "referenceRange": [
          {
            "low": {
              "value": 70,
              "code": "mg/dL",
              "system": "http://unitsofmeasure.org"
            }
          },
          {
            "high": {
              "value": 140,
              "code": "mg/dL",
              "system": "http://unitsofmeasure.org"
            }
          }
        ],
        "text": {
          "status": "generated",
          "div": "<div xmlns=\"http://www.w3.org/1999/xhtml\"><table class=\"hl7__eu__lab__report\"><tr><th>Test</th><th>05-Mar-2017</th><th>Reference&#xA0;Range</th><th>Unit</th></tr><tr><td>Glucose [Mass/volume] in Blood</td><td>73.8</td><td>70 - 140</td><td></td><td>mg/dL</td></tr></table></div>"
        },
        "status": "final",
        "subject": {
          "reference": "urn:uuid:5bef4e21-b618-4048-9f55-f2cf9fab5f5b",
          "display": "Marlene Gerlach"
        },
        "effectiveDateTime": "2017-03-05T19:24:33Z",
        "specimen": {
          "reference": "urn:uuid:9d2a09b7-0154-4d52-b749-18b01b4dc835"
        }
      }
    },
    {
      "fullUrl": "urn:uuid:39066285-319b-4683-bdbf-5c7fe162508a",
      "resource": {
        "resourceType": "Observation",
        "id": "39066285-319b-4683-bdbf-5c7fe162508a",
        "meta": {
          "profile": [
            "http://hl7.eu/fhir/laboratory/StructureDefinition/Observation-resultslab-eu-lab"
          ]
        },
        "performer": [
          {
            "display": "The Central European Lab"
          }
        ],
        "category": [
          {
            "coding": [
              {
                "system": "http://terminology.hl7.org/CodeSystem/observation-category",
                "code": "laboratory"
              }
            ]
          }
        ],
        "code": {
          "coding": [
            {
              "code": "6299-2",
              "system": "http://loinc.org",
              "display": "Urea nitrogen [Mass/volume] in Blood"
            }
          ],
          "text": "Urea nitrogen [Mass/volume] in Blood"
        },
        "valueQuantity": {
          "system": "http://unitsofmeasure.org",
          "value": 11.9,
          "unit": "mg/dL",
          "code": "mg/dL"
        },
        "referenceRange": [
          {
            "low": {
              "value": 7,
              "code": "mg/dL",
              "system": "http://unitsofmeasure.org"
            }
          },
          {
            "high": {
              "value": 20,
              "code": "mg/dL",
              "system": "http://unitsofmeasure.org"
            }
          }
        ],
        "text": {
          "status": "generated",
          "div": "<div xmlns=\"http://www.w3.org/1999/xhtml\"><table class=\"hl7__eu__lab__report\"><tr><th>Test</th><th>05-Mar-2017</th><th>Reference&#xA0;Range</th><th>Unit</th></tr><tr><td>Urea nitrogen [Mass/volume] in Blood</td><td>11.9</td><td>7 - 20</td><td></td><td>mg/dL</td></tr></table></div>"
        },
        "status": "final",
        "subject": {
          "reference": "urn:uuid:5bef4e21-b618-4048-9f55-f2cf9fab5f5b",
          "display": "Marlene Gerlach"
        },
        "effectiveDateTime": "2017-03-05T19:24:33Z",
        "specimen": {
          "reference": "urn:uuid:9d2a09b7-0154-4d52-b749-18b01b4dc835"
        }
      }
    },
    {
      "fullUrl": "urn:uuid:27d4c2fc-8d76-4bd7-b2cc-32df2473db52",
      "resource": {
        "resourceType": "Observation",
        "id": "27d4c2fc-8d76-4bd7-b2cc-32df2473db52",
        "meta": {
          "profile": [
            "http://hl7.eu/fhir/laboratory/StructureDefinition/Observation-resultslab-eu-lab"
          ]
        },
        "performer": [
          {
            "display": "The Central European Lab"
          }
        ],
        "category": [
          {
            "coding": [
              {
                "system": "http://terminology.hl7.org/CodeSystem/observation-category",
                "code": "laboratory"
              }
            ]
          }
        ],
        "code": {
          "coding": [
            {
              "code": "38483-4",
              "system": "http://loinc.org",
              "display": "Creatinine [Mass/volume] in Blood"
            }
          ],
          "text": "Creatinine [Mass/volume] in Blood"
        },
        "valueQuantity": {
          "system": "http://unitsofmeasure.org",
          "value": 0.5,
          "unit": "mg/dL",
          "code": "mg/dL"
        },
        "referenceRange": [
          {
            "low": {
              "value": 0.5,
              "code": "mg/dL",
              "system": "http://unitsofmeasure.org"
            }
          },
          {
            "high": {
              "value": 1.3,
              "code": "mg/dL",
              "system": "http://unitsofmeasure.org"
            }
          }
        ],
        "text": {
          "status": "generated",
          "div": "<div xmlns=\"http://www.w3.org/1999/xhtml\"><table class=\"hl7__eu__lab__report\"><tr><th>Test</th><th>05-Mar-2017</th><th>Reference&#xA0;Range</th><th>Unit</th></tr><tr><td>Creatinine [Mass/volume] in Blood</td><td>0.5</td><td>0.5 - 1.3</td><td></td><td>mg/dL</td></tr></table></div>"
        },
        "status": "final",
        "subject": {
          "reference": "urn:uuid:5bef4e21-b618-4048-9f55-f2cf9fab5f5b",
          "display": "Marlene Gerlach"
        },
        "effectiveDateTime": "2017-03-05T19:24:33Z",
        "specimen": {
          "reference": "urn:uuid:9d2a09b7-0154-4d52-b749-18b01b4dc835"
        }
      }
    },
    {
      "fullUrl": "urn:uuid:4c7f990b-424a-498c-aeae-f11c85d02781",
      "resource": {
        "resourceType": "Observation",
        "id": "4c7f990b-424a-498c-aeae-f11c85d02781",
        "meta": {
          "profile": [
            "http://hl7.eu/fhir/laboratory/StructureDefinition/Observation-resultslab-eu-lab"
          ]
        },
        "performer": [
          {
            "display": "The Central European Lab"
          }
        ],
        "category": [
          {
            "coding": [
              {
                "system": "http://terminology.hl7.org/CodeSystem/observation-category",
                "code": "laboratory"
              }
            ]
          }
        ],
        "code": {
          "coding": [
            {
              "code": "49765-1",
              "system": "http://loinc.org",
              "display": "Calcium [Mass/volume] in Blood"
            }
          ],
          "text": "Calcium [Mass/volume] in Blood"
        },
        "valueQuantity": {
          "system": "http://unitsofmeasure.org",
          "value": 9.8,
          "unit": "mg/dL",
          "code": "mg/dL"
        },
        "referenceRange": [
          {
            "low": {
              "value": 8.5,
              "code": "mg/dL",
              "system": "http://unitsofmeasure.org"
            }
          },
          {
            "high": {
              "value": 10.5,
              "code": "mg/dL",
              "system": "http://unitsofmeasure.org"
            }
          }
        ],
        "text": {
          "status": "generated",
          "div": "<div xmlns=\"http://www.w3.org/1999/xhtml\"><table class=\"hl7__eu__lab__report\"><tr><th>Test</th><th>05-Mar-2017</th><th>Reference&#xA0;Range</th><th>Unit</th></tr><tr><td>Calcium [Mass/volume] in Blood</td><td>9.8</td><td>8.5 - 10.5</td><td></td><td>mg/dL</td></tr></table></div>"
        },
        "status": "final",
        "subject": {
          "reference": "urn:uuid:5bef4e21-b618-4048-9f55-f2cf9fab5f5b",
          "display": "Marlene Gerlach"
        },
        "effectiveDateTime": "2017-03-05T19:24:33Z",
        "specimen": {
          "reference": "urn:uuid:9d2a09b7-0154-4d52-b749-18b01b4dc835"
        }
      }
    },
    {
      "fullUrl": "urn:uuid:11b5c654-9157-4b9c-8624-d5c2243bc906",
      "resource": {
        "resourceType": "Observation",
        "id": "11b5c654-9157-4b9c-8624-d5c2243bc906",
        "meta": {
          "profile": [
            "http://hl7.eu/fhir/laboratory/StructureDefinition/Observation-resultslab-eu-lab"
          ]
        },
        "performer": [
          {
            "display": "The Central European Lab"
          }
        ],
        "category": [
          {
            "coding": [
              {
                "system": "http://terminology.hl7.org/CodeSystem/observation-category",
                "code": "laboratory"
              }
            ]
          }
        ],
        "code": {
          "coding": [
            {
              "code": "2947-0",
              "system": "http://loinc.org",
              "display": "Sodium [Moles/volume] in Blood"
            }
          ],
          "text": "Sodium [Moles/volume] in Blood"
        },
        "valueQuantity": {
          "system": "http://unitsofmeasure.org",
          "value": 137.2,
          "unit": "mmol/L",
          "code": "mmol/L"
        },
        "referenceRange": [
          {
            "low": {
              "value": 135,
              "code": "mmol/L",
              "system": "http://unitsofmeasure.org"
            }
          },
          {
            "high": {
              "value": 145,
              "code": "mmol/L",
              "system": "http://unitsofmeasure.org"
            }
          }
        ],
        "text": {
          "status": "generated",
          "div": "<div xmlns=\"http://www.w3.org/1999/xhtml\"><table class=\"hl7__eu__lab__report\"><tr><th>Test</th><th>05-Mar-2017</th><th>Reference&#xA0;Range</th><th>Unit</th></tr><tr><td>Sodium [Moles/volume] in Blood</td><td>137.2</td><td>135 - 145</td><td></td><td>mmol/L</td></tr></table></div>"
        },
        "status": "final",
        "subject": {
          "reference": "urn:uuid:5bef4e21-b618-4048-9f55-f2cf9fab5f5b",
          "display": "Marlene Gerlach"
        },
        "effectiveDateTime": "2017-03-05T19:24:33Z",
        "specimen": {
          "reference": "urn:uuid:9d2a09b7-0154-4d52-b749-18b01b4dc835"
        }
      }
    },
    {
      "fullUrl": "urn:uuid:76030c92-16c8-4273-b710-e961d826382b",
      "resource": {
        "resourceType": "Observation",
        "id": "76030c92-16c8-4273-b710-e961d826382b",
        "meta": {
          "profile": [
            "http://hl7.eu/fhir/laboratory/StructureDefinition/Observation-resultslab-eu-lab"
          ]
        },
        "performer": [
          {
            "display": "The Central European Lab"
          }
        ],
        "category": [
          {
            "coding": [
              {
                "system": "http://terminology.hl7.org/CodeSystem/observation-category",
                "code": "laboratory"
              }
            ]
          }
        ],
        "code": {
          "coding": [
            {
              "code": "6298-4",
              "system": "http://loinc.org",
              "display": "Potassium [Moles/volume] in Blood"
            }
          ],
          "text": "Potassium [Moles/volume] in Blood"
        },
        "valueQuantity": {
          "system": "http://unitsofmeasure.org",
          "value": 5.1,
          "unit": "mmol/L",
          "code": "mmol/L"
        },
        "referenceRange": [
          {
            "low": {
              "value": 3.5,
              "code": "mmol/L",
              "system": "http://unitsofmeasure.org"
            }
          },
          {
            "high": {
              "value": 5.1,
              "code": "mmol/L",
              "system": "http://unitsofmeasure.org"
            }
          }
        ],
        "text": {
          "status": "generated",
          "div": "<div xmlns=\"http://www.w3.org/1999/xhtml\"><table class=\"hl7__eu__lab__report\"><tr><th>Test</th><th>05-Mar-2017</th><th>Reference&#xA0;Range</th><th>Unit</th></tr><tr><td>Potassium [Moles/volume] in Blood</td><td>5.1</td><td>3.5 - 5.1</td><td></td><td>mmol/L</td></tr></table></div>"
        },
        "status": "final",
        "subject": {
          "reference": "urn:uuid:5bef4e21-b618-4048-9f55-f2cf9fab5f5b",
          "display": "Marlene Gerlach"
        },
        "effectiveDateTime": "2017-03-05T19:24:33Z",
        "specimen": {
          "reference": "urn:uuid:9d2a09b7-0154-4d52-b749-18b01b4dc835"
        }
      }
    },
    {
      "fullUrl": "urn:uuid:a7b2bca0-997e-41c2-b4a0-0bfef46c07ab",
      "resource": {
        "resourceType": "Observation",
        "id": "a7b2bca0-997e-41c2-b4a0-0bfef46c07ab",
        "meta": {
          "profile": [
            "http://hl7.eu/fhir/laboratory/StructureDefinition/Observation-resultslab-eu-lab"
          ]
        },
        "performer": [
          {
            "display": "The Central European Lab"
          }
        ],
        "category": [
          {
            "coding": [
              {
                "system": "http://terminology.hl7.org/CodeSystem/observation-category",
                "code": "laboratory"
              }
            ]
          }
        ],
        "code": {
          "coding": [
            {
              "code": "2069-3",
              "system": "http://loinc.org",
              "display": "Chloride [Moles/volume] in Blood"
            }
          ],
          "text": "Chloride [Moles/volume] in Blood"
        },
        "valueQuantity": {
          "system": "http://unitsofmeasure.org",
          "value": 104.5,
          "unit": "mmol/L",
          "code": "mmol/L"
        },
        "referenceRange": [
          {
            "low": {
              "value": 98,
              "code": "mmol/L",
              "system": "http://unitsofmeasure.org"
            }
          },
          {
            "high": {
              "value": 108,
              "code": "mmol/L",
              "system": "http://unitsofmeasure.org"
            }
          }
        ],
        "text": {
          "status": "generated",
          "div": "<div xmlns=\"http://www.w3.org/1999/xhtml\"><table class=\"hl7__eu__lab__report\"><tr><th>Test</th><th>05-Mar-2017</th><th>Reference&#xA0;Range</th><th>Unit</th></tr><tr><td>Chloride [Moles/volume] in Blood</td><td>104.5</td><td>98 - 108</td><td></td><td>mmol/L</td></tr></table></div>"
        },
        "status": "final",
        "subject": {
          "reference": "urn:uuid:5bef4e21-b618-4048-9f55-f2cf9fab5f5b",
          "display": "Marlene Gerlach"
        },
        "effectiveDateTime": "2017-03-05T19:24:33Z",
        "specimen": {
          "reference": "urn:uuid:9d2a09b7-0154-4d52-b749-18b01b4dc835"
        }
      }
    },
    {
      "fullUrl": "urn:uuid:8696acee-9d50-4349-9094-e4cfc7273f88",
      "resource": {
        "resourceType": "Observation",
        "id": "8696acee-9d50-4349-9094-e4cfc7273f88",
        "meta": {
          "profile": [
            "http://hl7.eu/fhir/laboratory/StructureDefinition/Observation-resultslab-eu-lab"
          ]
        },
        "performer": [
          {
            "display": "The Central European Lab"
          }
        ],
        "category": [
          {
            "coding": [
              {
                "system": "http://terminology.hl7.org/CodeSystem/observation-category",
                "code": "laboratory"
              }
            ]
          }
        ],
        "code": {
          "coding": [
            {
              "code": "20565-8",
              "system": "http://loinc.org",
              "display": "Carbon dioxide, total [Moles/volume] in Blood"
            }
          ],
          "text": "Carbon dioxide, total [Moles/volume] in Blood"
        },
        "valueQuantity": {
          "system": "http://unitsofmeasure.org",
          "value": 25,
          "unit": "mmol/L",
          "code": "mmol/L"
        },
        "referenceRange": [
          {
            "low": {
              "value": 22,
              "code": "mmol/L",
              "system": "http://unitsofmeasure.org"
            }
          },
          {
            "high": {
              "value": 29,
              "code": "mmol/L",
              "system": "http://unitsofmeasure.org"
            }
          }
        ],
        "text": {
          "status": "generated",
          "div": "<div xmlns=\"http://www.w3.org/1999/xhtml\"><table class=\"hl7__eu__lab__report\"><tr><th>Test</th><th>05-Mar-2017</th><th>Reference&#xA0;Range</th><th>Unit</th></tr><tr><td>Carbon dioxide, total [Moles/volume] in Blood</td><td>25.0</td><td>22 - 29</td><td></td><td>mmol/L</td></tr></table></div>"
        },
        "status": "final",
        "subject": {
          "reference": "urn:uuid:5bef4e21-b618-4048-9f55-f2cf9fab5f5b",
          "display": "Marlene Gerlach"
        },
        "effectiveDateTime": "2017-03-05T19:24:33Z",
        "specimen": {
          "reference": "urn:uuid:9d2a09b7-0154-4d52-b749-18b01b4dc835"
        }
      }
    },
    {
      "fullUrl": "urn:uuid:66e8a693-aad0-4bfb-a6f7-0c3703b651fd",
      "resource": {
        "resourceType": "Device",
        "id": "66e8a693-aad0-4bfb-a6f7-0c3703b651fd",
        "deviceName": [
          {
            "name": "SYNDERAI Synthetic Generator",
            "type": "manufacturer-name"
          }
        ],
        "version": [
          {
            "value": "5.0"
          }
        ],
        "text": {
          "status": "generated",
          "div": "<div xmlns=\"http://www.w3.org/1999/xhtml\">SYNDERAI Synthetic Generator v5.0</div>"
        },
        "status": "active\"",
        "distinctIdentifier": "synderai-generator-50",
        "manufacturer": "SYNDERAI Project"
      }
    },
    {
      "fullUrl": "urn:uuid:e8f3e970-b734-4c5d-873f-2343e43d3955",
      "resource": {
        "resourceType": "Provenance",
        "id": "e8f3e970-b734-4c5d-873f-2343e43d3955",
        "target": [
          {
            "reference": "Patient/5bef4e21-b618-4048-9f55-f2cf9fab5f5b"
          },
          {
            "reference": "Bundle/77079d7e-5de3-4f3f-a7e1-e974803bc327"
          },
          {
            "reference": "Composition/175a14b9-53b9-48c8-8959-e6b746cb903d"
          },
          {
            "reference": "PractitionerRole/70f5f7fa-bb1b-4a07-8ed1-e7ab5ee6aaf6"
          },
          {
            "reference": "Practitioner/e6335a71-5a1d-4fec-910f-109435e9f764"
          },
          {
            "reference": "PractitionerRole/f45d6088-e6fb-4e53-a960-d897d47ace6c"
          },
          {
            "reference": "Organization/8b0b9ea7-9aaa-4415-a3fc-f9fceead71f2"
          }
        ],
        "activity": {
          "text": "Synthetic Example Data Generation"
        },
        "policy": [
          "https://synderai.net/synderai-synthetic-data-policy"
        ],
        "agent": [
          {
            "type": {
              "text": "author"
            },
            "who": {
              "reference": "Device/66e8a693-aad0-4bfb-a6f7-0c3703b651fd"
            }
          }
        ],
        "reason": [
          {
            "text": "Interoperability Testing and Training (non-clinical use)"
          }
        ],
        "text": {
          "status": "generated",
          "div": "<div xmlns=\"http://www.w3.org/1999/xhtml\">Provenance for SYNDERAI Synthetic Example Data Resource</div>"
        },
        "recorded": "2017-03-05T20:24:33Z"
      }
    },
    {
      "fullUrl": "urn:uuid:70f5f7fa-bb1b-4a07-8ed1-e7ab5ee6aaf6",
      "resource": {
        "resourceType": "PractitionerRole",
        "id": "70f5f7fa-bb1b-4a07-8ed1-e7ab5ee6aaf6",
        "meta": {
          "profile": [
            "http://hl7.eu/fhir/base/StructureDefinition/practitionerRole-eu"
          ]
        },
        "text": {
          "status": "generated",
          "div": "<div xmlns=\"http://www.w3.org/1999/xhtml\">Laboratory Role Id: 70f5f7fa-bb1b-4a07-8ed1-e7ab5ee6aaf6</div>"
        },
        "practitioner": {
          "reference": "urn:uuid:e6335a71-5a1d-4fec-910f-109435e9f764"
        }
      }
    },
    {
      "fullUrl": "urn:uuid:e6335a71-5a1d-4fec-910f-109435e9f764",
      "resource": {
        "resourceType": "Practitioner",
        "id": "e6335a71-5a1d-4fec-910f-109435e9f764",
        "meta": {
          "profile": [
            "http://hl7.eu/fhir/base/StructureDefinition/practitioner-eu"
          ]
        },
        "identifier": [
          {
            "assigner": {
              "display": "HL7 Europe"
            },
            "system": "urn:oid:2.16.840.1.113883.2.51.999",
            "value": "1a6d7b48-2ba6-4fdd-8f97-bd1e698c0065"
          }
        ],
        "name": [
          {
            "prefix": [
              "dr"
            ],
            "given": [
              "Ex"
            ],
            "family": "Ample"
          }
        ],
        "address": [
          {
            "line": [
              "Laboratoire Central Européenne",
              "Boulevard du Jardin Botanique 32"
            ],
            "postalCode": "1000",
            "city": "Brussels",
            "country": "Belgium"
          }
        ],
        "text": {
          "status": "generated",
          "div": "<div xmlns=\"http://www.w3.org/1999/xhtml\">Laboratory: Laboratoire Central Européenne, 1000 Brussels, Belgium</div>"
        }
      }
    }
  ],
  "type": "document",
  "timestamp": "2017-03-05T20:24:33Z"
}
