{
  "resourceType": "Bundle",
  "id": "4ecbd9c2-cf02-4b15-a2a4-ead46e4e77d8",
  "meta": {
    "profile": [
      "http://hl7.eu/fhir/laboratory/StructureDefinition/Bundle-eu-lab"
    ]
  },
  "identifier": {
    "assigner": {
      "display": "HL7 Europe"
    },
    "system": "urn:oid:2.16.840.1.113883.2.51.999",
    "value": "3c0d22b3-c523-45fc-9a44-b89693a982e0"
  },
  "entry": [
    {
      "fullUrl": "urn:uuid:65d24dc8-ec9f-4bbd-bcaf-4109737b1551",
      "resource": {
        "resourceType": "Composition",
        "id": "65d24dc8-ec9f-4bbd-bcaf-4109737b1551",
        "meta": {
          "profile": [
            "http://hl7.eu/fhir/laboratory/StructureDefinition/Composition-eu-lab"
          ]
        },
        "identifier": {
          "assigner": {
            "display": "HL7 Europe"
          },
          "system": "urn:oid:2.16.840.1.113883.2.51.999",
          "value": "6770fdf8-d7e3-47a2-b344-b87be52926a1"
        },
        "author": [
          {
            "reference": "urn:uuid:7eebd453-b294-4147-bb00-4f993a16d9d5"
          }
        ],
        "category": [
          {
            "coding": [
              {
                "code": "26436-6",
                "system": "http://loinc.org",
                "display": "Laboratory studies (set)"
              }
            ]
          }
        ],
        "type": {
          "coding": [
            {
              "code": "11502-2",
              "system": "http://loinc.org",
              "display": "Laboratory report"
            }
          ],
          "text": "Laboratory Report"
        },
        "section": [
          {
            "code": {
              "coding": [
                {
                  "code": "26436-6",
                  "system": "http://loinc.org",
                  "display": "Laboratory studies (set)"
                }
              ],
              "text": "Laboratory studies"
            },
            "section": [
              {
                "code": {
                  "coding": [
                    {
                      "code": "$18719-5",
                      "system": "http://loinc.org",
                      "display": "Chemistry studies (set)"
                    }
                  ],
                  "text": "Chemistry"
                },
                "entry": [
                  {
                    "reference": "urn:uuid:616b5ef2-e2b0-4b7d-9d5e-dd991cdf29eb"
                  },
                  {
                    "reference": "urn:uuid:69d3c52c-07b9-4e88-827e-bf666f3c62fe"
                  },
                  {
                    "reference": "urn:uuid:55871fe3-96d5-41fe-815c-83371ad5e5f6"
                  },
                  {
                    "reference": "urn:uuid:8ef390f6-ceb8-4f60-bf88-48b9903cb695"
                  },
                  {
                    "reference": "urn:uuid:a8b18115-0d82-4f9f-86f6-235bd1743896"
                  },
                  {
                    "reference": "urn:uuid:1d4f1809-68fc-49ca-b67f-a4c3dee4ef7d"
                  },
                  {
                    "reference": "urn:uuid:859e1b79-66eb-4448-980c-00d9bf8fd9db"
                  },
                  {
                    "reference": "urn:uuid:a91e424e-78ca-4273-a0e9-aeda9b0504e0"
                  },
                  {
                    "reference": "urn:uuid:5027c853-b38c-4006-a29e-4b6e3055e934"
                  },
                  {
                    "reference": "urn:uuid:0a2b0046-1f62-40ef-a9cd-a33f245de336"
                  },
                  {
                    "reference": "urn:uuid:9d645675-5900-4e0b-b525-e5bbda6a26c6"
                  },
                  {
                    "reference": "urn:uuid:f016faf9-ab07-42f7-9d7b-da765333295b"
                  },
                  {
                    "reference": "urn:uuid:a993934b-b3c8-474c-8ec6-e2b20dba7ccb"
                  },
                  {
                    "reference": "urn:uuid:44827e66-a8dc-4a4a-93f4-ec8baa51f06a"
                  },
                  {
                    "reference": "urn:uuid:66c333fb-b7e6-4a5b-903e-e3948c9205e5"
                  },
                  {
                    "reference": "urn:uuid:84653141-7e9b-4c89-bb80-38098bf37a7b"
                  },
                  {
                    "reference": "urn:uuid:843f44e1-da28-4074-86c9-c8d8db9a8a7f"
                  },
                  {
                    "reference": "urn:uuid:16755dbf-3953-4da5-827f-892984258939"
                  },
                  {
                    "reference": "urn:uuid:cb2d4c0f-f320-493b-afa0-2413dbd6ed03"
                  }
                ],
                "text": {
                  "status": "generated",
                  "div": "<div xmlns=\"http://www.w3.org/1999/xhtml\"><h3>Chemistry</h3><table class=\"hl7__eu__lab__report\"><thead><tr><th>Test</th><th>11-JUN-2023</th><th>Reference&#xA0;Range</th><th>Unit</th></tr></thead><tbody><tr><td>Glucose [Mass/volume] in Blood</td><td>72.1</td><td>70 - 99</td><td>mg/dL</td></tr><tr><td>Urea nitrogen [Mass/volume] in Blood</td><td>7.8</td><td>7 - 20</td><td>mg/dL</td></tr><tr><td>Creatinine [Mass/volume] in Blood</td><td><strong>2.8 H</strong></td><td>0.7 - 1.3</td><td>mg/dL</td></tr><tr><td>Calcium [Mass/volume] in Blood</td><td>10.2</td><td>8.5 - 10.5</td><td>mg/dL</td></tr><tr><td>Sodium [Moles/volume] in Blood</td><td>142.5</td><td>135 - 145</td><td>mmol/L</td></tr><tr><td>Potassium [Moles/volume] in Blood</td><td>4.7</td><td>3.5 - 5</td><td>mmol/L</td></tr><tr><td>Chloride [Moles/volume] in Blood</td><td>104.7</td><td>98 - 107</td><td>mmol/L</td></tr><tr><td>Carbon dioxide, total [Moles/volume] in Blood</td><td><strong>22.1 L</strong></td><td>24 - 29</td><td>mmol/L</td></tr><tr><td>Protein [Mass/volume] in Serum or Plasma</td><td><strong>6.3 L</strong></td><td>6.6 - 8.3</td><td>g/dL</td></tr><tr><td>Albumin [Mass/volume] in Serum or Plasma</td><td>4.0</td><td>3.5 - 5.5</td><td>g/dL</td></tr><tr><td>Globulin [Mass/volume] in Serum by calculation</td><td>3.1</td><td>2 - 3.5</td><td>g/L</td></tr><tr><td>Bilirubin.total [Mass/volume] in Serum or Plasma</td><td>0.3</td><td>0.3 - 1.2</td><td>mg/dL</td></tr><tr><td>Alkaline phosphatase [Enzymatic activity/volume] in Serum or Plasma</td><td>119.2</td><td>39 - 136</td><td>U/L</td></tr><tr><td>Alanine aminotransferase [Enzymatic activity/volume] in Serum or Plasma</td><td>34.1</td><td>7 - 52</td><td>U/L</td></tr><tr><td>Aspartate aminotransferase [Enzymatic activity/volume] in Serum or Plasma</td><td>35.2</td><td>10 - 40</td><td>U/L</td></tr><tr><td>Cholesterol [Mass/volume] in Serum or Plasma</td><td>186.6</td><td>125 - 200</td><td>mg/dL</td></tr><tr><td>Triglyceride [Mass/volume] in Serum or Plasma</td><td><strong>193.3 H</strong></td><td>0 - 150</td><td>mg/dL</td></tr><tr><td>Cholesterol in LDL [Mass/volume] in Serum or Plasma by Direct assay</td><td><strong>136.2 H</strong></td><td>0 - 130</td><td>mg/dL</td></tr><tr><td>Cholesterol in HDL [Mass/volume] in Serum or Plasma</td><td>42.0</td><td>40 - 100</td><td>mg/dL</td></tr></tbody></table></div>"
                },
                "title": "Chemistry"
              }
            ],
            "title": "Laboratory Report"
          },
          {
            "text": {
              "status": "generated",
              "div": "<div xmlns=\"http://www.w3.org/1999/xhtml\"><h3>Annotation</h3><table class=\"hl7__eu__lab__report\"><tr><th>Conclusion and Recommendations based on this report and previous findings known to us</th></tr><tr><td>The patient shows elevated creatinine, suggesting impaired renal function, and mild metabolic acidosis (low CO₂). Total protein is slightly decreased, but albumin is normal. Lipid profile reveals elevated triglycerides and LDL cholesterol, increasing cardiovascular risk. Liver enzymes and electrolytes are within normal limits. Recommend further evaluation of renal function and cardiovascular risk management.</td></tr></table></div>"
            },
            "code": {
              "coding": [
                {
                  "system": "http://loinc.org",
                  "code": "48767-8",
                  "display": "Annotation comment"
                }
              ]
            },
            "title": "Annotation comment"
          }
        ],
        "status": "final",
        "subject": {
          "reference": "urn:uuid:83262b39-d914-4e44-96f3-94d366eb4cf1",
          "display": "Gioele Fabbri"
        },
        "date": "2023-06-11T17:46:20Z",
        "title": "Laboratory Report",
        "confidentiality": "N"
      }
    },
    {
      "fullUrl": "urn:uuid:50ba7de1-8175-4c04-98a3-c9b8d4a6669f",
      "resource": {
        "resourceType": "DiagnosticReport",
        "id": "50ba7de1-8175-4c04-98a3-c9b8d4a6669f",
        "meta": {
          "profile": [
            "http://hl7.eu/fhir/laboratory/StructureDefinition/DiagnosticReport-eu-lab"
          ]
        },
        "identifier": [
          {
            "assigner": {
              "display": "HL7 Europe"
            },
            "system": "urn:oid:2.16.840.1.113883.2.51.999",
            "value": "4e3f9d17-81c8-4c0c-81d6-657154f9a6cf"
          }
        ],
        "extension": [
          {
            "url": "http://hl7.org/fhir/5.0/StructureDefinition/extension-DiagnosticReport.composition",
            "valueReference": {
              "reference": "urn:uuid:6770fdf8-d7e3-47a2-b344-b87be52926a1"
            }
          }
        ],
        "category": [
          {
            "coding": [
              {
                "code": "26436-6",
                "system": "http://loinc.org",
                "display": "Laboratory studies (set)"
              }
            ]
          }
        ],
        "specimen": [
          {
            "reference": "urn:uuid:88e37940-cd90-4cb9-8cc5-744ef6d3996e"
          },
          {
            "reference": "urn:uuid:aa0aa8ea-3eca-41f7-8914-c4d9398eff3e"
          },
          {
            "reference": "urn:uuid:b8a67689-729f-4576-8e8d-4703d1a2647d"
          }
        ],
        "result": [
          {
            "reference": "urn:uuid:616b5ef2-e2b0-4b7d-9d5e-dd991cdf29eb"
          },
          {
            "reference": "urn:uuid:69d3c52c-07b9-4e88-827e-bf666f3c62fe"
          },
          {
            "reference": "urn:uuid:55871fe3-96d5-41fe-815c-83371ad5e5f6"
          },
          {
            "reference": "urn:uuid:8ef390f6-ceb8-4f60-bf88-48b9903cb695"
          },
          {
            "reference": "urn:uuid:a8b18115-0d82-4f9f-86f6-235bd1743896"
          },
          {
            "reference": "urn:uuid:1d4f1809-68fc-49ca-b67f-a4c3dee4ef7d"
          },
          {
            "reference": "urn:uuid:859e1b79-66eb-4448-980c-00d9bf8fd9db"
          },
          {
            "reference": "urn:uuid:a91e424e-78ca-4273-a0e9-aeda9b0504e0"
          },
          {
            "reference": "urn:uuid:5027c853-b38c-4006-a29e-4b6e3055e934"
          },
          {
            "reference": "urn:uuid:0a2b0046-1f62-40ef-a9cd-a33f245de336"
          },
          {
            "reference": "urn:uuid:9d645675-5900-4e0b-b525-e5bbda6a26c6"
          },
          {
            "reference": "urn:uuid:f016faf9-ab07-42f7-9d7b-da765333295b"
          },
          {
            "reference": "urn:uuid:a993934b-b3c8-474c-8ec6-e2b20dba7ccb"
          },
          {
            "reference": "urn:uuid:44827e66-a8dc-4a4a-93f4-ec8baa51f06a"
          },
          {
            "reference": "urn:uuid:66c333fb-b7e6-4a5b-903e-e3948c9205e5"
          },
          {
            "reference": "urn:uuid:84653141-7e9b-4c89-bb80-38098bf37a7b"
          },
          {
            "reference": "urn:uuid:843f44e1-da28-4074-86c9-c8d8db9a8a7f"
          },
          {
            "reference": "urn:uuid:16755dbf-3953-4da5-827f-892984258939"
          },
          {
            "reference": "urn:uuid:cb2d4c0f-f320-493b-afa0-2413dbd6ed03"
          }
        ],
        "status": "registered",
        "code": {
          "coding": [
            {
              "code": "11502-2",
              "system": "http://loinc.org",
              "display": "Laboratory report"
            }
          ]
        },
        "subject": {
          "reference": "urn:uuid:83262b39-d914-4e44-96f3-94d366eb4cf1",
          "display": "Gioele Fabbri"
        }
      }
    },
    {
      "fullUrl": "urn:uuid:83262b39-d914-4e44-96f3-94d366eb4cf1",
      "resource": {
        "resourceType": "Patient",
        "id": "83262b39-d914-4e44-96f3-94d366eb4cf1",
        "meta": {
          "security": [
            {
              "system": "http://terminology.hl7.org/CodeSystem/v3-ActReason",
              "code": "HTEST"
            },
            {
              "system": "http://terminology.hl7.org/CodeSystem/v3-ActReason",
              "code": "TRAIN"
            }
          ],
          "tag": [
            {
              "system": "https://synderai.net/fhir/CodeSystem/tags",
              "code": "synthetic",
              "display": "SYNDERAI Synthetic data"
            }
          ],
          "profile": [
            "http://hl7.eu/fhir/base/StructureDefinition/patient-eu-core"
          ]
        },
        "identifier": [
          {
            "type": {
              "coding": [
                {
                  "code": "PT",
                  "system": "http://terminology.hl7.org/CodeSystem/v2-0203"
                }
              ]
            },
            "system": "http://ec.europa.eu/identifier/eci",
            "value": "3631-767680-1"
          },
          {
            "type": {
              "coding": [
                {
                  "code": "MR",
                  "system": "http://terminology.hl7.org/CodeSystem/v2-0203"
                }
              ]
            },
            "system": "http://local.setting.eu/identifier",
            "value": "0a14935e-e0f7-2e1e-46fa-42b10e75d1f9"
          }
        ],
        "name": [
          {
            "family": "Fabbri"
          },
          {
            "given": [
              "Gioele"
            ]
          },
          {
            "text": "Gioele Fabbri"
          }
        ],
        "address": [
          {
            "line": [
              "Canale Armani, 25"
            ],
            "use": "home",
            "type": "physical",
            "postalCode": "23887",
            "city": "Revislate",
            "country": "Italy"
          }
        ],
        "telecom": [
          {
            "system": "phone",
            "value": "+39 0423197768"
          }
        ],
        "extension": [
          {
            "url": "http://hl7.org/fhir/StructureDefinition/patient-nationality",
            "valueCodeableConcept": {
              "coding": [
                {
                  "code": "IT",
                  "system": "http://hl7.org/fhir/ValueSet/country"
                }
              ]
            }
          }
        ],
        "text": {
          "status": "generated",
          "div": "<div xmlns=\"http://www.w3.org/1999/xhtml\"><table class=\"hl7__ips\"><tr><td>Gioele Fabbri</td><td>male</td><td>12-Sep-1972</td></tr></table></div>"
        },
        "gender": "male",
        "birthDate": "1972-09-12"
      }
    },
    {
      "fullUrl": "urn:uuid:9c8cba3a-58ff-43c4-bae7-9ffbc83c7427",
      "resource": {
        "resourceType": "ServiceRequest",
        "id": "9c8cba3a-58ff-43c4-bae7-9ffbc83c7427",
        "meta": {
          "profile": [
            "http://hl7.eu/fhir/laboratory/StructureDefinition/ServiceRequest-eu-lab"
          ]
        },
        "identifier": [
          {
            "system": "http://example.org",
            "value": "e6ad5999-47e8-4933-8654-bb7ed6bc68f8"
          }
        ],
        "specimen": [
          {
            "reference": "urn:uuid:88e37940-cd90-4cb9-8cc5-744ef6d3996e"
          },
          {
            "reference": "urn:uuid:aa0aa8ea-3eca-41f7-8914-c4d9398eff3e"
          },
          {
            "reference": "urn:uuid:b8a67689-729f-4576-8e8d-4703d1a2647d"
          }
        ],
        "reasonCode": [
          {
            "coding": [
              {
                "code": "271737000",
                "system": "http://snomed.info/sct",
                "display": "Anemia"
              }
            ]
          },
          {
            "coding": [
              {
                "code": "15777000",
                "system": "http://snomed.info/sct",
                "display": "Prediabetes"
              }
            ]
          },
          {
            "coding": [
              {
                "code": "713197008",
                "system": "http://snomed.info/sct",
                "display": "Recurrent rectal polyp"
              }
            ]
          },
          {
            "coding": [
              {
                "code": "68496003",
                "system": "http://snomed.info/sct",
                "display": "Polyp of colon"
              }
            ]
          },
          {
            "coding": [
              {
                "code": "55822004",
                "system": "http://snomed.info/sct",
                "display": "Hyperlipidemia"
              }
            ]
          },
          {
            "coding": [
              {
                "code": "124171000119105",
                "system": "http://snomed.info/sct",
                "display": "Chronic intractable migraine without aura"
              }
            ]
          }
        ],
        "status": "active",
        "intent": "order",
        "code": {
          "coding": [
            {
              "code": "108252007",
              "system": "http://snomed.info/sct",
              "display": "Laboratory procedure"
            }
          ]
        },
        "subject": {
          "reference": "urn:uuid:83262b39-d914-4e44-96f3-94d366eb4cf1",
          "display": "Gioele Fabbri"
        },
        "requester": {
          "reference": "urn:uuid:795284e3-57ee-40e7-aea2-c703afde5512"
        }
      }
    },
    {
      "fullUrl": "urn:uuid:795284e3-57ee-40e7-aea2-c703afde5512",
      "resource": {
        "resourceType": "PractitionerRole",
        "id": "795284e3-57ee-40e7-aea2-c703afde5512",
        "meta": {
          "profile": [
            "http://hl7.eu/fhir/base/StructureDefinition/practitionerRole-eu"
          ]
        },
        "text": {
          "status": "generated",
          "div": "<div xmlns=\"http://www.w3.org/1999/xhtml\">Provider Role Id: 795284e3-57ee-40e7-aea2-c703afde5512</div>"
        },
        "organization": {
          "reference": "urn:uuid:eebd15cc-8315-4649-8a38-8cd8b3845057"
        }
      }
    },
    {
      "fullUrl": "urn:uuid:eebd15cc-8315-4649-8a38-8cd8b3845057",
      "resource": {
        "resourceType": "Organization",
        "id": "eebd15cc-8315-4649-8a38-8cd8b3845057",
        "meta": {
          "profile": [
            "http://hl7.eu/fhir/base/StructureDefinition/organization-eu"
          ]
        },
        "identifier": [
          {
            "assigner": {
              "display": "HL7 Europe"
            },
            "system": "urn:oid:2.16.840.1.113883.2.51.999",
            "value": "07911c4d-d043-40e6-a55a-6c4e0287c834"
          }
        ],
        "address": [
          {
            "line": [
              "Piazza Ospedale 3"
            ],
            "city": "Calcinate",
            "postalCode": "24050",
            "country": "Italy"
          }
        ],
        "text": {
          "status": "generated",
          "div": "<div xmlns=\"http://www.w3.org/1999/xhtml\">Provider Organization: Ospedale di Calcinate &quot;F.M. Passi&quot;</div>"
        },
        "name": "Ospedale di Calcinate &quot;F.M. Passi&quot;"
      }
    },
    {
      "fullUrl": "urn:uuid:88e37940-cd90-4cb9-8cc5-744ef6d3996e",
      "resource": {
        "resourceType": "Specimen",
        "id": "88e37940-cd90-4cb9-8cc5-744ef6d3996e",
        "meta": {
          "profile": [
            "http://hl7.eu/fhir/laboratory/StructureDefinition/Specimen-eu-lab"
          ]
        },
        "collection": {
          "collectedDateTime": "2023-06-11"
        },
        "text": {
          "status": "generated",
          "div": "<div xmlns=\"http://www.w3.org/1999/xhtml\"><table class=\"hl7__eu__lab__report\"><tr><th>Specimen</th><th>Collection Date</th></tr><tr><td>Whole blood specimen (specimen)</td><td><span class=\"nb\">11-Jun-2023</span></td></tr></table></div>"
        },
        "type": {
          "coding": [
            {
              "code": "258580003",
              "system": "http://snomed.info/sct",
              "display": "Whole blood specimen (specimen)"
            }
          ]
        }
      }
    },
    {
      "fullUrl": "urn:uuid:aa0aa8ea-3eca-41f7-8914-c4d9398eff3e",
      "resource": {
        "resourceType": "Specimen",
        "id": "aa0aa8ea-3eca-41f7-8914-c4d9398eff3e",
        "meta": {
          "profile": [
            "http://hl7.eu/fhir/laboratory/StructureDefinition/Specimen-eu-lab"
          ]
        },
        "collection": {
          "collectedDateTime": "2023-06-11"
        },
        "text": {
          "status": "generated",
          "div": "<div xmlns=\"http://www.w3.org/1999/xhtml\"><table class=\"hl7__eu__lab__report\"><tr><th>Specimen</th><th>Collection Date</th></tr><tr><td>Acellular blood (serum or plasma) specimen</td><td><span class=\"nb\">11-Jun-2023</span></td></tr></table></div>"
        },
        "type": {
          "coding": [
            {
              "code": "122592007",
              "system": "http://snomed.info/sct",
              "display": "Acellular blood (serum or plasma) specimen"
            }
          ]
        }
      }
    },
    {
      "fullUrl": "urn:uuid:b8a67689-729f-4576-8e8d-4703d1a2647d",
      "resource": {
        "resourceType": "Specimen",
        "id": "b8a67689-729f-4576-8e8d-4703d1a2647d",
        "meta": {
          "profile": [
            "http://hl7.eu/fhir/laboratory/StructureDefinition/Specimen-eu-lab"
          ]
        },
        "collection": {
          "collectedDateTime": "2023-06-11"
        },
        "text": {
          "status": "generated",
          "div": "<div xmlns=\"http://www.w3.org/1999/xhtml\"><table class=\"hl7__eu__lab__report\"><tr><th>Specimen</th><th>Collection Date</th></tr><tr><td>Serum specimen</td><td><span class=\"nb\">11-Jun-2023</span></td></tr></table></div>"
        },
        "type": {
          "coding": [
            {
              "code": "119364003",
              "system": "http://snomed.info/sct",
              "display": "Serum specimen"
            }
          ]
        }
      }
    },
    {
      "fullUrl": "urn:uuid:616b5ef2-e2b0-4b7d-9d5e-dd991cdf29eb",
      "resource": {
        "resourceType": "Observation",
        "id": "616b5ef2-e2b0-4b7d-9d5e-dd991cdf29eb",
        "meta": {
          "profile": [
            "http://hl7.eu/fhir/laboratory/StructureDefinition/Observation-resultslab-eu-lab"
          ]
        },
        "performer": [
          {
            "display": "The Central European Lab"
          }
        ],
        "category": [
          {
            "coding": [
              {
                "system": "http://terminology.hl7.org/CodeSystem/observation-category",
                "code": "laboratory"
              }
            ]
          }
        ],
        "code": {
          "coding": [
            {
              "code": "2339-0",
              "system": "http://loinc.org",
              "display": "Glucose [Mass/volume] in Blood"
            }
          ],
          "text": "Glucose [Mass/volume] in Blood"
        },
        "valueQuantity": {
          "system": "http://unitsofmeasure.org",
          "value": 72.1,
          "unit": "mg/dL",
          "code": "mg/dL"
        },
        "referenceRange": [
          {
            "low": {
              "value": 70,
              "code": "mg/dL",
              "system": "http://unitsofmeasure.org"
            }
          },
          {
            "high": {
              "value": 99,
              "code": "mg/dL",
              "system": "http://unitsofmeasure.org"
            }
          }
        ],
        "text": {
          "status": "generated",
          "div": "<div xmlns=\"http://www.w3.org/1999/xhtml\"><table class=\"hl7__eu__lab__report\"><tr><th>Test</th><th>11-Jun-2023</th><th>Reference&#xA0;Range</th><th>Unit</th></tr><tr><td>Glucose [Mass/volume] in Blood</td><td>72.1</td><td>70 - 99</td><td></td><td>mg/dL</td></tr></table></div>"
        },
        "status": "final",
        "subject": {
          "reference": "urn:uuid:83262b39-d914-4e44-96f3-94d366eb4cf1",
          "display": "Gioele Fabbri"
        },
        "effectiveDateTime": "2023-06-11T15:46:20Z",
        "specimen": {
          "reference": "urn:uuid:88e37940-cd90-4cb9-8cc5-744ef6d3996e"
        }
      }
    },
    {
      "fullUrl": "urn:uuid:69d3c52c-07b9-4e88-827e-bf666f3c62fe",
      "resource": {
        "resourceType": "Observation",
        "id": "69d3c52c-07b9-4e88-827e-bf666f3c62fe",
        "meta": {
          "profile": [
            "http://hl7.eu/fhir/laboratory/StructureDefinition/Observation-resultslab-eu-lab"
          ]
        },
        "performer": [
          {
            "display": "The Central European Lab"
          }
        ],
        "category": [
          {
            "coding": [
              {
                "system": "http://terminology.hl7.org/CodeSystem/observation-category",
                "code": "laboratory"
              }
            ]
          }
        ],
        "code": {
          "coding": [
            {
              "code": "6299-2",
              "system": "http://loinc.org",
              "display": "Urea nitrogen [Mass/volume] in Blood"
            }
          ],
          "text": "Urea nitrogen [Mass/volume] in Blood"
        },
        "valueQuantity": {
          "system": "http://unitsofmeasure.org",
          "value": 7.8,
          "unit": "mg/dL",
          "code": "mg/dL"
        },
        "referenceRange": [
          {
            "low": {
              "value": 7,
              "code": "mg/dL",
              "system": "http://unitsofmeasure.org"
            }
          },
          {
            "high": {
              "value": 20,
              "code": "mg/dL",
              "system": "http://unitsofmeasure.org"
            }
          }
        ],
        "text": {
          "status": "generated",
          "div": "<div xmlns=\"http://www.w3.org/1999/xhtml\"><table class=\"hl7__eu__lab__report\"><tr><th>Test</th><th>11-Jun-2023</th><th>Reference&#xA0;Range</th><th>Unit</th></tr><tr><td>Urea nitrogen [Mass/volume] in Blood</td><td>7.8</td><td>7 - 20</td><td></td><td>mg/dL</td></tr></table></div>"
        },
        "status": "final",
        "subject": {
          "reference": "urn:uuid:83262b39-d914-4e44-96f3-94d366eb4cf1",
          "display": "Gioele Fabbri"
        },
        "effectiveDateTime": "2023-06-11T15:46:20Z",
        "specimen": {
          "reference": "urn:uuid:88e37940-cd90-4cb9-8cc5-744ef6d3996e"
        }
      }
    },
    {
      "fullUrl": "urn:uuid:55871fe3-96d5-41fe-815c-83371ad5e5f6",
      "resource": {
        "resourceType": "Observation",
        "id": "55871fe3-96d5-41fe-815c-83371ad5e5f6",
        "meta": {
          "profile": [
            "http://hl7.eu/fhir/laboratory/StructureDefinition/Observation-resultslab-eu-lab"
          ]
        },
        "performer": [
          {
            "display": "The Central European Lab"
          }
        ],
        "category": [
          {
            "coding": [
              {
                "system": "http://terminology.hl7.org/CodeSystem/observation-category",
                "code": "laboratory"
              }
            ]
          }
        ],
        "code": {
          "coding": [
            {
              "code": "38483-4",
              "system": "http://loinc.org",
              "display": "Creatinine [Mass/volume] in Blood"
            }
          ],
          "text": "Creatinine [Mass/volume] in Blood"
        },
        "valueQuantity": {
          "system": "http://unitsofmeasure.org",
          "value": 2.8,
          "unit": "mg/dL",
          "code": "mg/dL"
        },
        "referenceRange": [
          {
            "low": {
              "value": 0.7,
              "code": "mg/dL",
              "system": "http://unitsofmeasure.org"
            }
          },
          {
            "high": {
              "value": 1.3,
              "code": "mg/dL",
              "system": "http://unitsofmeasure.org"
            }
          }
        ],
        "interpretation": [
          {
            "coding": [
              {
                "code": "H",
                "system": "http://terminology.hl7.org/CodeSystem/v3-ObservationInterpretation",
                "display": "High"
              }
            ]
          }
        ],
        "text": {
          "status": "generated",
          "div": "<div xmlns=\"http://www.w3.org/1999/xhtml\"><table class=\"hl7__eu__lab__report\"><tr><th>Test</th><th>11-Jun-2023</th><th>Reference&#xA0;Range</th><th>Unit</th></tr><tr><td>Creatinine [Mass/volume] in Blood</td><td>2.8</td><td>0.7 - 1.3</td><td>H</td><td>mg/dL</td></tr></table></div>"
        },
        "status": "final",
        "subject": {
          "reference": "urn:uuid:83262b39-d914-4e44-96f3-94d366eb4cf1",
          "display": "Gioele Fabbri"
        },
        "effectiveDateTime": "2023-06-11T15:46:20Z",
        "specimen": {
          "reference": "urn:uuid:88e37940-cd90-4cb9-8cc5-744ef6d3996e"
        }
      }
    },
    {
      "fullUrl": "urn:uuid:8ef390f6-ceb8-4f60-bf88-48b9903cb695",
      "resource": {
        "resourceType": "Observation",
        "id": "8ef390f6-ceb8-4f60-bf88-48b9903cb695",
        "meta": {
          "profile": [
            "http://hl7.eu/fhir/laboratory/StructureDefinition/Observation-resultslab-eu-lab"
          ]
        },
        "performer": [
          {
            "display": "The Central European Lab"
          }
        ],
        "category": [
          {
            "coding": [
              {
                "system": "http://terminology.hl7.org/CodeSystem/observation-category",
                "code": "laboratory"
              }
            ]
          }
        ],
        "code": {
          "coding": [
            {
              "code": "49765-1",
              "system": "http://loinc.org",
              "display": "Calcium [Mass/volume] in Blood"
            }
          ],
          "text": "Calcium [Mass/volume] in Blood"
        },
        "valueQuantity": {
          "system": "http://unitsofmeasure.org",
          "value": 10.2,
          "unit": "mg/dL",
          "code": "mg/dL"
        },
        "referenceRange": [
          {
            "low": {
              "value": 8.5,
              "code": "mg/dL",
              "system": "http://unitsofmeasure.org"
            }
          },
          {
            "high": {
              "value": 10.5,
              "code": "mg/dL",
              "system": "http://unitsofmeasure.org"
            }
          }
        ],
        "text": {
          "status": "generated",
          "div": "<div xmlns=\"http://www.w3.org/1999/xhtml\"><table class=\"hl7__eu__lab__report\"><tr><th>Test</th><th>11-Jun-2023</th><th>Reference&#xA0;Range</th><th>Unit</th></tr><tr><td>Calcium [Mass/volume] in Blood</td><td>10.2</td><td>8.5 - 10.5</td><td></td><td>mg/dL</td></tr></table></div>"
        },
        "status": "final",
        "subject": {
          "reference": "urn:uuid:83262b39-d914-4e44-96f3-94d366eb4cf1",
          "display": "Gioele Fabbri"
        },
        "effectiveDateTime": "2023-06-11T15:46:20Z",
        "specimen": {
          "reference": "urn:uuid:88e37940-cd90-4cb9-8cc5-744ef6d3996e"
        }
      }
    },
    {
      "fullUrl": "urn:uuid:a8b18115-0d82-4f9f-86f6-235bd1743896",
      "resource": {
        "resourceType": "Observation",
        "id": "a8b18115-0d82-4f9f-86f6-235bd1743896",
        "meta": {
          "profile": [
            "http://hl7.eu/fhir/laboratory/StructureDefinition/Observation-resultslab-eu-lab"
          ]
        },
        "performer": [
          {
            "display": "The Central European Lab"
          }
        ],
        "category": [
          {
            "coding": [
              {
                "system": "http://terminology.hl7.org/CodeSystem/observation-category",
                "code": "laboratory"
              }
            ]
          }
        ],
        "code": {
          "coding": [
            {
              "code": "2947-0",
              "system": "http://loinc.org",
              "display": "Sodium [Moles/volume] in Blood"
            }
          ],
          "text": "Sodium [Moles/volume] in Blood"
        },
        "valueQuantity": {
          "system": "http://unitsofmeasure.org",
          "value": 142.5,
          "unit": "mmol/L",
          "code": "mmol/L"
        },
        "referenceRange": [
          {
            "low": {
              "value": 135,
              "code": "mmol/L",
              "system": "http://unitsofmeasure.org"
            }
          },
          {
            "high": {
              "value": 145,
              "code": "mmol/L",
              "system": "http://unitsofmeasure.org"
            }
          }
        ],
        "text": {
          "status": "generated",
          "div": "<div xmlns=\"http://www.w3.org/1999/xhtml\"><table class=\"hl7__eu__lab__report\"><tr><th>Test</th><th>11-Jun-2023</th><th>Reference&#xA0;Range</th><th>Unit</th></tr><tr><td>Sodium [Moles/volume] in Blood</td><td>142.5</td><td>135 - 145</td><td></td><td>mmol/L</td></tr></table></div>"
        },
        "status": "final",
        "subject": {
          "reference": "urn:uuid:83262b39-d914-4e44-96f3-94d366eb4cf1",
          "display": "Gioele Fabbri"
        },
        "effectiveDateTime": "2023-06-11T15:46:20Z",
        "specimen": {
          "reference": "urn:uuid:88e37940-cd90-4cb9-8cc5-744ef6d3996e"
        }
      }
    },
    {
      "fullUrl": "urn:uuid:1d4f1809-68fc-49ca-b67f-a4c3dee4ef7d",
      "resource": {
        "resourceType": "Observation",
        "id": "1d4f1809-68fc-49ca-b67f-a4c3dee4ef7d",
        "meta": {
          "profile": [
            "http://hl7.eu/fhir/laboratory/StructureDefinition/Observation-resultslab-eu-lab"
          ]
        },
        "performer": [
          {
            "display": "The Central European Lab"
          }
        ],
        "category": [
          {
            "coding": [
              {
                "system": "http://terminology.hl7.org/CodeSystem/observation-category",
                "code": "laboratory"
              }
            ]
          }
        ],
        "code": {
          "coding": [
            {
              "code": "6298-4",
              "system": "http://loinc.org",
              "display": "Potassium [Moles/volume] in Blood"
            }
          ],
          "text": "Potassium [Moles/volume] in Blood"
        },
        "valueQuantity": {
          "system": "http://unitsofmeasure.org",
          "value": 4.7,
          "unit": "mmol/L",
          "code": "mmol/L"
        },
        "referenceRange": [
          {
            "low": {
              "value": 3.5,
              "code": "mmol/L",
              "system": "http://unitsofmeasure.org"
            }
          },
          {
            "high": {
              "value": 5,
              "code": "mmol/L",
              "system": "http://unitsofmeasure.org"
            }
          }
        ],
        "text": {
          "status": "generated",
          "div": "<div xmlns=\"http://www.w3.org/1999/xhtml\"><table class=\"hl7__eu__lab__report\"><tr><th>Test</th><th>11-Jun-2023</th><th>Reference&#xA0;Range</th><th>Unit</th></tr><tr><td>Potassium [Moles/volume] in Blood</td><td>4.7</td><td>3.5 - 5</td><td></td><td>mmol/L</td></tr></table></div>"
        },
        "status": "final",
        "subject": {
          "reference": "urn:uuid:83262b39-d914-4e44-96f3-94d366eb4cf1",
          "display": "Gioele Fabbri"
        },
        "effectiveDateTime": "2023-06-11T15:46:20Z",
        "specimen": {
          "reference": "urn:uuid:88e37940-cd90-4cb9-8cc5-744ef6d3996e"
        }
      }
    },
    {
      "fullUrl": "urn:uuid:859e1b79-66eb-4448-980c-00d9bf8fd9db",
      "resource": {
        "resourceType": "Observation",
        "id": "859e1b79-66eb-4448-980c-00d9bf8fd9db",
        "meta": {
          "profile": [
            "http://hl7.eu/fhir/laboratory/StructureDefinition/Observation-resultslab-eu-lab"
          ]
        },
        "performer": [
          {
            "display": "The Central European Lab"
          }
        ],
        "category": [
          {
            "coding": [
              {
                "system": "http://terminology.hl7.org/CodeSystem/observation-category",
                "code": "laboratory"
              }
            ]
          }
        ],
        "code": {
          "coding": [
            {
              "code": "2069-3",
              "system": "http://loinc.org",
              "display": "Chloride [Moles/volume] in Blood"
            }
          ],
          "text": "Chloride [Moles/volume] in Blood"
        },
        "valueQuantity": {
          "system": "http://unitsofmeasure.org",
          "value": 104.7,
          "unit": "mmol/L",
          "code": "mmol/L"
        },
        "referenceRange": [
          {
            "low": {
              "value": 98,
              "code": "mmol/L",
              "system": "http://unitsofmeasure.org"
            }
          },
          {
            "high": {
              "value": 107,
              "code": "mmol/L",
              "system": "http://unitsofmeasure.org"
            }
          }
        ],
        "text": {
          "status": "generated",
          "div": "<div xmlns=\"http://www.w3.org/1999/xhtml\"><table class=\"hl7__eu__lab__report\"><tr><th>Test</th><th>11-Jun-2023</th><th>Reference&#xA0;Range</th><th>Unit</th></tr><tr><td>Chloride [Moles/volume] in Blood</td><td>104.7</td><td>98 - 107</td><td></td><td>mmol/L</td></tr></table></div>"
        },
        "status": "final",
        "subject": {
          "reference": "urn:uuid:83262b39-d914-4e44-96f3-94d366eb4cf1",
          "display": "Gioele Fabbri"
        },
        "effectiveDateTime": "2023-06-11T15:46:20Z",
        "specimen": {
          "reference": "urn:uuid:88e37940-cd90-4cb9-8cc5-744ef6d3996e"
        }
      }
    },
    {
      "fullUrl": "urn:uuid:a91e424e-78ca-4273-a0e9-aeda9b0504e0",
      "resource": {
        "resourceType": "Observation",
        "id": "a91e424e-78ca-4273-a0e9-aeda9b0504e0",
        "meta": {
          "profile": [
            "http://hl7.eu/fhir/laboratory/StructureDefinition/Observation-resultslab-eu-lab"
          ]
        },
        "performer": [
          {
            "display": "The Central European Lab"
          }
        ],
        "category": [
          {
            "coding": [
              {
                "system": "http://terminology.hl7.org/CodeSystem/observation-category",
                "code": "laboratory"
              }
            ]
          }
        ],
        "code": {
          "coding": [
            {
              "code": "20565-8",
              "system": "http://loinc.org",
              "display": "Carbon dioxide, total [Moles/volume] in Blood"
            }
          ],
          "text": "Carbon dioxide, total [Moles/volume] in Blood"
        },
        "valueQuantity": {
          "system": "http://unitsofmeasure.org",
          "value": 22.1,
          "unit": "mmol/L",
          "code": "mmol/L"
        },
        "referenceRange": [
          {
            "low": {
              "value": 24,
              "code": "mmol/L",
              "system": "http://unitsofmeasure.org"
            }
          },
          {
            "high": {
              "value": 29,
              "code": "mmol/L",
              "system": "http://unitsofmeasure.org"
            }
          }
        ],
        "interpretation": [
          {
            "coding": [
              {
                "code": "L",
                "system": "http://terminology.hl7.org/CodeSystem/v3-ObservationInterpretation",
                "display": "Low"
              }
            ]
          }
        ],
        "text": {
          "status": "generated",
          "div": "<div xmlns=\"http://www.w3.org/1999/xhtml\"><table class=\"hl7__eu__lab__report\"><tr><th>Test</th><th>11-Jun-2023</th><th>Reference&#xA0;Range</th><th>Unit</th></tr><tr><td>Carbon dioxide, total [Moles/volume] in Blood</td><td>22.1</td><td>24 - 29</td><td>L</td><td>mmol/L</td></tr></table></div>"
        },
        "status": "final",
        "subject": {
          "reference": "urn:uuid:83262b39-d914-4e44-96f3-94d366eb4cf1",
          "display": "Gioele Fabbri"
        },
        "effectiveDateTime": "2023-06-11T15:46:20Z",
        "specimen": {
          "reference": "urn:uuid:88e37940-cd90-4cb9-8cc5-744ef6d3996e"
        }
      }
    },
    {
      "fullUrl": "urn:uuid:5027c853-b38c-4006-a29e-4b6e3055e934",
      "resource": {
        "resourceType": "Observation",
        "id": "5027c853-b38c-4006-a29e-4b6e3055e934",
        "meta": {
          "profile": [
            "http://hl7.eu/fhir/laboratory/StructureDefinition/Observation-resultslab-eu-lab"
          ]
        },
        "performer": [
          {
            "display": "The Central European Lab"
          }
        ],
        "category": [
          {
            "coding": [
              {
                "system": "http://terminology.hl7.org/CodeSystem/observation-category",
                "code": "laboratory"
              }
            ]
          }
        ],
        "code": {
          "coding": [
            {
              "code": "2885-2",
              "system": "http://loinc.org",
              "display": "Protein [Mass/volume] in Serum or Plasma"
            }
          ],
          "text": "Protein [Mass/volume] in Serum or Plasma"
        },
        "valueQuantity": {
          "system": "http://unitsofmeasure.org",
          "value": 6.3,
          "unit": "g/dL",
          "code": "g/dL"
        },
        "referenceRange": [
          {
            "low": {
              "value": 6.6,
              "code": "g/dL",
              "system": "http://unitsofmeasure.org"
            }
          },
          {
            "high": {
              "value": 8.3,
              "code": "g/dL",
              "system": "http://unitsofmeasure.org"
            }
          }
        ],
        "interpretation": [
          {
            "coding": [
              {
                "code": "L",
                "system": "http://terminology.hl7.org/CodeSystem/v3-ObservationInterpretation",
                "display": "Low"
              }
            ]
          }
        ],
        "text": {
          "status": "generated",
          "div": "<div xmlns=\"http://www.w3.org/1999/xhtml\"><table class=\"hl7__eu__lab__report\"><tr><th>Test</th><th>11-Jun-2023</th><th>Reference&#xA0;Range</th><th>Unit</th></tr><tr><td>Protein [Mass/volume] in Serum or Plasma</td><td>6.3</td><td>6.6 - 8.3</td><td>L</td><td>g/dL</td></tr></table></div>"
        },
        "status": "final",
        "subject": {
          "reference": "urn:uuid:83262b39-d914-4e44-96f3-94d366eb4cf1",
          "display": "Gioele Fabbri"
        },
        "effectiveDateTime": "2023-06-11T15:46:20Z",
        "specimen": {
          "reference": "urn:uuid:aa0aa8ea-3eca-41f7-8914-c4d9398eff3e"
        }
      }
    },
    {
      "fullUrl": "urn:uuid:0a2b0046-1f62-40ef-a9cd-a33f245de336",
      "resource": {
        "resourceType": "Observation",
        "id": "0a2b0046-1f62-40ef-a9cd-a33f245de336",
        "meta": {
          "profile": [
            "http://hl7.eu/fhir/laboratory/StructureDefinition/Observation-resultslab-eu-lab"
          ]
        },
        "performer": [
          {
            "display": "The Central European Lab"
          }
        ],
        "category": [
          {
            "coding": [
              {
                "system": "http://terminology.hl7.org/CodeSystem/observation-category",
                "code": "laboratory"
              }
            ]
          }
        ],
        "code": {
          "coding": [
            {
              "code": "1751-7",
              "system": "http://loinc.org",
              "display": "Albumin [Mass/volume] in Serum or Plasma"
            }
          ],
          "text": "Albumin [Mass/volume] in Serum or Plasma"
        },
        "valueQuantity": {
          "system": "http://unitsofmeasure.org",
          "value": 4,
          "unit": "g/dL",
          "code": "g/dL"
        },
        "referenceRange": [
          {
            "low": {
              "value": 3.5,
              "code": "g/dL",
              "system": "http://unitsofmeasure.org"
            }
          },
          {
            "high": {
              "value": 5.5,
              "code": "g/dL",
              "system": "http://unitsofmeasure.org"
            }
          }
        ],
        "text": {
          "status": "generated",
          "div": "<div xmlns=\"http://www.w3.org/1999/xhtml\"><table class=\"hl7__eu__lab__report\"><tr><th>Test</th><th>11-Jun-2023</th><th>Reference&#xA0;Range</th><th>Unit</th></tr><tr><td>Albumin [Mass/volume] in Serum or Plasma</td><td>4.0</td><td>3.5 - 5.5</td><td></td><td>g/dL</td></tr></table></div>"
        },
        "status": "final",
        "subject": {
          "reference": "urn:uuid:83262b39-d914-4e44-96f3-94d366eb4cf1",
          "display": "Gioele Fabbri"
        },
        "effectiveDateTime": "2023-06-11T15:46:20Z",
        "specimen": {
          "reference": "urn:uuid:aa0aa8ea-3eca-41f7-8914-c4d9398eff3e"
        }
      }
    },
    {
      "fullUrl": "urn:uuid:9d645675-5900-4e0b-b525-e5bbda6a26c6",
      "resource": {
        "resourceType": "Observation",
        "id": "9d645675-5900-4e0b-b525-e5bbda6a26c6",
        "meta": {
          "profile": [
            "http://hl7.eu/fhir/laboratory/StructureDefinition/Observation-resultslab-eu-lab"
          ]
        },
        "performer": [
          {
            "display": "The Central European Lab"
          }
        ],
        "category": [
          {
            "coding": [
              {
                "system": "http://terminology.hl7.org/CodeSystem/observation-category",
                "code": "laboratory"
              }
            ]
          }
        ],
        "code": {
          "coding": [
            {
              "code": "10834-0",
              "system": "http://loinc.org",
              "display": "Globulin [Mass/volume] in Serum by calculation"
            }
          ],
          "text": "Globulin [Mass/volume] in Serum by calculation"
        },
        "valueQuantity": {
          "system": "http://unitsofmeasure.org",
          "value": 3.1,
          "unit": "g/L",
          "code": "g/L"
        },
        "referenceRange": [
          {
            "low": {
              "value": 2,
              "code": "g/L",
              "system": "http://unitsofmeasure.org"
            }
          },
          {
            "high": {
              "value": 3.5,
              "code": "g/L",
              "system": "http://unitsofmeasure.org"
            }
          }
        ],
        "text": {
          "status": "generated",
          "div": "<div xmlns=\"http://www.w3.org/1999/xhtml\"><table class=\"hl7__eu__lab__report\"><tr><th>Test</th><th>11-Jun-2023</th><th>Reference&#xA0;Range</th><th>Unit</th></tr><tr><td>Globulin [Mass/volume] in Serum by calculation</td><td>3.1</td><td>2 - 3.5</td><td></td><td>g/L</td></tr></table></div>"
        },
        "status": "final",
        "subject": {
          "reference": "urn:uuid:83262b39-d914-4e44-96f3-94d366eb4cf1",
          "display": "Gioele Fabbri"
        },
        "effectiveDateTime": "2023-06-11T15:46:20Z",
        "specimen": {
          "reference": "urn:uuid:b8a67689-729f-4576-8e8d-4703d1a2647d"
        }
      }
    },
    {
      "fullUrl": "urn:uuid:f016faf9-ab07-42f7-9d7b-da765333295b",
      "resource": {
        "resourceType": "Observation",
        "id": "f016faf9-ab07-42f7-9d7b-da765333295b",
        "meta": {
          "profile": [
            "http://hl7.eu/fhir/laboratory/StructureDefinition/Observation-resultslab-eu-lab"
          ]
        },
        "performer": [
          {
            "display": "The Central European Lab"
          }
        ],
        "category": [
          {
            "coding": [
              {
                "system": "http://terminology.hl7.org/CodeSystem/observation-category",
                "code": "laboratory"
              }
            ]
          }
        ],
        "code": {
          "coding": [
            {
              "code": "1975-2",
              "system": "http://loinc.org",
              "display": "Bilirubin.total [Mass/volume] in Serum or Plasma"
            }
          ],
          "text": "Bilirubin.total [Mass/volume] in Serum or Plasma"
        },
        "valueQuantity": {
          "system": "http://unitsofmeasure.org",
          "value": 0.3,
          "unit": "mg/dL",
          "code": "mg/dL"
        },
        "referenceRange": [
          {
            "low": {
              "value": 0.3,
              "code": "mg/dL",
              "system": "http://unitsofmeasure.org"
            }
          },
          {
            "high": {
              "value": 1.2,
              "code": "mg/dL",
              "system": "http://unitsofmeasure.org"
            }
          }
        ],
        "text": {
          "status": "generated",
          "div": "<div xmlns=\"http://www.w3.org/1999/xhtml\"><table class=\"hl7__eu__lab__report\"><tr><th>Test</th><th>11-Jun-2023</th><th>Reference&#xA0;Range</th><th>Unit</th></tr><tr><td>Bilirubin.total [Mass/volume] in Serum or Plasma</td><td>0.3</td><td>0.3 - 1.2</td><td></td><td>mg/dL</td></tr></table></div>"
        },
        "status": "final",
        "subject": {
          "reference": "urn:uuid:83262b39-d914-4e44-96f3-94d366eb4cf1",
          "display": "Gioele Fabbri"
        },
        "effectiveDateTime": "2023-06-11T15:46:20Z",
        "specimen": {
          "reference": "urn:uuid:aa0aa8ea-3eca-41f7-8914-c4d9398eff3e"
        }
      }
    },
    {
      "fullUrl": "urn:uuid:a993934b-b3c8-474c-8ec6-e2b20dba7ccb",
      "resource": {
        "resourceType": "Observation",
        "id": "a993934b-b3c8-474c-8ec6-e2b20dba7ccb",
        "meta": {
          "profile": [
            "http://hl7.eu/fhir/laboratory/StructureDefinition/Observation-resultslab-eu-lab"
          ]
        },
        "performer": [
          {
            "display": "The Central European Lab"
          }
        ],
        "category": [
          {
            "coding": [
              {
                "system": "http://terminology.hl7.org/CodeSystem/observation-category",
                "code": "laboratory"
              }
            ]
          }
        ],
        "code": {
          "coding": [
            {
              "code": "6768-6",
              "system": "http://loinc.org",
              "display": "Alkaline phosphatase [Enzymatic activity/volume] in Serum or Plasma"
            }
          ],
          "text": "Alkaline phosphatase [Enzymatic activity/volume] in Serum or Plasma"
        },
        "valueQuantity": {
          "system": "http://unitsofmeasure.org",
          "value": 119.2,
          "unit": "U/L",
          "code": "U/L"
        },
        "referenceRange": [
          {
            "low": {
              "value": 39,
              "code": "U/L",
              "system": "http://unitsofmeasure.org"
            }
          },
          {
            "high": {
              "value": 136,
              "code": "U/L",
              "system": "http://unitsofmeasure.org"
            }
          }
        ],
        "text": {
          "status": "generated",
          "div": "<div xmlns=\"http://www.w3.org/1999/xhtml\"><table class=\"hl7__eu__lab__report\"><tr><th>Test</th><th>11-Jun-2023</th><th>Reference&#xA0;Range</th><th>Unit</th></tr><tr><td>Alkaline phosphatase [Enzymatic activity/volume] in Serum or Plasma</td><td>119.2</td><td>39 - 136</td><td></td><td>U/L</td></tr></table></div>"
        },
        "status": "final",
        "subject": {
          "reference": "urn:uuid:83262b39-d914-4e44-96f3-94d366eb4cf1",
          "display": "Gioele Fabbri"
        },
        "effectiveDateTime": "2023-06-11T15:46:20Z",
        "specimen": {
          "reference": "urn:uuid:aa0aa8ea-3eca-41f7-8914-c4d9398eff3e"
        }
      }
    },
    {
      "fullUrl": "urn:uuid:44827e66-a8dc-4a4a-93f4-ec8baa51f06a",
      "resource": {
        "resourceType": "Observation",
        "id": "44827e66-a8dc-4a4a-93f4-ec8baa51f06a",
        "meta": {
          "profile": [
            "http://hl7.eu/fhir/laboratory/StructureDefinition/Observation-resultslab-eu-lab"
          ]
        },
        "performer": [
          {
            "display": "The Central European Lab"
          }
        ],
        "category": [
          {
            "coding": [
              {
                "system": "http://terminology.hl7.org/CodeSystem/observation-category",
                "code": "laboratory"
              }
            ]
          }
        ],
        "code": {
          "coding": [
            {
              "code": "1742-6",
              "system": "http://loinc.org",
              "display": "Alanine aminotransferase [Enzymatic activity/volume] in Serum or Plasma"
            }
          ],
          "text": "Alanine aminotransferase [Enzymatic activity/volume] in Serum or Plasma"
        },
        "valueQuantity": {
          "system": "http://unitsofmeasure.org",
          "value": 34.1,
          "unit": "U/L",
          "code": "U/L"
        },
        "referenceRange": [
          {
            "low": {
              "value": 7,
              "code": "U/L",
              "system": "http://unitsofmeasure.org"
            }
          },
          {
            "high": {
              "value": 52,
              "code": "U/L",
              "system": "http://unitsofmeasure.org"
            }
          }
        ],
        "text": {
          "status": "generated",
          "div": "<div xmlns=\"http://www.w3.org/1999/xhtml\"><table class=\"hl7__eu__lab__report\"><tr><th>Test</th><th>11-Jun-2023</th><th>Reference&#xA0;Range</th><th>Unit</th></tr><tr><td>Alanine aminotransferase [Enzymatic activity/volume] in Serum or Plasma</td><td>34.1</td><td>7 - 52</td><td></td><td>U/L</td></tr></table></div>"
        },
        "status": "final",
        "subject": {
          "reference": "urn:uuid:83262b39-d914-4e44-96f3-94d366eb4cf1",
          "display": "Gioele Fabbri"
        },
        "effectiveDateTime": "2023-06-11T15:46:20Z",
        "specimen": {
          "reference": "urn:uuid:aa0aa8ea-3eca-41f7-8914-c4d9398eff3e"
        }
      }
    },
    {
      "fullUrl": "urn:uuid:66c333fb-b7e6-4a5b-903e-e3948c9205e5",
      "resource": {
        "resourceType": "Observation",
        "id": "66c333fb-b7e6-4a5b-903e-e3948c9205e5",
        "meta": {
          "profile": [
            "http://hl7.eu/fhir/laboratory/StructureDefinition/Observation-resultslab-eu-lab"
          ]
        },
        "performer": [
          {
            "display": "The Central European Lab"
          }
        ],
        "category": [
          {
            "coding": [
              {
                "system": "http://terminology.hl7.org/CodeSystem/observation-category",
                "code": "laboratory"
              }
            ]
          }
        ],
        "code": {
          "coding": [
            {
              "code": "1920-8",
              "system": "http://loinc.org",
              "display": "Aspartate aminotransferase [Enzymatic activity/volume] in Serum or Plasma"
            }
          ],
          "text": "Aspartate aminotransferase [Enzymatic activity/volume] in Serum or Plasma"
        },
        "valueQuantity": {
          "system": "http://unitsofmeasure.org",
          "value": 35.2,
          "unit": "U/L",
          "code": "U/L"
        },
        "referenceRange": [
          {
            "low": {
              "value": 10,
              "code": "U/L",
              "system": "http://unitsofmeasure.org"
            }
          },
          {
            "high": {
              "value": 40,
              "code": "U/L",
              "system": "http://unitsofmeasure.org"
            }
          }
        ],
        "text": {
          "status": "generated",
          "div": "<div xmlns=\"http://www.w3.org/1999/xhtml\"><table class=\"hl7__eu__lab__report\"><tr><th>Test</th><th>11-Jun-2023</th><th>Reference&#xA0;Range</th><th>Unit</th></tr><tr><td>Aspartate aminotransferase [Enzymatic activity/volume] in Serum or Plasma</td><td>35.2</td><td>10 - 40</td><td></td><td>U/L</td></tr></table></div>"
        },
        "status": "final",
        "subject": {
          "reference": "urn:uuid:83262b39-d914-4e44-96f3-94d366eb4cf1",
          "display": "Gioele Fabbri"
        },
        "effectiveDateTime": "2023-06-11T15:46:20Z",
        "specimen": {
          "reference": "urn:uuid:aa0aa8ea-3eca-41f7-8914-c4d9398eff3e"
        }
      }
    },
    {
      "fullUrl": "urn:uuid:84653141-7e9b-4c89-bb80-38098bf37a7b",
      "resource": {
        "resourceType": "Observation",
        "id": "84653141-7e9b-4c89-bb80-38098bf37a7b",
        "meta": {
          "profile": [
            "http://hl7.eu/fhir/laboratory/StructureDefinition/Observation-resultslab-eu-lab"
          ]
        },
        "performer": [
          {
            "display": "The Central European Lab"
          }
        ],
        "category": [
          {
            "coding": [
              {
                "system": "http://terminology.hl7.org/CodeSystem/observation-category",
                "code": "laboratory"
              }
            ]
          }
        ],
        "code": {
          "coding": [
            {
              "code": "2093-3",
              "system": "http://loinc.org",
              "display": "Cholesterol [Mass/volume] in Serum or Plasma"
            }
          ],
          "text": "Cholesterol [Mass/volume] in Serum or Plasma"
        },
        "valueQuantity": {
          "system": "http://unitsofmeasure.org",
          "value": 186.6,
          "unit": "mg/dL",
          "code": "mg/dL"
        },
        "referenceRange": [
          {
            "low": {
              "value": 125,
              "code": "mg/dL",
              "system": "http://unitsofmeasure.org"
            }
          },
          {
            "high": {
              "value": 200,
              "code": "mg/dL",
              "system": "http://unitsofmeasure.org"
            }
          }
        ],
        "text": {
          "status": "generated",
          "div": "<div xmlns=\"http://www.w3.org/1999/xhtml\"><table class=\"hl7__eu__lab__report\"><tr><th>Test</th><th>11-Jun-2023</th><th>Reference&#xA0;Range</th><th>Unit</th></tr><tr><td>Cholesterol [Mass/volume] in Serum or Plasma</td><td>186.6</td><td>125 - 200</td><td></td><td>mg/dL</td></tr></table></div>"
        },
        "status": "final",
        "subject": {
          "reference": "urn:uuid:83262b39-d914-4e44-96f3-94d366eb4cf1",
          "display": "Gioele Fabbri"
        },
        "effectiveDateTime": "2023-06-11T15:46:20Z",
        "specimen": {
          "reference": "urn:uuid:aa0aa8ea-3eca-41f7-8914-c4d9398eff3e"
        }
      }
    },
    {
      "fullUrl": "urn:uuid:843f44e1-da28-4074-86c9-c8d8db9a8a7f",
      "resource": {
        "resourceType": "Observation",
        "id": "843f44e1-da28-4074-86c9-c8d8db9a8a7f",
        "meta": {
          "profile": [
            "http://hl7.eu/fhir/laboratory/StructureDefinition/Observation-resultslab-eu-lab"
          ]
        },
        "performer": [
          {
            "display": "The Central European Lab"
          }
        ],
        "category": [
          {
            "coding": [
              {
                "system": "http://terminology.hl7.org/CodeSystem/observation-category",
                "code": "laboratory"
              }
            ]
          }
        ],
        "code": {
          "coding": [
            {
              "code": "2571-8",
              "system": "http://loinc.org",
              "display": "Triglyceride [Mass/volume] in Serum or Plasma"
            }
          ],
          "text": "Triglyceride [Mass/volume] in Serum or Plasma"
        },
        "valueQuantity": {
          "system": "http://unitsofmeasure.org",
          "value": 193.3,
          "unit": "mg/dL",
          "code": "mg/dL"
        },
        "referenceRange": [
          {
            "low": {
              "value": 0,
              "code": "mg/dL",
              "system": "http://unitsofmeasure.org"
            }
          },
          {
            "high": {
              "value": 150,
              "code": "mg/dL",
              "system": "http://unitsofmeasure.org"
            }
          }
        ],
        "interpretation": [
          {
            "coding": [
              {
                "code": "H",
                "system": "http://terminology.hl7.org/CodeSystem/v3-ObservationInterpretation",
                "display": "High"
              }
            ]
          }
        ],
        "text": {
          "status": "generated",
          "div": "<div xmlns=\"http://www.w3.org/1999/xhtml\"><table class=\"hl7__eu__lab__report\"><tr><th>Test</th><th>11-Jun-2023</th><th>Reference&#xA0;Range</th><th>Unit</th></tr><tr><td>Triglyceride [Mass/volume] in Serum or Plasma</td><td>193.3</td><td>0 - 150</td><td>H</td><td>mg/dL</td></tr></table></div>"
        },
        "status": "final",
        "subject": {
          "reference": "urn:uuid:83262b39-d914-4e44-96f3-94d366eb4cf1",
          "display": "Gioele Fabbri"
        },
        "effectiveDateTime": "2023-06-11T15:46:20Z",
        "specimen": {
          "reference": "urn:uuid:aa0aa8ea-3eca-41f7-8914-c4d9398eff3e"
        }
      }
    },
    {
      "fullUrl": "urn:uuid:16755dbf-3953-4da5-827f-892984258939",
      "resource": {
        "resourceType": "Observation",
        "id": "16755dbf-3953-4da5-827f-892984258939",
        "meta": {
          "profile": [
            "http://hl7.eu/fhir/laboratory/StructureDefinition/Observation-resultslab-eu-lab"
          ]
        },
        "performer": [
          {
            "display": "The Central European Lab"
          }
        ],
        "category": [
          {
            "coding": [
              {
                "system": "http://terminology.hl7.org/CodeSystem/observation-category",
                "code": "laboratory"
              }
            ]
          }
        ],
        "code": {
          "coding": [
            {
              "code": "18262-6",
              "system": "http://loinc.org",
              "display": "Cholesterol in LDL [Mass/volume] in Serum or Plasma by Direct assay"
            }
          ],
          "text": "Cholesterol in LDL [Mass/volume] in Serum or Plasma by Direct assay"
        },
        "valueQuantity": {
          "system": "http://unitsofmeasure.org",
          "value": 136.2,
          "unit": "mg/dL",
          "code": "mg/dL"
        },
        "referenceRange": [
          {
            "low": {
              "value": 0,
              "code": "mg/dL",
              "system": "http://unitsofmeasure.org"
            }
          },
          {
            "high": {
              "value": 130,
              "code": "mg/dL",
              "system": "http://unitsofmeasure.org"
            }
          }
        ],
        "interpretation": [
          {
            "coding": [
              {
                "code": "H",
                "system": "http://terminology.hl7.org/CodeSystem/v3-ObservationInterpretation",
                "display": "High"
              }
            ]
          }
        ],
        "text": {
          "status": "generated",
          "div": "<div xmlns=\"http://www.w3.org/1999/xhtml\"><table class=\"hl7__eu__lab__report\"><tr><th>Test</th><th>11-Jun-2023</th><th>Reference&#xA0;Range</th><th>Unit</th></tr><tr><td>Cholesterol in LDL [Mass/volume] in Serum or Plasma by Direct assay</td><td>136.2</td><td>0 - 130</td><td>H</td><td>mg/dL</td></tr></table></div>"
        },
        "status": "final",
        "subject": {
          "reference": "urn:uuid:83262b39-d914-4e44-96f3-94d366eb4cf1",
          "display": "Gioele Fabbri"
        },
        "effectiveDateTime": "2023-06-11T15:46:20Z",
        "specimen": {
          "reference": "urn:uuid:aa0aa8ea-3eca-41f7-8914-c4d9398eff3e"
        }
      }
    },
    {
      "fullUrl": "urn:uuid:cb2d4c0f-f320-493b-afa0-2413dbd6ed03",
      "resource": {
        "resourceType": "Observation",
        "id": "cb2d4c0f-f320-493b-afa0-2413dbd6ed03",
        "meta": {
          "profile": [
            "http://hl7.eu/fhir/laboratory/StructureDefinition/Observation-resultslab-eu-lab"
          ]
        },
        "performer": [
          {
            "display": "The Central European Lab"
          }
        ],
        "category": [
          {
            "coding": [
              {
                "system": "http://terminology.hl7.org/CodeSystem/observation-category",
                "code": "laboratory"
              }
            ]
          }
        ],
        "code": {
          "coding": [
            {
              "code": "2085-9",
              "system": "http://loinc.org",
              "display": "Cholesterol in HDL [Mass/volume] in Serum or Plasma"
            }
          ],
          "text": "Cholesterol in HDL [Mass/volume] in Serum or Plasma"
        },
        "valueQuantity": {
          "system": "http://unitsofmeasure.org",
          "value": 42,
          "unit": "mg/dL",
          "code": "mg/dL"
        },
        "referenceRange": [
          {
            "low": {
              "value": 40,
              "code": "mg/dL",
              "system": "http://unitsofmeasure.org"
            }
          },
          {
            "high": {
              "value": 100,
              "code": "mg/dL",
              "system": "http://unitsofmeasure.org"
            }
          }
        ],
        "text": {
          "status": "generated",
          "div": "<div xmlns=\"http://www.w3.org/1999/xhtml\"><table class=\"hl7__eu__lab__report\"><tr><th>Test</th><th>11-Jun-2023</th><th>Reference&#xA0;Range</th><th>Unit</th></tr><tr><td>Cholesterol in HDL [Mass/volume] in Serum or Plasma</td><td>42.0</td><td>40 - 100</td><td></td><td>mg/dL</td></tr></table></div>"
        },
        "status": "final",
        "subject": {
          "reference": "urn:uuid:83262b39-d914-4e44-96f3-94d366eb4cf1",
          "display": "Gioele Fabbri"
        },
        "effectiveDateTime": "2023-06-11T15:46:20Z",
        "specimen": {
          "reference": "urn:uuid:aa0aa8ea-3eca-41f7-8914-c4d9398eff3e"
        }
      }
    },
    {
      "fullUrl": "urn:uuid:ce62ad52-c1c2-4a05-a7b7-55a1f3b76937",
      "resource": {
        "resourceType": "Device",
        "id": "ce62ad52-c1c2-4a05-a7b7-55a1f3b76937",
        "deviceName": [
          {
            "name": "SYNDERAI Synthetic Generator",
            "type": "manufacturer-name"
          }
        ],
        "version": [
          {
            "value": "5.0"
          }
        ],
        "text": {
          "status": "generated",
          "div": "<div xmlns=\"http://www.w3.org/1999/xhtml\">SYNDERAI Synthetic Generator v5.0</div>"
        },
        "status": "active\"",
        "distinctIdentifier": "synderai-generator-50",
        "manufacturer": "SYNDERAI Project"
      }
    },
    {
      "fullUrl": "urn:uuid:7841f643-3bd7-48cb-b389-5e217daea54e",
      "resource": {
        "resourceType": "Provenance",
        "id": "7841f643-3bd7-48cb-b389-5e217daea54e",
        "target": [
          {
            "reference": "Patient/83262b39-d914-4e44-96f3-94d366eb4cf1"
          },
          {
            "reference": "Bundle/4ecbd9c2-cf02-4b15-a2a4-ead46e4e77d8"
          },
          {
            "reference": "Composition/65d24dc8-ec9f-4bbd-bcaf-4109737b1551"
          },
          {
            "reference": "PractitionerRole/7eebd453-b294-4147-bb00-4f993a16d9d5"
          },
          {
            "reference": "Practitioner/0eb89796-1699-4b47-a4fc-4f76042028e4"
          },
          {
            "reference": "PractitionerRole/795284e3-57ee-40e7-aea2-c703afde5512"
          },
          {
            "reference": "Organization/eebd15cc-8315-4649-8a38-8cd8b3845057"
          }
        ],
        "activity": {
          "text": "Synthetic Example Data Generation"
        },
        "policy": [
          "https://synderai.net/synderai-synthetic-data-policy"
        ],
        "agent": [
          {
            "type": {
              "text": "author"
            },
            "who": {
              "reference": "Device/ce62ad52-c1c2-4a05-a7b7-55a1f3b76937"
            }
          }
        ],
        "reason": [
          {
            "text": "Interoperability Testing and Training (non-clinical use)"
          }
        ],
        "text": {
          "status": "generated",
          "div": "<div xmlns=\"http://www.w3.org/1999/xhtml\">Provenance for SYNDERAI Synthetic Example Data Resource</div>"
        },
        "recorded": "2023-06-11T17:46:20Z"
      }
    },
    {
      "fullUrl": "urn:uuid:7eebd453-b294-4147-bb00-4f993a16d9d5",
      "resource": {
        "resourceType": "PractitionerRole",
        "id": "7eebd453-b294-4147-bb00-4f993a16d9d5",
        "meta": {
          "profile": [
            "http://hl7.eu/fhir/base/StructureDefinition/practitionerRole-eu"
          ]
        },
        "text": {
          "status": "generated",
          "div": "<div xmlns=\"http://www.w3.org/1999/xhtml\">Laboratory Role Id: 7eebd453-b294-4147-bb00-4f993a16d9d5</div>"
        },
        "practitioner": {
          "reference": "urn:uuid:0eb89796-1699-4b47-a4fc-4f76042028e4"
        }
      }
    },
    {
      "fullUrl": "urn:uuid:0eb89796-1699-4b47-a4fc-4f76042028e4",
      "resource": {
        "resourceType": "Practitioner",
        "id": "0eb89796-1699-4b47-a4fc-4f76042028e4",
        "meta": {
          "profile": [
            "http://hl7.eu/fhir/base/StructureDefinition/practitioner-eu"
          ]
        },
        "identifier": [
          {
            "assigner": {
              "display": "HL7 Europe"
            },
            "system": "urn:oid:2.16.840.1.113883.2.51.999",
            "value": "344a89f4-79d7-4992-8607-760844f80695"
          }
        ],
        "name": [
          {
            "prefix": [
              "dr"
            ],
            "given": [
              "Ex"
            ],
            "family": "Ample"
          }
        ],
        "address": [
          {
            "line": [
              "Laboratoire Central Européenne",
              "Boulevard du Jardin Botanique 32"
            ],
            "postalCode": "1000",
            "city": "Brussels",
            "country": "Belgium"
          }
        ],
        "text": {
          "status": "generated",
          "div": "<div xmlns=\"http://www.w3.org/1999/xhtml\">Laboratory: Laboratoire Central Européenne, 1000 Brussels, Belgium</div>"
        }
      }
    }
  ],
  "type": "document",
  "timestamp": "2023-06-11T17:46:20Z"
}
