{
  "resourceType": "Bundle",
  "id": "ee0db846-e35b-49d4-bd79-76d427c900b6",
  "meta": {
    "profile": [
      "http://hl7.eu/fhir/laboratory/StructureDefinition/Bundle-eu-lab"
    ]
  },
  "identifier": {
    "assigner": {
      "display": "HL7 Europe"
    },
    "system": "urn:oid:2.16.840.1.113883.2.51.999",
    "value": "292a7a58-806e-42c5-ac1f-218ebdbf7b18"
  },
  "entry": [
    {
      "fullUrl": "urn:uuid:5e9bebeb-0a58-4401-9743-a0b3a70a3328",
      "resource": {
        "resourceType": "Composition",
        "id": "5e9bebeb-0a58-4401-9743-a0b3a70a3328",
        "meta": {
          "profile": [
            "http://hl7.eu/fhir/laboratory/StructureDefinition/Composition-eu-lab"
          ]
        },
        "identifier": {
          "assigner": {
            "display": "HL7 Europe"
          },
          "system": "urn:oid:2.16.840.1.113883.2.51.999",
          "value": "a5382453-9ae9-4599-ba19-bc4df0f56841"
        },
        "author": [
          {
            "reference": "urn:uuid:9fc5d3cc-bd48-41bb-a9e9-5a6a84b69751"
          }
        ],
        "category": [
          {
            "coding": [
              {
                "code": "26436-6",
                "system": "http://loinc.org",
                "display": "Laboratory studies (set)"
              }
            ]
          }
        ],
        "type": {
          "coding": [
            {
              "code": "11502-2",
              "system": "http://loinc.org",
              "display": "Laboratory report"
            }
          ],
          "text": "Laboratory Report"
        },
        "section": [
          {
            "code": {
              "coding": [
                {
                  "code": "26436-6",
                  "system": "http://loinc.org",
                  "display": "Laboratory studies (set)"
                }
              ],
              "text": "Laboratory studies"
            },
            "section": [
              {
                "code": {
                  "coding": [
                    {
                      "code": "$18719-5",
                      "system": "http://loinc.org",
                      "display": "Chemistry studies (set)"
                    }
                  ],
                  "text": "Chemistry"
                },
                "entry": [
                  {
                    "reference": "urn:uuid:0f34345a-ac2b-406f-a559-32677c05947b"
                  }
                ],
                "text": {
                  "status": "generated",
                  "div": "<div xmlns=\"http://www.w3.org/1999/xhtml\"><h3>Chemistry</h3><table class=\"hl7__eu__lab__report\"><thead><tr><th>Test</th><th>12-JUL-2023</th><th>Reference&#xA0;Range</th><th>Unit</th></tr></thead><tbody><tr><td>Hemoglobin A1c/Hemoglobin.total in Blood</td><td><strong>6.1 H</strong></td><td>4 - 6</td><td>%</td></tr></tbody></table></div>"
                },
                "title": "Chemistry"
              }
            ],
            "title": "Laboratory Report"
          },
          {
            "text": {
              "status": "generated",
              "div": "<div xmlns=\"http://www.w3.org/1999/xhtml\"><h3>Annotation</h3><table class=\"hl7__eu__lab__report\"><tr><th>Conclusion and Recommendations based on this report and previous findings known to us</th></tr><tr><td>The patient&quot;s HbA1c is mildly elevated at 6.1%, indicating suboptimal long-term glycemic control and suggesting prediabetes or early diabetes. Clinical correlation and further assessment of glucose metabolism are recommended.</td></tr></table></div>"
            },
            "code": {
              "coding": [
                {
                  "system": "http://loinc.org",
                  "code": "48767-8",
                  "display": "Annotation comment"
                }
              ]
            },
            "title": "Annotation comment"
          }
        ],
        "status": "final",
        "subject": {
          "reference": "urn:uuid:81c2cc79-df0b-43c6-b8d9-886800cd2f15",
          "display": "Jele Jurković"
        },
        "date": "2023-07-12T20:07:38Z",
        "title": "Laboratory Report",
        "confidentiality": "N"
      }
    },
    {
      "fullUrl": "urn:uuid:f7c5e5fb-29c5-44bc-ac7f-69300250d138",
      "resource": {
        "resourceType": "DiagnosticReport",
        "id": "f7c5e5fb-29c5-44bc-ac7f-69300250d138",
        "meta": {
          "profile": [
            "http://hl7.eu/fhir/laboratory/StructureDefinition/DiagnosticReport-eu-lab"
          ]
        },
        "identifier": [
          {
            "assigner": {
              "display": "HL7 Europe"
            },
            "system": "urn:oid:2.16.840.1.113883.2.51.999",
            "value": "c178d6ba-4923-4166-9274-a6b41b110ab7"
          }
        ],
        "extension": [
          {
            "url": "http://hl7.org/fhir/5.0/StructureDefinition/extension-DiagnosticReport.composition",
            "valueReference": {
              "reference": "urn:uuid:a5382453-9ae9-4599-ba19-bc4df0f56841"
            }
          }
        ],
        "category": [
          {
            "coding": [
              {
                "code": "26436-6",
                "system": "http://loinc.org",
                "display": "Laboratory studies (set)"
              }
            ]
          }
        ],
        "specimen": [
          {
            "reference": "urn:uuid:5cd5ee5d-9bfe-499d-9b45-c1780ab96059"
          }
        ],
        "result": [
          {
            "reference": "urn:uuid:0f34345a-ac2b-406f-a559-32677c05947b"
          }
        ],
        "status": "registered",
        "code": {
          "coding": [
            {
              "code": "11502-2",
              "system": "http://loinc.org",
              "display": "Laboratory report"
            }
          ]
        },
        "subject": {
          "reference": "urn:uuid:81c2cc79-df0b-43c6-b8d9-886800cd2f15",
          "display": "Jele Jurković"
        }
      }
    },
    {
      "fullUrl": "urn:uuid:81c2cc79-df0b-43c6-b8d9-886800cd2f15",
      "resource": {
        "resourceType": "Patient",
        "id": "81c2cc79-df0b-43c6-b8d9-886800cd2f15",
        "meta": {
          "security": [
            {
              "system": "http://terminology.hl7.org/CodeSystem/v3-ActReason",
              "code": "HTEST"
            },
            {
              "system": "http://terminology.hl7.org/CodeSystem/v3-ActReason",
              "code": "TRAIN"
            }
          ],
          "tag": [
            {
              "system": "https://synderai.net/fhir/CodeSystem/tags",
              "code": "synthetic",
              "display": "SYNDERAI Synthetic data"
            }
          ],
          "profile": [
            "http://hl7.eu/fhir/base/StructureDefinition/patient-eu-core"
          ]
        },
        "identifier": [
          {
            "type": {
              "coding": [
                {
                  "code": "PT",
                  "system": "http://terminology.hl7.org/CodeSystem/v2-0203"
                }
              ]
            },
            "system": "http://ec.europa.eu/identifier/eci",
            "value": "3583-291434-1"
          },
          {
            "type": {
              "coding": [
                {
                  "code": "MR",
                  "system": "http://terminology.hl7.org/CodeSystem/v2-0203"
                }
              ]
            },
            "system": "http://local.setting.eu/identifier",
            "value": "9d4fea2d-eece-b99f-3e16-832f0f5813f5"
          }
        ],
        "name": [
          {
            "family": "Jurković"
          },
          {
            "given": [
              "Jele"
            ]
          },
          {
            "text": "Jele Jurković"
          }
        ],
        "address": [
          {
            "line": [
              "Klesarski put 7b/8"
            ],
            "use": "home",
            "type": "physical",
            "postalCode": "34310",
            "city": "Pleternica",
            "country": "Croatia"
          }
        ],
        "telecom": [
          {
            "system": "phone",
            "value": "021 083 354"
          }
        ],
        "extension": [
          {
            "url": "http://hl7.org/fhir/StructureDefinition/patient-nationality",
            "valueCodeableConcept": {
              "coding": [
                {
                  "code": "HR",
                  "system": "http://hl7.org/fhir/ValueSet/country"
                }
              ]
            }
          }
        ],
        "text": {
          "status": "generated",
          "div": "<div xmlns=\"http://www.w3.org/1999/xhtml\"><table class=\"hl7__ips\"><tr><td>Jele Jurković</td><td>female</td><td>07-Jan-1953</td></tr></table></div>"
        },
        "gender": "female",
        "birthDate": "1953-01-07"
      }
    },
    {
      "fullUrl": "urn:uuid:6bf3d680-d82e-4b80-ac12-efeea7830cb7",
      "resource": {
        "resourceType": "ServiceRequest",
        "id": "6bf3d680-d82e-4b80-ac12-efeea7830cb7",
        "meta": {
          "profile": [
            "http://hl7.eu/fhir/laboratory/StructureDefinition/ServiceRequest-eu-lab"
          ]
        },
        "identifier": [
          {
            "system": "http://example.org",
            "value": "140d8e9a-e972-4a7d-81ed-03232ad6f9db"
          }
        ],
        "specimen": [
          {
            "reference": "urn:uuid:5cd5ee5d-9bfe-499d-9b45-c1780ab96059"
          }
        ],
        "reasonCode": [
          {
            "coding": [
              {
                "code": "64859006",
                "system": "http://snomed.info/sct",
                "display": "Osteoporosis"
              }
            ]
          },
          {
            "coding": [
              {
                "code": "6525002",
                "system": "http://snomed.info/sct",
                "display": "Dependent drug abuse"
              }
            ]
          },
          {
            "coding": [
              {
                "code": "15777000",
                "system": "http://snomed.info/sct",
                "display": "Prediabetes"
              }
            ]
          }
        ],
        "status": "active",
        "intent": "order",
        "code": {
          "coding": [
            {
              "code": "108252007",
              "system": "http://snomed.info/sct",
              "display": "Laboratory procedure"
            }
          ]
        },
        "subject": {
          "reference": "urn:uuid:81c2cc79-df0b-43c6-b8d9-886800cd2f15",
          "display": "Jele Jurković"
        },
        "requester": {
          "reference": "urn:uuid:d2f25706-60d9-49f3-8732-26da22101ad7"
        }
      }
    },
    {
      "fullUrl": "urn:uuid:d2f25706-60d9-49f3-8732-26da22101ad7",
      "resource": {
        "resourceType": "PractitionerRole",
        "id": "d2f25706-60d9-49f3-8732-26da22101ad7",
        "meta": {
          "profile": [
            "http://hl7.eu/fhir/base/StructureDefinition/practitionerRole-eu"
          ]
        },
        "text": {
          "status": "generated",
          "div": "<div xmlns=\"http://www.w3.org/1999/xhtml\">Provider Role Id: d2f25706-60d9-49f3-8732-26da22101ad7</div>"
        },
        "organization": {
          "reference": "urn:uuid:03d2b566-d31a-4755-98b6-63a58e42c44b"
        }
      }
    },
    {
      "fullUrl": "urn:uuid:03d2b566-d31a-4755-98b6-63a58e42c44b",
      "resource": {
        "resourceType": "Organization",
        "id": "03d2b566-d31a-4755-98b6-63a58e42c44b",
        "meta": {
          "profile": [
            "http://hl7.eu/fhir/base/StructureDefinition/organization-eu"
          ]
        },
        "identifier": [
          {
            "assigner": {
              "display": "HL7 Europe"
            },
            "system": "urn:oid:2.16.840.1.113883.2.51.999",
            "value": "fc88c58e-c91a-4a66-a076-d3126333b585"
          }
        ],
        "address": [
          {
            "line": [
              "Osječka ulica 107"
            ],
            "city": "Požega",
            "postalCode": "34000",
            "country": "Croatia"
          }
        ],
        "text": {
          "status": "generated",
          "div": "<div xmlns=\"http://www.w3.org/1999/xhtml\">Provider Organization: Opća županijska bolnica Požega</div>"
        },
        "name": "Opća županijska bolnica Požega"
      }
    },
    {
      "fullUrl": "urn:uuid:5cd5ee5d-9bfe-499d-9b45-c1780ab96059",
      "resource": {
        "resourceType": "Specimen",
        "id": "5cd5ee5d-9bfe-499d-9b45-c1780ab96059",
        "meta": {
          "profile": [
            "http://hl7.eu/fhir/laboratory/StructureDefinition/Specimen-eu-lab"
          ]
        },
        "collection": {
          "collectedDateTime": "2023-07-12"
        },
        "text": {
          "status": "generated",
          "div": "<div xmlns=\"http://www.w3.org/1999/xhtml\"><table class=\"hl7__eu__lab__report\"><tr><th>Specimen</th><th>Collection Date</th></tr><tr><td>Whole blood specimen (specimen)</td><td><span class=\"nb\">12-Jul-2023</span></td></tr></table></div>"
        },
        "type": {
          "coding": [
            {
              "code": "258580003",
              "system": "http://snomed.info/sct",
              "display": "Whole blood specimen (specimen)"
            }
          ]
        }
      }
    },
    {
      "fullUrl": "urn:uuid:0f34345a-ac2b-406f-a559-32677c05947b",
      "resource": {
        "resourceType": "Observation",
        "id": "0f34345a-ac2b-406f-a559-32677c05947b",
        "meta": {
          "profile": [
            "http://hl7.eu/fhir/laboratory/StructureDefinition/Observation-resultslab-eu-lab"
          ]
        },
        "performer": [
          {
            "display": "The Central European Lab"
          }
        ],
        "category": [
          {
            "coding": [
              {
                "system": "http://terminology.hl7.org/CodeSystem/observation-category",
                "code": "laboratory"
              }
            ]
          }
        ],
        "code": {
          "coding": [
            {
              "code": "4548-4",
              "system": "http://loinc.org",
              "display": "Hemoglobin A1c/Hemoglobin.total in Blood"
            }
          ],
          "text": "Hemoglobin A1c/Hemoglobin.total in Blood"
        },
        "valueQuantity": {
          "system": "http://unitsofmeasure.org",
          "value": 6.1,
          "unit": "%",
          "code": "%"
        },
        "referenceRange": [
          {
            "low": {
              "value": 4,
              "code": "%",
              "system": "http://unitsofmeasure.org"
            }
          },
          {
            "high": {
              "value": 6,
              "code": "%",
              "system": "http://unitsofmeasure.org"
            }
          }
        ],
        "interpretation": [
          {
            "coding": [
              {
                "code": "H",
                "system": "http://terminology.hl7.org/CodeSystem/v3-ObservationInterpretation",
                "display": "High"
              }
            ]
          }
        ],
        "text": {
          "status": "generated",
          "div": "<div xmlns=\"http://www.w3.org/1999/xhtml\"><table class=\"hl7__eu__lab__report\"><tr><th>Test</th><th>12-Jul-2023</th><th>Reference&#xA0;Range</th><th>Unit</th></tr><tr><td>Hemoglobin A1c/Hemoglobin.total in Blood</td><td>6.1</td><td>4 - 6</td><td>H</td><td>%</td></tr></table></div>"
        },
        "status": "final",
        "subject": {
          "reference": "urn:uuid:81c2cc79-df0b-43c6-b8d9-886800cd2f15",
          "display": "Jele Jurković"
        },
        "effectiveDateTime": "2023-07-12T18:07:38Z",
        "specimen": {
          "reference": "urn:uuid:5cd5ee5d-9bfe-499d-9b45-c1780ab96059"
        }
      }
    },
    {
      "fullUrl": "urn:uuid:64f4bc4c-0386-4fbc-addb-e0582bf8ad59",
      "resource": {
        "resourceType": "Device",
        "id": "64f4bc4c-0386-4fbc-addb-e0582bf8ad59",
        "deviceName": [
          {
            "name": "SYNDERAI Synthetic Generator",
            "type": "manufacturer-name"
          }
        ],
        "version": [
          {
            "value": "5.0"
          }
        ],
        "text": {
          "status": "generated",
          "div": "<div xmlns=\"http://www.w3.org/1999/xhtml\">SYNDERAI Synthetic Generator v5.0</div>"
        },
        "status": "active\"",
        "distinctIdentifier": "synderai-generator-50",
        "manufacturer": "SYNDERAI Project"
      }
    },
    {
      "fullUrl": "urn:uuid:8871a2d4-19da-47b2-8cc6-a573b5f010de",
      "resource": {
        "resourceType": "Provenance",
        "id": "8871a2d4-19da-47b2-8cc6-a573b5f010de",
        "target": [
          {
            "reference": "Patient/81c2cc79-df0b-43c6-b8d9-886800cd2f15"
          },
          {
            "reference": "Bundle/ee0db846-e35b-49d4-bd79-76d427c900b6"
          },
          {
            "reference": "Composition/5e9bebeb-0a58-4401-9743-a0b3a70a3328"
          },
          {
            "reference": "PractitionerRole/9fc5d3cc-bd48-41bb-a9e9-5a6a84b69751"
          },
          {
            "reference": "Practitioner/6f52bfb3-92f9-4848-a208-92dbb2f8791b"
          },
          {
            "reference": "PractitionerRole/d2f25706-60d9-49f3-8732-26da22101ad7"
          },
          {
            "reference": "Organization/03d2b566-d31a-4755-98b6-63a58e42c44b"
          }
        ],
        "activity": {
          "text": "Synthetic Example Data Generation"
        },
        "policy": [
          "https://synderai.net/synderai-synthetic-data-policy"
        ],
        "agent": [
          {
            "type": {
              "text": "author"
            },
            "who": {
              "reference": "Device/64f4bc4c-0386-4fbc-addb-e0582bf8ad59"
            }
          }
        ],
        "reason": [
          {
            "text": "Interoperability Testing and Training (non-clinical use)"
          }
        ],
        "text": {
          "status": "generated",
          "div": "<div xmlns=\"http://www.w3.org/1999/xhtml\">Provenance for SYNDERAI Synthetic Example Data Resource</div>"
        },
        "recorded": "2023-07-12T20:07:38Z"
      }
    },
    {
      "fullUrl": "urn:uuid:9fc5d3cc-bd48-41bb-a9e9-5a6a84b69751",
      "resource": {
        "resourceType": "PractitionerRole",
        "id": "9fc5d3cc-bd48-41bb-a9e9-5a6a84b69751",
        "meta": {
          "profile": [
            "http://hl7.eu/fhir/base/StructureDefinition/practitionerRole-eu"
          ]
        },
        "text": {
          "status": "generated",
          "div": "<div xmlns=\"http://www.w3.org/1999/xhtml\">Laboratory Role Id: 9fc5d3cc-bd48-41bb-a9e9-5a6a84b69751</div>"
        },
        "practitioner": {
          "reference": "urn:uuid:6f52bfb3-92f9-4848-a208-92dbb2f8791b"
        }
      }
    },
    {
      "fullUrl": "urn:uuid:6f52bfb3-92f9-4848-a208-92dbb2f8791b",
      "resource": {
        "resourceType": "Practitioner",
        "id": "6f52bfb3-92f9-4848-a208-92dbb2f8791b",
        "meta": {
          "profile": [
            "http://hl7.eu/fhir/base/StructureDefinition/practitioner-eu"
          ]
        },
        "identifier": [
          {
            "assigner": {
              "display": "HL7 Europe"
            },
            "system": "urn:oid:2.16.840.1.113883.2.51.999",
            "value": "e4b8b109-1e31-46da-9a9b-87b53cd5928b"
          }
        ],
        "name": [
          {
            "prefix": [
              "dr"
            ],
            "given": [
              "Ex"
            ],
            "family": "Ample"
          }
        ],
        "address": [
          {
            "line": [
              "Laboratoire Central Européenne",
              "Boulevard du Jardin Botanique 32"
            ],
            "postalCode": "1000",
            "city": "Brussels",
            "country": "Belgium"
          }
        ],
        "text": {
          "status": "generated",
          "div": "<div xmlns=\"http://www.w3.org/1999/xhtml\">Laboratory: Laboratoire Central Européenne, 1000 Brussels, Belgium</div>"
        }
      }
    }
  ],
  "type": "document",
  "timestamp": "2023-07-12T20:07:38Z"
}
