{
  "resourceType": "Bundle",
  "id": "babea5d7-5db9-407c-88f0-6d1695b166a2",
  "meta": {
    "profile": [
      "http://hl7.eu/fhir/laboratory/StructureDefinition/Bundle-eu-lab"
    ]
  },
  "identifier": {
    "assigner": {
      "display": "HL7 Europe"
    },
    "system": "urn:oid:2.16.840.1.113883.2.51.999",
    "value": "c18dfa65-6bed-444e-9f16-2df18ea6d538"
  },
  "entry": [
    {
      "fullUrl": "urn:uuid:2296cc34-a6e6-4e49-b5d8-a0d62d61c6ed",
      "resource": {
        "resourceType": "Composition",
        "id": "2296cc34-a6e6-4e49-b5d8-a0d62d61c6ed",
        "meta": {
          "profile": [
            "http://hl7.eu/fhir/laboratory/StructureDefinition/Composition-eu-lab"
          ]
        },
        "identifier": {
          "assigner": {
            "display": "HL7 Europe"
          },
          "system": "urn:oid:2.16.840.1.113883.2.51.999",
          "value": "46788177-c884-4e0e-8bc7-1f1229e350bb"
        },
        "author": [
          {
            "reference": "urn:uuid:bed1bc0d-6025-43f2-8d8f-1d7917bc601a"
          }
        ],
        "category": [
          {
            "coding": [
              {
                "code": "26436-6",
                "system": "http://loinc.org",
                "display": "Laboratory studies (set)"
              }
            ]
          }
        ],
        "type": {
          "coding": [
            {
              "code": "11502-2",
              "system": "http://loinc.org",
              "display": "Laboratory report"
            }
          ],
          "text": "Laboratory Report"
        },
        "section": [
          {
            "code": {
              "coding": [
                {
                  "code": "26436-6",
                  "system": "http://loinc.org",
                  "display": "Laboratory studies (set)"
                }
              ],
              "text": "Laboratory studies"
            },
            "section": [
              {
                "code": {
                  "coding": [
                    {
                      "code": "$18719-5",
                      "system": "http://loinc.org",
                      "display": "Chemistry studies (set)"
                    }
                  ],
                  "text": "Chemistry"
                },
                "entry": [
                  {
                    "reference": "urn:uuid:efbeba61-ce22-4a7d-ad68-e47d8246dbf7"
                  },
                  {
                    "reference": "urn:uuid:1670e98e-9e10-43f9-853b-60c2f0cb404c"
                  },
                  {
                    "reference": "urn:uuid:b76f2c9b-9c36-4fd3-8355-b1cda6e80999"
                  },
                  {
                    "reference": "urn:uuid:c1dc7ccb-1f0d-43b3-aaf3-99a0660a0936"
                  },
                  {
                    "reference": "urn:uuid:dff152d8-4bea-4657-980d-9ca44e53b6d6"
                  },
                  {
                    "reference": "urn:uuid:fa2cd843-5155-4da8-8b9d-41b1c2e7c86d"
                  },
                  {
                    "reference": "urn:uuid:5e0160ba-c8ba-4581-94a7-379061c8b2c3"
                  },
                  {
                    "reference": "urn:uuid:fac3dcb7-9e61-429f-8a0e-2b3e2a53ff85"
                  },
                  {
                    "reference": "urn:uuid:4e8bc1e7-4111-4deb-bc98-893119a99f71"
                  },
                  {
                    "reference": "urn:uuid:0a7f0b35-4fdc-4312-991d-489d88690c2e"
                  },
                  {
                    "reference": "urn:uuid:a25db5bb-992b-4f19-8a8d-df6ebc13c881"
                  },
                  {
                    "reference": "urn:uuid:75914781-9f92-44b0-a07d-29b4dffc8c8e"
                  },
                  {
                    "reference": "urn:uuid:7b9ec121-b585-49c1-a502-33737f37fe0c"
                  },
                  {
                    "reference": "urn:uuid:cc592a31-504b-409e-880d-163640ee0e58"
                  },
                  {
                    "reference": "urn:uuid:de62030d-76c6-4598-bbca-3a3cd35cb6d4"
                  },
                  {
                    "reference": "urn:uuid:6ca159d4-aebc-44a8-8f1d-f628912bc78b"
                  },
                  {
                    "reference": "urn:uuid:721031f9-5d1c-467a-b015-484ce361f493"
                  },
                  {
                    "reference": "urn:uuid:f5df322d-f2d9-44d1-85fa-20cc075d45a9"
                  }
                ],
                "text": {
                  "status": "generated",
                  "div": "<div xmlns=\"http://www.w3.org/1999/xhtml\"><h3>Chemistry</h3><table class=\"hl7__eu__lab__report\"><thead><tr><th>Test</th><th>23-NOV-2023</th><th>Reference&#xA0;Range</th><th>Unit</th></tr></thead><tbody><tr><td>Glucose [Mass/volume] in Serum or Plasma</td><td>95.2</td><td>70 - 140</td><td>mg/dL</td></tr><tr><td>Urea nitrogen [Mass/volume] in Serum or Plasma</td><td>15.5</td><td>7 - 25</td><td>mg/dL</td></tr><tr><td>Creatinine [Mass/volume] in Serum or Plasma</td><td><strong>2.0 H</strong></td><td>0.9 - 1.3</td><td>mg/dL</td></tr><tr><td>Calcium [Mass/volume] in Serum or Plasma</td><td>8.6</td><td>8.5 - 10.5</td><td>mg/dL</td></tr><tr><td>Sodium [Moles/volume] in Serum or Plasma</td><td>143.3</td><td>135 - 145</td><td>mmol/L</td></tr><tr><td>Potassium [Moles/volume] in Serum or Plasma</td><td>4.3</td><td>3.5 - 5.3</td><td>mmol/L</td></tr><tr><td>Chloride [Moles/volume] in Serum or Plasma</td><td><strong>108.3 H</strong></td><td>98 - 107</td><td>mmol/L</td></tr><tr><td>Carbon dioxide, total [Moles/volume] in Serum or Plasma</td><td>23.6</td><td>22 - 29</td><td>mmol/L</td></tr><tr><td>Ketones [Presence] in Urine by Test strip</td><td>Urine ketone test = +</td><td></td><td></td></tr><tr><td>Hemoglobin A1c/Hemoglobin.total in Blood</td><td><strong>3.4 L</strong></td><td>4.5 - 6.4</td><td>%</td></tr><tr><td>Glucose [Mass/volume] in Blood</td><td>95.2</td><td>70 - 140</td><td>mg/dL</td></tr><tr><td>Urea nitrogen [Mass/volume] in Blood</td><td>15.5</td><td>7 - 25</td><td>mg/dL</td></tr><tr><td>Creatinine [Mass/volume] in Blood</td><td><strong>1.9 H</strong></td><td>0.9 - 1.3</td><td>mg/dL</td></tr><tr><td>Calcium [Mass/volume] in Blood</td><td>8.6</td><td>8.6 - 10.2</td><td>mg/dL</td></tr><tr><td>Sodium [Moles/volume] in Blood</td><td>143.3</td><td>135 - 145</td><td>mmol/L</td></tr><tr><td>Potassium [Moles/volume] in Blood</td><td>4.3</td><td>3.5 - 5.1</td><td>mmol/L</td></tr><tr><td>Chloride [Moles/volume] in Blood</td><td><strong>108.3 H</strong></td><td>98 - 108</td><td>mmol/L</td></tr><tr><td>Carbon dioxide, total [Moles/volume] in Blood</td><td>23.6</td><td>22 - 32</td><td>mmol/L</td></tr></tbody></table></div>"
                },
                "title": "Chemistry"
              },
              {
                "code": {
                  "coding": [
                    {
                      "code": "$18729-4",
                      "system": "http://loinc.org",
                      "display": "Urinalysis studies (set)"
                    }
                  ],
                  "text": "Urinalysis"
                },
                "entry": [
                  {
                    "reference": "urn:uuid:694eb0db-41a7-4b9c-9ead-9691587c563c"
                  },
                  {
                    "reference": "urn:uuid:a44a132c-5a69-4bec-8727-01bcdf69422e"
                  },
                  {
                    "reference": "urn:uuid:dd585d39-1422-4e70-a2a0-a206ca161cb1"
                  },
                  {
                    "reference": "urn:uuid:e86f1f97-e3f5-4838-a473-b53ec9cc161f"
                  },
                  {
                    "reference": "urn:uuid:9994f70f-bdc2-4440-9de8-9a30ef761a92"
                  },
                  {
                    "reference": "urn:uuid:81885503-18c7-4fe0-a204-8a41965a97e6"
                  },
                  {
                    "reference": "urn:uuid:60214a56-3fa4-4613-9711-85d78db3f3e9"
                  },
                  {
                    "reference": "urn:uuid:d3034a21-df4f-4070-af6c-f64fa6a81cf7"
                  },
                  {
                    "reference": "urn:uuid:06fc1943-8878-466d-9d00-1038ecf386d2"
                  },
                  {
                    "reference": "urn:uuid:ef0fb06f-13c5-46e8-be62-88db19165389"
                  },
                  {
                    "reference": "urn:uuid:af475fcb-8457-4720-924d-3e3087f004ee"
                  },
                  {
                    "reference": "urn:uuid:f34ec90e-cf30-43d3-8643-cfd6c6389847"
                  }
                ],
                "text": {
                  "status": "generated",
                  "div": "<div xmlns=\"http://www.w3.org/1999/xhtml\"><h3>Urinalysis</h3><table class=\"hl7__eu__lab__report\"><thead><tr><th>Test</th><th>23-NOV-2023</th><th>Reference&#xA0;Range</th><th>Unit</th></tr></thead><tbody><tr><td>Glucose [Mass/volume] in Urine by Test strip</td><td><strong>2.5 H</strong></td><td>0.8 - 0</td><td>mg/dL</td></tr><tr><td>Glucose [Presence] in Urine by Test strip</td><td>++</td><td></td><td></td></tr><tr><td>Bilirubin.total [Mass/volume] in Urine by Test strip</td><td>1.1</td><td>0.2 - 1.5</td><td>mg/dL</td></tr><tr><td>Bilirubin.total [Presence] in Urine by Test strip</td><td>Finding of bilirubin in urine</td><td></td><td></td></tr><tr><td>Ketones [Mass/volume] in Urine by Test strip</td><td><strong>11.6 H</strong></td><td>0 - 4</td><td>mg/dL</td></tr><tr><td>Specific gravity of Urine by Test strip</td><td><strong>1.0 L</strong></td><td>1.01 - 1.03</td><td>{nominal}</td></tr><tr><td>pH of Urine by Test strip</td><td>6.3</td><td>4.5 - 7.5</td><td>pH</td></tr><tr><td>Protein [Mass/volume] in Urine by Test strip</td><td><strong>337.0 H</strong></td><td>0 - 150</td><td>mg/dL</td></tr><tr><td>Protein [Presence] in Urine by Test strip</td><td>Urine protein test = ++</td><td></td><td></td></tr><tr><td>Nitrite [Presence] in Urine by Test strip</td><td>Urine nitrite negative</td><td></td><td></td></tr><tr><td>Hemoglobin [Presence] in Urine by Test strip</td><td>Urine blood test = negative</td><td></td><td></td></tr><tr><td>Leukocyte esterase [Presence] in Urine by Test strip</td><td>Urine leukocyte test negative</td><td></td><td></td></tr></tbody></table></div>"
                },
                "title": "Urinalysis"
              },
              {
                "code": {
                  "coding": [
                    {
                      "code": "$LP7846-1",
                      "system": "http://loinc.org",
                      "display": "Specimen information"
                    }
                  ],
                  "text": "Specimen information"
                },
                "entry": [
                  {
                    "reference": "urn:uuid:f3ea5667-9d68-42d8-9ea6-14a6cd96a674"
                  },
                  {
                    "reference": "urn:uuid:5f8bfa7f-4bfa-4e8f-ae2a-d64efb2d9077"
                  },
                  {
                    "reference": "urn:uuid:d3a748d2-2233-4bde-a483-11241ee05df4"
                  },
                  {
                    "reference": "urn:uuid:808fecbd-ddbc-46e6-8223-4b5a6e8ea8af"
                  }
                ],
                "text": {
                  "status": "generated",
                  "div": "<div xmlns=\"http://www.w3.org/1999/xhtml\"><h3>Specimen information</h3><table class=\"hl7__eu__lab__report\"><thead><tr><th>Test</th><th>23-NOV-2023</th><th>Specimen</th><th></th></tr></thead><tbody><tr><td>Appearance of Urine</td><td>Cloudy urine</td><td>Urine</td><td></td></tr><tr><td>Odor of Urine</td><td>Urine smell ammoniacal</td><td>Urine</td><td></td></tr><tr><td>Clarity of Urine</td><td>Translucent</td><td>Urine</td><td></td></tr><tr><td>Color of Urine</td><td>Brown color</td><td>Urine</td><td></td></tr></tbody></table></div>"
                },
                "title": "Specimen information"
              }
            ],
            "title": "Laboratory Report"
          },
          {
            "text": {
              "status": "generated",
              "div": "<div xmlns=\"http://www.w3.org/1999/xhtml\"><h3>Annotation</h3><table class=\"hl7__eu__lab__report\"><tr><th>Conclusion and Recommendations based on this report and previous findings known to us</th></tr><tr><td>The patient shows elevated creatinine, suggesting impaired renal function, and mild hyperchloremia. Urinalysis reveals proteinuria, glycosuria, ketonuria, low specific gravity, and abnormal urine appearance (cloudy, brown, ammoniacal), but no evidence of infection. HbA1c is low despite glycosuria, which may indicate renal glycosuria or possible analytical error. Findings are consistent with renal dysfunction, likely chronic, with possible tubular involvement. Clinical correlation and further nephrological evaluation are recommended.</td></tr></table></div>"
            },
            "code": {
              "coding": [
                {
                  "system": "http://loinc.org",
                  "code": "48767-8",
                  "display": "Annotation comment"
                }
              ]
            },
            "title": "Annotation comment"
          }
        ],
        "status": "final",
        "subject": {
          "reference": "urn:uuid:14d8a655-ae76-4a89-9430-d1da8acb7d84",
          "display": "Pelayo Casal"
        },
        "date": "2023-11-23T06:38:59Z",
        "title": "Laboratory Report",
        "confidentiality": "N"
      }
    },
    {
      "fullUrl": "urn:uuid:89a91fd2-b51e-4ebd-83c1-e790cb20add6",
      "resource": {
        "resourceType": "DiagnosticReport",
        "id": "89a91fd2-b51e-4ebd-83c1-e790cb20add6",
        "meta": {
          "profile": [
            "http://hl7.eu/fhir/laboratory/StructureDefinition/DiagnosticReport-eu-lab"
          ]
        },
        "identifier": [
          {
            "assigner": {
              "display": "HL7 Europe"
            },
            "system": "urn:oid:2.16.840.1.113883.2.51.999",
            "value": "2f212c0c-6ad8-4dac-b17a-ce7c687a8864"
          }
        ],
        "extension": [
          {
            "url": "http://hl7.org/fhir/5.0/StructureDefinition/extension-DiagnosticReport.composition",
            "valueReference": {
              "reference": "urn:uuid:46788177-c884-4e0e-8bc7-1f1229e350bb"
            }
          }
        ],
        "category": [
          {
            "coding": [
              {
                "code": "26436-6",
                "system": "http://loinc.org",
                "display": "Laboratory studies (set)"
              }
            ]
          }
        ],
        "specimen": [
          {
            "reference": "urn:uuid:6ac97013-b7c1-4e6a-ab95-478e6d6ec0f7"
          },
          {
            "reference": "urn:uuid:9c970377-3a77-4b29-a2bb-ea17cb1acdd6"
          },
          {
            "reference": "urn:uuid:61caa3e5-4494-4e88-9383-3a0ba01e3b0a"
          }
        ],
        "result": [
          {
            "reference": "urn:uuid:efbeba61-ce22-4a7d-ad68-e47d8246dbf7"
          },
          {
            "reference": "urn:uuid:1670e98e-9e10-43f9-853b-60c2f0cb404c"
          },
          {
            "reference": "urn:uuid:b76f2c9b-9c36-4fd3-8355-b1cda6e80999"
          },
          {
            "reference": "urn:uuid:c1dc7ccb-1f0d-43b3-aaf3-99a0660a0936"
          },
          {
            "reference": "urn:uuid:dff152d8-4bea-4657-980d-9ca44e53b6d6"
          },
          {
            "reference": "urn:uuid:fa2cd843-5155-4da8-8b9d-41b1c2e7c86d"
          },
          {
            "reference": "urn:uuid:5e0160ba-c8ba-4581-94a7-379061c8b2c3"
          },
          {
            "reference": "urn:uuid:fac3dcb7-9e61-429f-8a0e-2b3e2a53ff85"
          },
          {
            "reference": "urn:uuid:f3ea5667-9d68-42d8-9ea6-14a6cd96a674"
          },
          {
            "reference": "urn:uuid:5f8bfa7f-4bfa-4e8f-ae2a-d64efb2d9077"
          },
          {
            "reference": "urn:uuid:d3a748d2-2233-4bde-a483-11241ee05df4"
          },
          {
            "reference": "urn:uuid:808fecbd-ddbc-46e6-8223-4b5a6e8ea8af"
          },
          {
            "reference": "urn:uuid:694eb0db-41a7-4b9c-9ead-9691587c563c"
          },
          {
            "reference": "urn:uuid:a44a132c-5a69-4bec-8727-01bcdf69422e"
          },
          {
            "reference": "urn:uuid:dd585d39-1422-4e70-a2a0-a206ca161cb1"
          },
          {
            "reference": "urn:uuid:e86f1f97-e3f5-4838-a473-b53ec9cc161f"
          },
          {
            "reference": "urn:uuid:9994f70f-bdc2-4440-9de8-9a30ef761a92"
          },
          {
            "reference": "urn:uuid:4e8bc1e7-4111-4deb-bc98-893119a99f71"
          },
          {
            "reference": "urn:uuid:81885503-18c7-4fe0-a204-8a41965a97e6"
          },
          {
            "reference": "urn:uuid:60214a56-3fa4-4613-9711-85d78db3f3e9"
          },
          {
            "reference": "urn:uuid:d3034a21-df4f-4070-af6c-f64fa6a81cf7"
          },
          {
            "reference": "urn:uuid:06fc1943-8878-466d-9d00-1038ecf386d2"
          },
          {
            "reference": "urn:uuid:ef0fb06f-13c5-46e8-be62-88db19165389"
          },
          {
            "reference": "urn:uuid:af475fcb-8457-4720-924d-3e3087f004ee"
          },
          {
            "reference": "urn:uuid:f34ec90e-cf30-43d3-8643-cfd6c6389847"
          },
          {
            "reference": "urn:uuid:0a7f0b35-4fdc-4312-991d-489d88690c2e"
          },
          {
            "reference": "urn:uuid:a25db5bb-992b-4f19-8a8d-df6ebc13c881"
          },
          {
            "reference": "urn:uuid:75914781-9f92-44b0-a07d-29b4dffc8c8e"
          },
          {
            "reference": "urn:uuid:7b9ec121-b585-49c1-a502-33737f37fe0c"
          },
          {
            "reference": "urn:uuid:cc592a31-504b-409e-880d-163640ee0e58"
          },
          {
            "reference": "urn:uuid:de62030d-76c6-4598-bbca-3a3cd35cb6d4"
          },
          {
            "reference": "urn:uuid:6ca159d4-aebc-44a8-8f1d-f628912bc78b"
          },
          {
            "reference": "urn:uuid:721031f9-5d1c-467a-b015-484ce361f493"
          },
          {
            "reference": "urn:uuid:f5df322d-f2d9-44d1-85fa-20cc075d45a9"
          }
        ],
        "status": "registered",
        "code": {
          "coding": [
            {
              "code": "11502-2",
              "system": "http://loinc.org",
              "display": "Laboratory report"
            }
          ]
        },
        "subject": {
          "reference": "urn:uuid:14d8a655-ae76-4a89-9430-d1da8acb7d84",
          "display": "Pelayo Casal"
        }
      }
    },
    {
      "fullUrl": "urn:uuid:14d8a655-ae76-4a89-9430-d1da8acb7d84",
      "resource": {
        "resourceType": "Patient",
        "id": "14d8a655-ae76-4a89-9430-d1da8acb7d84",
        "meta": {
          "security": [
            {
              "system": "http://terminology.hl7.org/CodeSystem/v3-ActReason",
              "code": "HTEST"
            },
            {
              "system": "http://terminology.hl7.org/CodeSystem/v3-ActReason",
              "code": "TRAIN"
            }
          ],
          "tag": [
            {
              "system": "https://synderai.net/fhir/CodeSystem/tags",
              "code": "synthetic",
              "display": "SYNDERAI Synthetic data"
            }
          ],
          "profile": [
            "http://hl7.eu/fhir/base/StructureDefinition/patient-eu-core"
          ]
        },
        "identifier": [
          {
            "type": {
              "coding": [
                {
                  "code": "PT",
                  "system": "http://terminology.hl7.org/CodeSystem/v2-0203"
                }
              ]
            },
            "system": "http://ec.europa.eu/identifier/eci",
            "value": "7707-510028-7"
          },
          {
            "type": {
              "coding": [
                {
                  "code": "MR",
                  "system": "http://terminology.hl7.org/CodeSystem/v2-0203"
                }
              ]
            },
            "system": "http://local.setting.eu/identifier",
            "value": "d88e82c6-df33-82d2-8538-f8b57da06491"
          }
        ],
        "name": [
          {
            "family": "Casal"
          },
          {
            "given": [
              "Pelayo"
            ]
          },
          {
            "text": "Pelayo Casal"
          }
        ],
        "address": [
          {
            "line": [
              "Callejón de Ignacio Pedrosa 67 Apt. 68 "
            ],
            "use": "home",
            "type": "physical",
            "postalCode": "35001",
            "city": "Las Palmas",
            "country": "Spain"
          }
        ],
        "telecom": [
          {
            "system": "phone",
            "value": "+34 875724898"
          }
        ],
        "extension": [
          {
            "url": "http://hl7.org/fhir/StructureDefinition/patient-nationality",
            "valueCodeableConcept": {
              "coding": [
                {
                  "code": "ES",
                  "system": "http://hl7.org/fhir/ValueSet/country"
                }
              ]
            }
          }
        ],
        "text": {
          "status": "generated",
          "div": "<div xmlns=\"http://www.w3.org/1999/xhtml\"><table class=\"hl7__ips\"><tr><td>Pelayo Casal</td><td>male</td><td>19-Apr-1940</td></tr></table></div>"
        },
        "gender": "male",
        "birthDate": "1940-04-19"
      }
    },
    {
      "fullUrl": "urn:uuid:ce3920f2-91af-4776-b49d-684a6ce07d62",
      "resource": {
        "resourceType": "ServiceRequest",
        "id": "ce3920f2-91af-4776-b49d-684a6ce07d62",
        "meta": {
          "profile": [
            "http://hl7.eu/fhir/laboratory/StructureDefinition/ServiceRequest-eu-lab"
          ]
        },
        "identifier": [
          {
            "system": "http://example.org",
            "value": "2b962262-a99e-4d43-a9a5-07a57f172fe2"
          }
        ],
        "specimen": [
          {
            "reference": "urn:uuid:6ac97013-b7c1-4e6a-ab95-478e6d6ec0f7"
          },
          {
            "reference": "urn:uuid:9c970377-3a77-4b29-a2bb-ea17cb1acdd6"
          },
          {
            "reference": "urn:uuid:61caa3e5-4494-4e88-9383-3a0ba01e3b0a"
          }
        ],
        "reasonCode": [
          {
            "coding": [
              {
                "code": "431856006",
                "system": "http://snomed.info/sct",
                "display": "Chronic kidney disease stage 2"
              }
            ]
          },
          {
            "coding": [
              {
                "code": "90781000119102",
                "system": "http://snomed.info/sct",
                "display": "Microalbuminuria due to type 2 diabetes mellitus"
              }
            ]
          },
          {
            "coding": [
              {
                "code": "127013003",
                "system": "http://snomed.info/sct",
                "display": "Disorder of kidney due to diabetes mellitus"
              }
            ]
          },
          {
            "coding": [
              {
                "code": "431855005",
                "system": "http://snomed.info/sct",
                "display": "Chronic kidney disease stage 1"
              }
            ]
          },
          {
            "coding": [
              {
                "code": "64859006",
                "system": "http://snomed.info/sct",
                "display": "Osteoporosis"
              }
            ]
          },
          {
            "coding": [
              {
                "code": "414545008",
                "system": "http://snomed.info/sct",
                "display": "Ischemic heart disease"
              }
            ]
          },
          {
            "coding": [
              {
                "code": "237602007",
                "system": "http://snomed.info/sct",
                "display": "Metabolic syndrome X"
              }
            ]
          },
          {
            "coding": [
              {
                "code": "59621000",
                "system": "http://snomed.info/sct",
                "display": "Essential hypertension"
              }
            ]
          },
          {
            "coding": [
              {
                "code": "271737000",
                "system": "http://snomed.info/sct",
                "display": "Anemia"
              }
            ]
          },
          {
            "coding": [
              {
                "code": "15777000",
                "system": "http://snomed.info/sct",
                "display": "Prediabetes"
              }
            ]
          }
        ],
        "status": "active",
        "intent": "order",
        "code": {
          "coding": [
            {
              "code": "108252007",
              "system": "http://snomed.info/sct",
              "display": "Laboratory procedure"
            }
          ]
        },
        "subject": {
          "reference": "urn:uuid:14d8a655-ae76-4a89-9430-d1da8acb7d84",
          "display": "Pelayo Casal"
        },
        "requester": {
          "reference": "urn:uuid:6b403524-f837-45d9-b8e6-268584d8a81d"
        }
      }
    },
    {
      "fullUrl": "urn:uuid:6b403524-f837-45d9-b8e6-268584d8a81d",
      "resource": {
        "resourceType": "PractitionerRole",
        "id": "6b403524-f837-45d9-b8e6-268584d8a81d",
        "meta": {
          "profile": [
            "http://hl7.eu/fhir/base/StructureDefinition/practitionerRole-eu"
          ]
        },
        "text": {
          "status": "generated",
          "div": "<div xmlns=\"http://www.w3.org/1999/xhtml\">Provider Role Id: 6b403524-f837-45d9-b8e6-268584d8a81d</div>"
        },
        "organization": {
          "reference": "urn:uuid:6813674f-e6d3-4515-a034-7c343f08b7f1"
        }
      }
    },
    {
      "fullUrl": "urn:uuid:6813674f-e6d3-4515-a034-7c343f08b7f1",
      "resource": {
        "resourceType": "Organization",
        "id": "6813674f-e6d3-4515-a034-7c343f08b7f1",
        "meta": {
          "profile": [
            "http://hl7.eu/fhir/base/StructureDefinition/organization-eu"
          ]
        },
        "identifier": [
          {
            "assigner": {
              "display": "HL7 Europe"
            },
            "system": "urn:oid:2.16.840.1.113883.2.51.999",
            "value": "490e582e-f04d-4c28-8259-643ba03db63d"
          }
        ],
        "address": [
          {
            "country": "Spain"
          }
        ],
        "text": {
          "status": "generated",
          "div": "<div xmlns=\"http://www.w3.org/1999/xhtml\">Provider Organization: Centro de Salud de Guanarteme</div>"
        },
        "name": "Centro de Salud de Guanarteme"
      }
    },
    {
      "fullUrl": "urn:uuid:6ac97013-b7c1-4e6a-ab95-478e6d6ec0f7",
      "resource": {
        "resourceType": "Specimen",
        "id": "6ac97013-b7c1-4e6a-ab95-478e6d6ec0f7",
        "meta": {
          "profile": [
            "http://hl7.eu/fhir/laboratory/StructureDefinition/Specimen-eu-lab"
          ]
        },
        "collection": {
          "collectedDateTime": "2023-11-23"
        },
        "text": {
          "status": "generated",
          "div": "<div xmlns=\"http://www.w3.org/1999/xhtml\"><table class=\"hl7__eu__lab__report\"><tr><th>Specimen</th><th>Collection Date</th></tr><tr><td>Acellular blood (serum or plasma) specimen</td><td><span class=\"nb\">23-Nov-2023</span></td></tr></table></div>"
        },
        "type": {
          "coding": [
            {
              "code": "122592007",
              "system": "http://snomed.info/sct",
              "display": "Acellular blood (serum or plasma) specimen"
            }
          ]
        }
      }
    },
    {
      "fullUrl": "urn:uuid:9c970377-3a77-4b29-a2bb-ea17cb1acdd6",
      "resource": {
        "resourceType": "Specimen",
        "id": "9c970377-3a77-4b29-a2bb-ea17cb1acdd6",
        "meta": {
          "profile": [
            "http://hl7.eu/fhir/laboratory/StructureDefinition/Specimen-eu-lab"
          ]
        },
        "collection": {
          "collectedDateTime": "2023-11-23"
        },
        "text": {
          "status": "generated",
          "div": "<div xmlns=\"http://www.w3.org/1999/xhtml\"><table class=\"hl7__eu__lab__report\"><tr><th>Specimen</th><th>Collection Date</th></tr><tr><td>Urine specimen</td><td><span class=\"nb\">23-Nov-2023</span></td></tr></table></div>"
        },
        "type": {
          "coding": [
            {
              "code": "122575003",
              "system": "http://snomed.info/sct",
              "display": "Urine specimen"
            }
          ]
        }
      }
    },
    {
      "fullUrl": "urn:uuid:61caa3e5-4494-4e88-9383-3a0ba01e3b0a",
      "resource": {
        "resourceType": "Specimen",
        "id": "61caa3e5-4494-4e88-9383-3a0ba01e3b0a",
        "meta": {
          "profile": [
            "http://hl7.eu/fhir/laboratory/StructureDefinition/Specimen-eu-lab"
          ]
        },
        "collection": {
          "collectedDateTime": "2023-11-23"
        },
        "text": {
          "status": "generated",
          "div": "<div xmlns=\"http://www.w3.org/1999/xhtml\"><table class=\"hl7__eu__lab__report\"><tr><th>Specimen</th><th>Collection Date</th></tr><tr><td>Whole blood specimen (specimen)</td><td><span class=\"nb\">23-Nov-2023</span></td></tr></table></div>"
        },
        "type": {
          "coding": [
            {
              "code": "258580003",
              "system": "http://snomed.info/sct",
              "display": "Whole blood specimen (specimen)"
            }
          ]
        }
      }
    },
    {
      "fullUrl": "urn:uuid:efbeba61-ce22-4a7d-ad68-e47d8246dbf7",
      "resource": {
        "resourceType": "Observation",
        "id": "efbeba61-ce22-4a7d-ad68-e47d8246dbf7",
        "meta": {
          "profile": [
            "http://hl7.eu/fhir/laboratory/StructureDefinition/Observation-resultslab-eu-lab"
          ]
        },
        "performer": [
          {
            "display": "The Central European Lab"
          }
        ],
        "category": [
          {
            "coding": [
              {
                "system": "http://terminology.hl7.org/CodeSystem/observation-category",
                "code": "laboratory"
              }
            ]
          }
        ],
        "code": {
          "coding": [
            {
              "code": "2345-7",
              "system": "http://loinc.org",
              "display": "Glucose [Mass/volume] in Serum or Plasma"
            }
          ],
          "text": "Glucose [Mass/volume] in Serum or Plasma"
        },
        "valueQuantity": {
          "system": "http://unitsofmeasure.org",
          "value": 95.2,
          "unit": "mg/dL",
          "code": "mg/dL"
        },
        "referenceRange": [
          {
            "low": {
              "value": 70,
              "code": "mg/dL",
              "system": "http://unitsofmeasure.org"
            }
          },
          {
            "high": {
              "value": 140,
              "code": "mg/dL",
              "system": "http://unitsofmeasure.org"
            }
          }
        ],
        "text": {
          "status": "generated",
          "div": "<div xmlns=\"http://www.w3.org/1999/xhtml\"><table class=\"hl7__eu__lab__report\"><tr><th>Test</th><th>23-Nov-2023</th><th>Reference&#xA0;Range</th><th>Unit</th></tr><tr><td>Glucose [Mass/volume] in Serum or Plasma</td><td>95.2</td><td>70 - 140</td><td></td><td>mg/dL</td></tr></table></div>"
        },
        "status": "final",
        "subject": {
          "reference": "urn:uuid:14d8a655-ae76-4a89-9430-d1da8acb7d84",
          "display": "Pelayo Casal"
        },
        "effectiveDateTime": "2023-11-23T05:38:59Z",
        "specimen": {
          "reference": "urn:uuid:6ac97013-b7c1-4e6a-ab95-478e6d6ec0f7"
        }
      }
    },
    {
      "fullUrl": "urn:uuid:1670e98e-9e10-43f9-853b-60c2f0cb404c",
      "resource": {
        "resourceType": "Observation",
        "id": "1670e98e-9e10-43f9-853b-60c2f0cb404c",
        "meta": {
          "profile": [
            "http://hl7.eu/fhir/laboratory/StructureDefinition/Observation-resultslab-eu-lab"
          ]
        },
        "performer": [
          {
            "display": "The Central European Lab"
          }
        ],
        "category": [
          {
            "coding": [
              {
                "system": "http://terminology.hl7.org/CodeSystem/observation-category",
                "code": "laboratory"
              }
            ]
          }
        ],
        "code": {
          "coding": [
            {
              "code": "3094-0",
              "system": "http://loinc.org",
              "display": "Urea nitrogen [Mass/volume] in Serum or Plasma"
            }
          ],
          "text": "Urea nitrogen [Mass/volume] in Serum or Plasma"
        },
        "valueQuantity": {
          "system": "http://unitsofmeasure.org",
          "value": 15.5,
          "unit": "mg/dL",
          "code": "mg/dL"
        },
        "referenceRange": [
          {
            "low": {
              "value": 7,
              "code": "mg/dL",
              "system": "http://unitsofmeasure.org"
            }
          },
          {
            "high": {
              "value": 25,
              "code": "mg/dL",
              "system": "http://unitsofmeasure.org"
            }
          }
        ],
        "text": {
          "status": "generated",
          "div": "<div xmlns=\"http://www.w3.org/1999/xhtml\"><table class=\"hl7__eu__lab__report\"><tr><th>Test</th><th>23-Nov-2023</th><th>Reference&#xA0;Range</th><th>Unit</th></tr><tr><td>Urea nitrogen [Mass/volume] in Serum or Plasma</td><td>15.5</td><td>7 - 25</td><td></td><td>mg/dL</td></tr></table></div>"
        },
        "status": "final",
        "subject": {
          "reference": "urn:uuid:14d8a655-ae76-4a89-9430-d1da8acb7d84",
          "display": "Pelayo Casal"
        },
        "effectiveDateTime": "2023-11-23T05:38:59Z",
        "specimen": {
          "reference": "urn:uuid:6ac97013-b7c1-4e6a-ab95-478e6d6ec0f7"
        }
      }
    },
    {
      "fullUrl": "urn:uuid:b76f2c9b-9c36-4fd3-8355-b1cda6e80999",
      "resource": {
        "resourceType": "Observation",
        "id": "b76f2c9b-9c36-4fd3-8355-b1cda6e80999",
        "meta": {
          "profile": [
            "http://hl7.eu/fhir/laboratory/StructureDefinition/Observation-resultslab-eu-lab"
          ]
        },
        "performer": [
          {
            "display": "The Central European Lab"
          }
        ],
        "category": [
          {
            "coding": [
              {
                "system": "http://terminology.hl7.org/CodeSystem/observation-category",
                "code": "laboratory"
              }
            ]
          }
        ],
        "code": {
          "coding": [
            {
              "code": "2160-0",
              "system": "http://loinc.org",
              "display": "Creatinine [Mass/volume] in Serum or Plasma"
            }
          ],
          "text": "Creatinine [Mass/volume] in Serum or Plasma"
        },
        "valueQuantity": {
          "system": "http://unitsofmeasure.org",
          "value": 2,
          "unit": "mg/dL",
          "code": "mg/dL"
        },
        "referenceRange": [
          {
            "low": {
              "value": 0.9,
              "code": "mg/dL",
              "system": "http://unitsofmeasure.org"
            }
          },
          {
            "high": {
              "value": 1.3,
              "code": "mg/dL",
              "system": "http://unitsofmeasure.org"
            }
          }
        ],
        "interpretation": [
          {
            "coding": [
              {
                "code": "H",
                "system": "http://terminology.hl7.org/CodeSystem/v3-ObservationInterpretation",
                "display": "High"
              }
            ]
          }
        ],
        "text": {
          "status": "generated",
          "div": "<div xmlns=\"http://www.w3.org/1999/xhtml\"><table class=\"hl7__eu__lab__report\"><tr><th>Test</th><th>23-Nov-2023</th><th>Reference&#xA0;Range</th><th>Unit</th></tr><tr><td>Creatinine [Mass/volume] in Serum or Plasma</td><td>2.0</td><td>0.9 - 1.3</td><td>H</td><td>mg/dL</td></tr></table></div>"
        },
        "status": "final",
        "subject": {
          "reference": "urn:uuid:14d8a655-ae76-4a89-9430-d1da8acb7d84",
          "display": "Pelayo Casal"
        },
        "effectiveDateTime": "2023-11-23T05:38:59Z",
        "specimen": {
          "reference": "urn:uuid:6ac97013-b7c1-4e6a-ab95-478e6d6ec0f7"
        }
      }
    },
    {
      "fullUrl": "urn:uuid:c1dc7ccb-1f0d-43b3-aaf3-99a0660a0936",
      "resource": {
        "resourceType": "Observation",
        "id": "c1dc7ccb-1f0d-43b3-aaf3-99a0660a0936",
        "meta": {
          "profile": [
            "http://hl7.eu/fhir/laboratory/StructureDefinition/Observation-resultslab-eu-lab"
          ]
        },
        "performer": [
          {
            "display": "The Central European Lab"
          }
        ],
        "category": [
          {
            "coding": [
              {
                "system": "http://terminology.hl7.org/CodeSystem/observation-category",
                "code": "laboratory"
              }
            ]
          }
        ],
        "code": {
          "coding": [
            {
              "code": "17861-6",
              "system": "http://loinc.org",
              "display": "Calcium [Mass/volume] in Serum or Plasma"
            }
          ],
          "text": "Calcium [Mass/volume] in Serum or Plasma"
        },
        "valueQuantity": {
          "system": "http://unitsofmeasure.org",
          "value": 8.6,
          "unit": "mg/dL",
          "code": "mg/dL"
        },
        "referenceRange": [
          {
            "low": {
              "value": 8.5,
              "code": "mg/dL",
              "system": "http://unitsofmeasure.org"
            }
          },
          {
            "high": {
              "value": 10.5,
              "code": "mg/dL",
              "system": "http://unitsofmeasure.org"
            }
          }
        ],
        "text": {
          "status": "generated",
          "div": "<div xmlns=\"http://www.w3.org/1999/xhtml\"><table class=\"hl7__eu__lab__report\"><tr><th>Test</th><th>23-Nov-2023</th><th>Reference&#xA0;Range</th><th>Unit</th></tr><tr><td>Calcium [Mass/volume] in Serum or Plasma</td><td>8.6</td><td>8.5 - 10.5</td><td></td><td>mg/dL</td></tr></table></div>"
        },
        "status": "final",
        "subject": {
          "reference": "urn:uuid:14d8a655-ae76-4a89-9430-d1da8acb7d84",
          "display": "Pelayo Casal"
        },
        "effectiveDateTime": "2023-11-23T05:38:59Z",
        "specimen": {
          "reference": "urn:uuid:6ac97013-b7c1-4e6a-ab95-478e6d6ec0f7"
        }
      }
    },
    {
      "fullUrl": "urn:uuid:dff152d8-4bea-4657-980d-9ca44e53b6d6",
      "resource": {
        "resourceType": "Observation",
        "id": "dff152d8-4bea-4657-980d-9ca44e53b6d6",
        "meta": {
          "profile": [
            "http://hl7.eu/fhir/laboratory/StructureDefinition/Observation-resultslab-eu-lab"
          ]
        },
        "performer": [
          {
            "display": "The Central European Lab"
          }
        ],
        "category": [
          {
            "coding": [
              {
                "system": "http://terminology.hl7.org/CodeSystem/observation-category",
                "code": "laboratory"
              }
            ]
          }
        ],
        "code": {
          "coding": [
            {
              "code": "2951-2",
              "system": "http://loinc.org",
              "display": "Sodium [Moles/volume] in Serum or Plasma"
            }
          ],
          "text": "Sodium [Moles/volume] in Serum or Plasma"
        },
        "valueQuantity": {
          "system": "http://unitsofmeasure.org",
          "value": 143.3,
          "unit": "mmol/L",
          "code": "mmol/L"
        },
        "referenceRange": [
          {
            "low": {
              "value": 135,
              "code": "mmol/L",
              "system": "http://unitsofmeasure.org"
            }
          },
          {
            "high": {
              "value": 145,
              "code": "mmol/L",
              "system": "http://unitsofmeasure.org"
            }
          }
        ],
        "text": {
          "status": "generated",
          "div": "<div xmlns=\"http://www.w3.org/1999/xhtml\"><table class=\"hl7__eu__lab__report\"><tr><th>Test</th><th>23-Nov-2023</th><th>Reference&#xA0;Range</th><th>Unit</th></tr><tr><td>Sodium [Moles/volume] in Serum or Plasma</td><td>143.3</td><td>135 - 145</td><td></td><td>mmol/L</td></tr></table></div>"
        },
        "status": "final",
        "subject": {
          "reference": "urn:uuid:14d8a655-ae76-4a89-9430-d1da8acb7d84",
          "display": "Pelayo Casal"
        },
        "effectiveDateTime": "2023-11-23T05:38:59Z",
        "specimen": {
          "reference": "urn:uuid:6ac97013-b7c1-4e6a-ab95-478e6d6ec0f7"
        }
      }
    },
    {
      "fullUrl": "urn:uuid:fa2cd843-5155-4da8-8b9d-41b1c2e7c86d",
      "resource": {
        "resourceType": "Observation",
        "id": "fa2cd843-5155-4da8-8b9d-41b1c2e7c86d",
        "meta": {
          "profile": [
            "http://hl7.eu/fhir/laboratory/StructureDefinition/Observation-resultslab-eu-lab"
          ]
        },
        "performer": [
          {
            "display": "The Central European Lab"
          }
        ],
        "category": [
          {
            "coding": [
              {
                "system": "http://terminology.hl7.org/CodeSystem/observation-category",
                "code": "laboratory"
              }
            ]
          }
        ],
        "code": {
          "coding": [
            {
              "code": "2823-3",
              "system": "http://loinc.org",
              "display": "Potassium [Moles/volume] in Serum or Plasma"
            }
          ],
          "text": "Potassium [Moles/volume] in Serum or Plasma"
        },
        "valueQuantity": {
          "system": "http://unitsofmeasure.org",
          "value": 4.3,
          "unit": "mmol/L",
          "code": "mmol/L"
        },
        "referenceRange": [
          {
            "low": {
              "value": 3.5,
              "code": "mmol/L",
              "system": "http://unitsofmeasure.org"
            }
          },
          {
            "high": {
              "value": 5.3,
              "code": "mmol/L",
              "system": "http://unitsofmeasure.org"
            }
          }
        ],
        "text": {
          "status": "generated",
          "div": "<div xmlns=\"http://www.w3.org/1999/xhtml\"><table class=\"hl7__eu__lab__report\"><tr><th>Test</th><th>23-Nov-2023</th><th>Reference&#xA0;Range</th><th>Unit</th></tr><tr><td>Potassium [Moles/volume] in Serum or Plasma</td><td>4.3</td><td>3.5 - 5.3</td><td></td><td>mmol/L</td></tr></table></div>"
        },
        "status": "final",
        "subject": {
          "reference": "urn:uuid:14d8a655-ae76-4a89-9430-d1da8acb7d84",
          "display": "Pelayo Casal"
        },
        "effectiveDateTime": "2023-11-23T05:38:59Z",
        "specimen": {
          "reference": "urn:uuid:6ac97013-b7c1-4e6a-ab95-478e6d6ec0f7"
        }
      }
    },
    {
      "fullUrl": "urn:uuid:5e0160ba-c8ba-4581-94a7-379061c8b2c3",
      "resource": {
        "resourceType": "Observation",
        "id": "5e0160ba-c8ba-4581-94a7-379061c8b2c3",
        "meta": {
          "profile": [
            "http://hl7.eu/fhir/laboratory/StructureDefinition/Observation-resultslab-eu-lab"
          ]
        },
        "performer": [
          {
            "display": "The Central European Lab"
          }
        ],
        "category": [
          {
            "coding": [
              {
                "system": "http://terminology.hl7.org/CodeSystem/observation-category",
                "code": "laboratory"
              }
            ]
          }
        ],
        "code": {
          "coding": [
            {
              "code": "2075-0",
              "system": "http://loinc.org",
              "display": "Chloride [Moles/volume] in Serum or Plasma"
            }
          ],
          "text": "Chloride [Moles/volume] in Serum or Plasma"
        },
        "valueQuantity": {
          "system": "http://unitsofmeasure.org",
          "value": 108.3,
          "unit": "mmol/L",
          "code": "mmol/L"
        },
        "referenceRange": [
          {
            "low": {
              "value": 98,
              "code": "mmol/L",
              "system": "http://unitsofmeasure.org"
            }
          },
          {
            "high": {
              "value": 107,
              "code": "mmol/L",
              "system": "http://unitsofmeasure.org"
            }
          }
        ],
        "interpretation": [
          {
            "coding": [
              {
                "code": "H",
                "system": "http://terminology.hl7.org/CodeSystem/v3-ObservationInterpretation",
                "display": "High"
              }
            ]
          }
        ],
        "text": {
          "status": "generated",
          "div": "<div xmlns=\"http://www.w3.org/1999/xhtml\"><table class=\"hl7__eu__lab__report\"><tr><th>Test</th><th>23-Nov-2023</th><th>Reference&#xA0;Range</th><th>Unit</th></tr><tr><td>Chloride [Moles/volume] in Serum or Plasma</td><td>108.3</td><td>98 - 107</td><td>H</td><td>mmol/L</td></tr></table></div>"
        },
        "status": "final",
        "subject": {
          "reference": "urn:uuid:14d8a655-ae76-4a89-9430-d1da8acb7d84",
          "display": "Pelayo Casal"
        },
        "effectiveDateTime": "2023-11-23T05:38:59Z",
        "specimen": {
          "reference": "urn:uuid:6ac97013-b7c1-4e6a-ab95-478e6d6ec0f7"
        }
      }
    },
    {
      "fullUrl": "urn:uuid:fac3dcb7-9e61-429f-8a0e-2b3e2a53ff85",
      "resource": {
        "resourceType": "Observation",
        "id": "fac3dcb7-9e61-429f-8a0e-2b3e2a53ff85",
        "meta": {
          "profile": [
            "http://hl7.eu/fhir/laboratory/StructureDefinition/Observation-resultslab-eu-lab"
          ]
        },
        "performer": [
          {
            "display": "The Central European Lab"
          }
        ],
        "category": [
          {
            "coding": [
              {
                "system": "http://terminology.hl7.org/CodeSystem/observation-category",
                "code": "laboratory"
              }
            ]
          }
        ],
        "code": {
          "coding": [
            {
              "code": "2028-9",
              "system": "http://loinc.org",
              "display": "Carbon dioxide, total [Moles/volume] in Serum or Plasma"
            }
          ],
          "text": "Carbon dioxide, total [Moles/volume] in Serum or Plasma"
        },
        "valueQuantity": {
          "system": "http://unitsofmeasure.org",
          "value": 23.6,
          "unit": "mmol/L",
          "code": "mmol/L"
        },
        "referenceRange": [
          {
            "low": {
              "value": 22,
              "code": "mmol/L",
              "system": "http://unitsofmeasure.org"
            }
          },
          {
            "high": {
              "value": 29,
              "code": "mmol/L",
              "system": "http://unitsofmeasure.org"
            }
          }
        ],
        "text": {
          "status": "generated",
          "div": "<div xmlns=\"http://www.w3.org/1999/xhtml\"><table class=\"hl7__eu__lab__report\"><tr><th>Test</th><th>23-Nov-2023</th><th>Reference&#xA0;Range</th><th>Unit</th></tr><tr><td>Carbon dioxide, total [Moles/volume] in Serum or Plasma</td><td>23.6</td><td>22 - 29</td><td></td><td>mmol/L</td></tr></table></div>"
        },
        "status": "final",
        "subject": {
          "reference": "urn:uuid:14d8a655-ae76-4a89-9430-d1da8acb7d84",
          "display": "Pelayo Casal"
        },
        "effectiveDateTime": "2023-11-23T05:38:59Z",
        "specimen": {
          "reference": "urn:uuid:6ac97013-b7c1-4e6a-ab95-478e6d6ec0f7"
        }
      }
    },
    {
      "fullUrl": "urn:uuid:f3ea5667-9d68-42d8-9ea6-14a6cd96a674",
      "resource": {
        "resourceType": "Observation",
        "id": "f3ea5667-9d68-42d8-9ea6-14a6cd96a674",
        "meta": {
          "profile": [
            "http://hl7.eu/fhir/laboratory/StructureDefinition/Observation-resultslab-eu-lab"
          ]
        },
        "performer": [
          {
            "display": "The Central European Lab"
          }
        ],
        "category": [
          {
            "coding": [
              {
                "system": "http://terminology.hl7.org/CodeSystem/observation-category",
                "code": "laboratory"
              }
            ]
          }
        ],
        "code": {
          "coding": [
            {
              "code": "5767-9",
              "system": "http://loinc.org",
              "display": "Appearance of Urine"
            }
          ],
          "text": "Appearance of Urine"
        },
        "text": {
          "status": "generated",
          "div": "<div xmlns=\"http://www.w3.org/1999/xhtml\"><table class=\"hl7__eu__lab__report\"><tr><th>Test</th><th>23-Nov-2023</th><th>Reference&#xA0;Range</th><th>Unit</th></tr><tr><td>Appearance of Urine</td></tr></table></div>"
        },
        "status": "final",
        "subject": {
          "reference": "urn:uuid:14d8a655-ae76-4a89-9430-d1da8acb7d84",
          "display": "Pelayo Casal"
        },
        "effectiveDateTime": "2023-11-23T05:38:59Z",
        "specimen": {
          "reference": "urn:uuid:9c970377-3a77-4b29-a2bb-ea17cb1acdd6"
        }
      }
    },
    {
      "fullUrl": "urn:uuid:5f8bfa7f-4bfa-4e8f-ae2a-d64efb2d9077",
      "resource": {
        "resourceType": "Observation",
        "id": "5f8bfa7f-4bfa-4e8f-ae2a-d64efb2d9077",
        "meta": {
          "profile": [
            "http://hl7.eu/fhir/laboratory/StructureDefinition/Observation-resultslab-eu-lab"
          ]
        },
        "performer": [
          {
            "display": "The Central European Lab"
          }
        ],
        "category": [
          {
            "coding": [
              {
                "system": "http://terminology.hl7.org/CodeSystem/observation-category",
                "code": "laboratory"
              }
            ]
          }
        ],
        "code": {
          "coding": [
            {
              "code": "34533-0",
              "system": "http://loinc.org",
              "display": "Odor of Urine"
            }
          ],
          "text": "Odor of Urine"
        },
        "text": {
          "status": "generated",
          "div": "<div xmlns=\"http://www.w3.org/1999/xhtml\"><table class=\"hl7__eu__lab__report\"><tr><th>Test</th><th>23-Nov-2023</th><th>Reference&#xA0;Range</th><th>Unit</th></tr><tr><td>Odor of Urine</td></tr></table></div>"
        },
        "status": "final",
        "subject": {
          "reference": "urn:uuid:14d8a655-ae76-4a89-9430-d1da8acb7d84",
          "display": "Pelayo Casal"
        },
        "effectiveDateTime": "2023-11-23T05:38:59Z",
        "specimen": {
          "reference": "urn:uuid:9c970377-3a77-4b29-a2bb-ea17cb1acdd6"
        }
      }
    },
    {
      "fullUrl": "urn:uuid:d3a748d2-2233-4bde-a483-11241ee05df4",
      "resource": {
        "resourceType": "Observation",
        "id": "d3a748d2-2233-4bde-a483-11241ee05df4",
        "meta": {
          "profile": [
            "http://hl7.eu/fhir/laboratory/StructureDefinition/Observation-resultslab-eu-lab"
          ]
        },
        "performer": [
          {
            "display": "The Central European Lab"
          }
        ],
        "category": [
          {
            "coding": [
              {
                "system": "http://terminology.hl7.org/CodeSystem/observation-category",
                "code": "laboratory"
              }
            ]
          }
        ],
        "code": {
          "coding": [
            {
              "code": "32167-9",
              "system": "http://loinc.org",
              "display": "Clarity of Urine"
            }
          ],
          "text": "Clarity of Urine"
        },
        "text": {
          "status": "generated",
          "div": "<div xmlns=\"http://www.w3.org/1999/xhtml\"><table class=\"hl7__eu__lab__report\"><tr><th>Test</th><th>23-Nov-2023</th><th>Reference&#xA0;Range</th><th>Unit</th></tr><tr><td>Clarity of Urine</td></tr></table></div>"
        },
        "status": "final",
        "subject": {
          "reference": "urn:uuid:14d8a655-ae76-4a89-9430-d1da8acb7d84",
          "display": "Pelayo Casal"
        },
        "effectiveDateTime": "2023-11-23T05:38:59Z",
        "specimen": {
          "reference": "urn:uuid:9c970377-3a77-4b29-a2bb-ea17cb1acdd6"
        }
      }
    },
    {
      "fullUrl": "urn:uuid:808fecbd-ddbc-46e6-8223-4b5a6e8ea8af",
      "resource": {
        "resourceType": "Observation",
        "id": "808fecbd-ddbc-46e6-8223-4b5a6e8ea8af",
        "meta": {
          "profile": [
            "http://hl7.eu/fhir/laboratory/StructureDefinition/Observation-resultslab-eu-lab"
          ]
        },
        "performer": [
          {
            "display": "The Central European Lab"
          }
        ],
        "category": [
          {
            "coding": [
              {
                "system": "http://terminology.hl7.org/CodeSystem/observation-category",
                "code": "laboratory"
              }
            ]
          }
        ],
        "code": {
          "coding": [
            {
              "code": "5778-6",
              "system": "http://loinc.org",
              "display": "Color of Urine"
            }
          ],
          "text": "Color of Urine"
        },
        "text": {
          "status": "generated",
          "div": "<div xmlns=\"http://www.w3.org/1999/xhtml\"><table class=\"hl7__eu__lab__report\"><tr><th>Test</th><th>23-Nov-2023</th><th>Reference&#xA0;Range</th><th>Unit</th></tr><tr><td>Color of Urine</td></tr></table></div>"
        },
        "status": "final",
        "subject": {
          "reference": "urn:uuid:14d8a655-ae76-4a89-9430-d1da8acb7d84",
          "display": "Pelayo Casal"
        },
        "effectiveDateTime": "2023-11-23T05:38:59Z",
        "specimen": {
          "reference": "urn:uuid:9c970377-3a77-4b29-a2bb-ea17cb1acdd6"
        }
      }
    },
    {
      "fullUrl": "urn:uuid:694eb0db-41a7-4b9c-9ead-9691587c563c",
      "resource": {
        "resourceType": "Observation",
        "id": "694eb0db-41a7-4b9c-9ead-9691587c563c",
        "meta": {
          "profile": [
            "http://hl7.eu/fhir/laboratory/StructureDefinition/Observation-resultslab-eu-lab"
          ]
        },
        "performer": [
          {
            "display": "The Central European Lab"
          }
        ],
        "category": [
          {
            "coding": [
              {
                "system": "http://terminology.hl7.org/CodeSystem/observation-category",
                "code": "laboratory"
              }
            ]
          }
        ],
        "code": {
          "coding": [
            {
              "code": "5792-7",
              "system": "http://loinc.org",
              "display": "Glucose [Mass/volume] in Urine by Test strip"
            }
          ],
          "text": "Glucose [Mass/volume] in Urine by Test strip"
        },
        "valueQuantity": {
          "system": "http://unitsofmeasure.org",
          "value": 2.5,
          "unit": "mg/dL",
          "code": "mg/dL"
        },
        "referenceRange": [
          {
            "low": {
              "value": 0.8,
              "code": "mg/dL",
              "system": "http://unitsofmeasure.org"
            }
          },
          {
            "high": {
              "value": 0,
              "code": "mg/dL",
              "system": "http://unitsofmeasure.org"
            }
          }
        ],
        "interpretation": [
          {
            "coding": [
              {
                "code": "H",
                "system": "http://terminology.hl7.org/CodeSystem/v3-ObservationInterpretation",
                "display": "High"
              }
            ]
          }
        ],
        "text": {
          "status": "generated",
          "div": "<div xmlns=\"http://www.w3.org/1999/xhtml\"><table class=\"hl7__eu__lab__report\"><tr><th>Test</th><th>23-Nov-2023</th><th>Reference&#xA0;Range</th><th>Unit</th></tr><tr><td>Glucose [Mass/volume] in Urine by Test strip</td><td>2.5</td><td>0.8 - 0</td><td>H</td><td>mg/dL</td></tr></table></div>"
        },
        "status": "final",
        "subject": {
          "reference": "urn:uuid:14d8a655-ae76-4a89-9430-d1da8acb7d84",
          "display": "Pelayo Casal"
        },
        "effectiveDateTime": "2023-11-23T05:38:59Z",
        "specimen": {
          "reference": "urn:uuid:9c970377-3a77-4b29-a2bb-ea17cb1acdd6"
        }
      }
    },
    {
      "fullUrl": "urn:uuid:a44a132c-5a69-4bec-8727-01bcdf69422e",
      "resource": {
        "resourceType": "Observation",
        "id": "a44a132c-5a69-4bec-8727-01bcdf69422e",
        "meta": {
          "profile": [
            "http://hl7.eu/fhir/laboratory/StructureDefinition/Observation-resultslab-eu-lab"
          ]
        },
        "performer": [
          {
            "display": "The Central European Lab"
          }
        ],
        "category": [
          {
            "coding": [
              {
                "system": "http://terminology.hl7.org/CodeSystem/observation-category",
                "code": "laboratory"
              }
            ]
          }
        ],
        "code": {
          "coding": [
            {
              "code": "25428-4",
              "system": "http://loinc.org",
              "display": "Glucose [Presence] in Urine by Test strip"
            }
          ],
          "text": "Glucose [Presence] in Urine by Test strip"
        },
        "text": {
          "status": "generated",
          "div": "<div xmlns=\"http://www.w3.org/1999/xhtml\"><table class=\"hl7__eu__lab__report\"><tr><th>Test</th><th>23-Nov-2023</th><th>Reference&#xA0;Range</th><th>Unit</th></tr><tr><td>Glucose [Presence] in Urine by Test strip</td></tr></table></div>"
        },
        "status": "final",
        "subject": {
          "reference": "urn:uuid:14d8a655-ae76-4a89-9430-d1da8acb7d84",
          "display": "Pelayo Casal"
        },
        "effectiveDateTime": "2023-11-23T05:38:59Z",
        "specimen": {
          "reference": "urn:uuid:9c970377-3a77-4b29-a2bb-ea17cb1acdd6"
        }
      }
    },
    {
      "fullUrl": "urn:uuid:dd585d39-1422-4e70-a2a0-a206ca161cb1",
      "resource": {
        "resourceType": "Observation",
        "id": "dd585d39-1422-4e70-a2a0-a206ca161cb1",
        "meta": {
          "profile": [
            "http://hl7.eu/fhir/laboratory/StructureDefinition/Observation-resultslab-eu-lab"
          ]
        },
        "performer": [
          {
            "display": "The Central European Lab"
          }
        ],
        "category": [
          {
            "coding": [
              {
                "system": "http://terminology.hl7.org/CodeSystem/observation-category",
                "code": "laboratory"
              }
            ]
          }
        ],
        "code": {
          "coding": [
            {
              "code": "20505-4",
              "system": "http://loinc.org",
              "display": "Bilirubin.total [Mass/volume] in Urine by Test strip"
            }
          ],
          "text": "Bilirubin.total [Mass/volume] in Urine by Test strip"
        },
        "valueQuantity": {
          "system": "http://unitsofmeasure.org",
          "value": 1.1,
          "unit": "mg/dL",
          "code": "mg/dL"
        },
        "referenceRange": [
          {
            "low": {
              "value": 0.2,
              "code": "mg/dL",
              "system": "http://unitsofmeasure.org"
            }
          },
          {
            "high": {
              "value": 1.5,
              "code": "mg/dL",
              "system": "http://unitsofmeasure.org"
            }
          }
        ],
        "text": {
          "status": "generated",
          "div": "<div xmlns=\"http://www.w3.org/1999/xhtml\"><table class=\"hl7__eu__lab__report\"><tr><th>Test</th><th>23-Nov-2023</th><th>Reference&#xA0;Range</th><th>Unit</th></tr><tr><td>Bilirubin.total [Mass/volume] in Urine by Test strip</td><td>1.1</td><td>0.2 - 1.5</td><td></td><td>mg/dL</td></tr></table></div>"
        },
        "status": "final",
        "subject": {
          "reference": "urn:uuid:14d8a655-ae76-4a89-9430-d1da8acb7d84",
          "display": "Pelayo Casal"
        },
        "effectiveDateTime": "2023-11-23T05:38:59Z",
        "specimen": {
          "reference": "urn:uuid:9c970377-3a77-4b29-a2bb-ea17cb1acdd6"
        }
      }
    },
    {
      "fullUrl": "urn:uuid:e86f1f97-e3f5-4838-a473-b53ec9cc161f",
      "resource": {
        "resourceType": "Observation",
        "id": "e86f1f97-e3f5-4838-a473-b53ec9cc161f",
        "meta": {
          "profile": [
            "http://hl7.eu/fhir/laboratory/StructureDefinition/Observation-resultslab-eu-lab"
          ]
        },
        "performer": [
          {
            "display": "The Central European Lab"
          }
        ],
        "category": [
          {
            "coding": [
              {
                "system": "http://terminology.hl7.org/CodeSystem/observation-category",
                "code": "laboratory"
              }
            ]
          }
        ],
        "code": {
          "coding": [
            {
              "code": "5770-3",
              "system": "http://loinc.org",
              "display": "Bilirubin.total [Presence] in Urine by Test strip"
            }
          ],
          "text": "Bilirubin.total [Presence] in Urine by Test strip"
        },
        "text": {
          "status": "generated",
          "div": "<div xmlns=\"http://www.w3.org/1999/xhtml\"><table class=\"hl7__eu__lab__report\"><tr><th>Test</th><th>23-Nov-2023</th><th>Reference&#xA0;Range</th><th>Unit</th></tr><tr><td>Bilirubin.total [Presence] in Urine by Test strip</td></tr></table></div>"
        },
        "status": "final",
        "subject": {
          "reference": "urn:uuid:14d8a655-ae76-4a89-9430-d1da8acb7d84",
          "display": "Pelayo Casal"
        },
        "effectiveDateTime": "2023-11-23T05:38:59Z",
        "specimen": {
          "reference": "urn:uuid:9c970377-3a77-4b29-a2bb-ea17cb1acdd6"
        }
      }
    },
    {
      "fullUrl": "urn:uuid:9994f70f-bdc2-4440-9de8-9a30ef761a92",
      "resource": {
        "resourceType": "Observation",
        "id": "9994f70f-bdc2-4440-9de8-9a30ef761a92",
        "meta": {
          "profile": [
            "http://hl7.eu/fhir/laboratory/StructureDefinition/Observation-resultslab-eu-lab"
          ]
        },
        "performer": [
          {
            "display": "The Central European Lab"
          }
        ],
        "category": [
          {
            "coding": [
              {
                "system": "http://terminology.hl7.org/CodeSystem/observation-category",
                "code": "laboratory"
              }
            ]
          }
        ],
        "code": {
          "coding": [
            {
              "code": "5797-6",
              "system": "http://loinc.org",
              "display": "Ketones [Mass/volume] in Urine by Test strip"
            }
          ],
          "text": "Ketones [Mass/volume] in Urine by Test strip"
        },
        "valueQuantity": {
          "system": "http://unitsofmeasure.org",
          "value": 11.6,
          "unit": "mg/dL",
          "code": "mg/dL"
        },
        "referenceRange": [
          {
            "low": {
              "value": 0,
              "code": "mg/dL",
              "system": "http://unitsofmeasure.org"
            }
          },
          {
            "high": {
              "value": 4,
              "code": "mg/dL",
              "system": "http://unitsofmeasure.org"
            }
          }
        ],
        "interpretation": [
          {
            "coding": [
              {
                "code": "H",
                "system": "http://terminology.hl7.org/CodeSystem/v3-ObservationInterpretation",
                "display": "High"
              }
            ]
          }
        ],
        "text": {
          "status": "generated",
          "div": "<div xmlns=\"http://www.w3.org/1999/xhtml\"><table class=\"hl7__eu__lab__report\"><tr><th>Test</th><th>23-Nov-2023</th><th>Reference&#xA0;Range</th><th>Unit</th></tr><tr><td>Ketones [Mass/volume] in Urine by Test strip</td><td>11.6</td><td>0 - 4</td><td>H</td><td>mg/dL</td></tr></table></div>"
        },
        "status": "final",
        "subject": {
          "reference": "urn:uuid:14d8a655-ae76-4a89-9430-d1da8acb7d84",
          "display": "Pelayo Casal"
        },
        "effectiveDateTime": "2023-11-23T05:38:59Z",
        "specimen": {
          "reference": "urn:uuid:9c970377-3a77-4b29-a2bb-ea17cb1acdd6"
        }
      }
    },
    {
      "fullUrl": "urn:uuid:4e8bc1e7-4111-4deb-bc98-893119a99f71",
      "resource": {
        "resourceType": "Observation",
        "id": "4e8bc1e7-4111-4deb-bc98-893119a99f71",
        "meta": {
          "profile": [
            "http://hl7.eu/fhir/laboratory/StructureDefinition/Observation-resultslab-eu-lab"
          ]
        },
        "performer": [
          {
            "display": "The Central European Lab"
          }
        ],
        "category": [
          {
            "coding": [
              {
                "system": "http://terminology.hl7.org/CodeSystem/observation-category",
                "code": "laboratory"
              }
            ]
          }
        ],
        "code": {
          "coding": [
            {
              "code": "2514-8",
              "system": "http://loinc.org",
              "display": "Ketones [Presence] in Urine by Test strip"
            }
          ],
          "text": "Ketones [Presence] in Urine by Test strip"
        },
        "text": {
          "status": "generated",
          "div": "<div xmlns=\"http://www.w3.org/1999/xhtml\"><table class=\"hl7__eu__lab__report\"><tr><th>Test</th><th>23-Nov-2023</th><th>Reference&#xA0;Range</th><th>Unit</th></tr><tr><td>Ketones [Presence] in Urine by Test strip</td></tr></table></div>"
        },
        "status": "final",
        "subject": {
          "reference": "urn:uuid:14d8a655-ae76-4a89-9430-d1da8acb7d84",
          "display": "Pelayo Casal"
        },
        "effectiveDateTime": "2023-11-23T05:38:59Z",
        "specimen": {
          "reference": "urn:uuid:9c970377-3a77-4b29-a2bb-ea17cb1acdd6"
        }
      }
    },
    {
      "fullUrl": "urn:uuid:81885503-18c7-4fe0-a204-8a41965a97e6",
      "resource": {
        "resourceType": "Observation",
        "id": "81885503-18c7-4fe0-a204-8a41965a97e6",
        "meta": {
          "profile": [
            "http://hl7.eu/fhir/laboratory/StructureDefinition/Observation-resultslab-eu-lab"
          ]
        },
        "performer": [
          {
            "display": "The Central European Lab"
          }
        ],
        "category": [
          {
            "coding": [
              {
                "system": "http://terminology.hl7.org/CodeSystem/observation-category",
                "code": "laboratory"
              }
            ]
          }
        ],
        "code": {
          "coding": [
            {
              "code": "5811-5",
              "system": "http://loinc.org",
              "display": "Specific gravity of Urine by Test strip"
            }
          ],
          "text": "Specific gravity of Urine by Test strip"
        },
        "valueQuantity": {
          "system": "http://unitsofmeasure.org",
          "value": 1,
          "unit": "{nominal}",
          "code": "{nominal}"
        },
        "referenceRange": [
          {
            "low": {
              "value": 1.01,
              "code": "g/mL",
              "system": "http://unitsofmeasure.org"
            }
          },
          {
            "high": {
              "value": 1.03,
              "code": "g/mL",
              "system": "http://unitsofmeasure.org"
            }
          }
        ],
        "interpretation": [
          {
            "coding": [
              {
                "code": "L",
                "system": "http://terminology.hl7.org/CodeSystem/v3-ObservationInterpretation",
                "display": "Low"
              }
            ]
          }
        ],
        "text": {
          "status": "generated",
          "div": "<div xmlns=\"http://www.w3.org/1999/xhtml\"><table class=\"hl7__eu__lab__report\"><tr><th>Test</th><th>23-Nov-2023</th><th>Reference&#xA0;Range</th><th>Unit</th></tr><tr><td>Specific gravity of Urine by Test strip</td><td>1.0</td><td>1.01 - 1.03</td><td>L</td><td>{nominal}</td></tr></table></div>"
        },
        "status": "final",
        "subject": {
          "reference": "urn:uuid:14d8a655-ae76-4a89-9430-d1da8acb7d84",
          "display": "Pelayo Casal"
        },
        "effectiveDateTime": "2023-11-23T05:38:59Z",
        "specimen": {
          "reference": "urn:uuid:9c970377-3a77-4b29-a2bb-ea17cb1acdd6"
        }
      }
    },
    {
      "fullUrl": "urn:uuid:60214a56-3fa4-4613-9711-85d78db3f3e9",
      "resource": {
        "resourceType": "Observation",
        "id": "60214a56-3fa4-4613-9711-85d78db3f3e9",
        "meta": {
          "profile": [
            "http://hl7.eu/fhir/laboratory/StructureDefinition/Observation-resultslab-eu-lab"
          ]
        },
        "performer": [
          {
            "display": "The Central European Lab"
          }
        ],
        "category": [
          {
            "coding": [
              {
                "system": "http://terminology.hl7.org/CodeSystem/observation-category",
                "code": "laboratory"
              }
            ]
          }
        ],
        "code": {
          "coding": [
            {
              "code": "5803-2",
              "system": "http://loinc.org",
              "display": "pH of Urine by Test strip"
            }
          ],
          "text": "pH of Urine by Test strip"
        },
        "valueQuantity": {
          "system": "http://unitsofmeasure.org",
          "value": 6.3,
          "unit": "pH",
          "code": "pH"
        },
        "referenceRange": [
          {
            "low": {
              "value": 4.5,
              "code": "pH",
              "system": "http://unitsofmeasure.org"
            }
          },
          {
            "high": {
              "value": 7.5,
              "code": "pH",
              "system": "http://unitsofmeasure.org"
            }
          }
        ],
        "text": {
          "status": "generated",
          "div": "<div xmlns=\"http://www.w3.org/1999/xhtml\"><table class=\"hl7__eu__lab__report\"><tr><th>Test</th><th>23-Nov-2023</th><th>Reference&#xA0;Range</th><th>Unit</th></tr><tr><td>pH of Urine by Test strip</td><td>6.3</td><td>4.5 - 7.5</td><td></td><td>pH</td></tr></table></div>"
        },
        "status": "final",
        "subject": {
          "reference": "urn:uuid:14d8a655-ae76-4a89-9430-d1da8acb7d84",
          "display": "Pelayo Casal"
        },
        "effectiveDateTime": "2023-11-23T05:38:59Z",
        "specimen": {
          "reference": "urn:uuid:9c970377-3a77-4b29-a2bb-ea17cb1acdd6"
        }
      }
    },
    {
      "fullUrl": "urn:uuid:d3034a21-df4f-4070-af6c-f64fa6a81cf7",
      "resource": {
        "resourceType": "Observation",
        "id": "d3034a21-df4f-4070-af6c-f64fa6a81cf7",
        "meta": {
          "profile": [
            "http://hl7.eu/fhir/laboratory/StructureDefinition/Observation-resultslab-eu-lab"
          ]
        },
        "performer": [
          {
            "display": "The Central European Lab"
          }
        ],
        "category": [
          {
            "coding": [
              {
                "system": "http://terminology.hl7.org/CodeSystem/observation-category",
                "code": "laboratory"
              }
            ]
          }
        ],
        "code": {
          "coding": [
            {
              "code": "5804-0",
              "system": "http://loinc.org",
              "display": "Protein [Mass/volume] in Urine by Test strip"
            }
          ],
          "text": "Protein [Mass/volume] in Urine by Test strip"
        },
        "valueQuantity": {
          "system": "http://unitsofmeasure.org",
          "value": 337,
          "unit": "mg/dL",
          "code": "mg/dL"
        },
        "referenceRange": [
          {
            "low": {
              "value": 0,
              "code": "mg/dL",
              "system": "http://unitsofmeasure.org"
            }
          },
          {
            "high": {
              "value": 150,
              "code": "mg/dL",
              "system": "http://unitsofmeasure.org"
            }
          }
        ],
        "interpretation": [
          {
            "coding": [
              {
                "code": "H",
                "system": "http://terminology.hl7.org/CodeSystem/v3-ObservationInterpretation",
                "display": "High"
              }
            ]
          }
        ],
        "text": {
          "status": "generated",
          "div": "<div xmlns=\"http://www.w3.org/1999/xhtml\"><table class=\"hl7__eu__lab__report\"><tr><th>Test</th><th>23-Nov-2023</th><th>Reference&#xA0;Range</th><th>Unit</th></tr><tr><td>Protein [Mass/volume] in Urine by Test strip</td><td>337.0</td><td>0 - 150</td><td>H</td><td>mg/dL</td></tr></table></div>"
        },
        "status": "final",
        "subject": {
          "reference": "urn:uuid:14d8a655-ae76-4a89-9430-d1da8acb7d84",
          "display": "Pelayo Casal"
        },
        "effectiveDateTime": "2023-11-23T05:38:59Z",
        "specimen": {
          "reference": "urn:uuid:9c970377-3a77-4b29-a2bb-ea17cb1acdd6"
        }
      }
    },
    {
      "fullUrl": "urn:uuid:06fc1943-8878-466d-9d00-1038ecf386d2",
      "resource": {
        "resourceType": "Observation",
        "id": "06fc1943-8878-466d-9d00-1038ecf386d2",
        "meta": {
          "profile": [
            "http://hl7.eu/fhir/laboratory/StructureDefinition/Observation-resultslab-eu-lab"
          ]
        },
        "performer": [
          {
            "display": "The Central European Lab"
          }
        ],
        "category": [
          {
            "coding": [
              {
                "system": "http://terminology.hl7.org/CodeSystem/observation-category",
                "code": "laboratory"
              }
            ]
          }
        ],
        "code": {
          "coding": [
            {
              "code": "20454-5",
              "system": "http://loinc.org",
              "display": "Protein [Presence] in Urine by Test strip"
            }
          ],
          "text": "Protein [Presence] in Urine by Test strip"
        },
        "text": {
          "status": "generated",
          "div": "<div xmlns=\"http://www.w3.org/1999/xhtml\"><table class=\"hl7__eu__lab__report\"><tr><th>Test</th><th>23-Nov-2023</th><th>Reference&#xA0;Range</th><th>Unit</th></tr><tr><td>Protein [Presence] in Urine by Test strip</td></tr></table></div>"
        },
        "status": "final",
        "subject": {
          "reference": "urn:uuid:14d8a655-ae76-4a89-9430-d1da8acb7d84",
          "display": "Pelayo Casal"
        },
        "effectiveDateTime": "2023-11-23T05:38:59Z",
        "specimen": {
          "reference": "urn:uuid:9c970377-3a77-4b29-a2bb-ea17cb1acdd6"
        }
      }
    },
    {
      "fullUrl": "urn:uuid:ef0fb06f-13c5-46e8-be62-88db19165389",
      "resource": {
        "resourceType": "Observation",
        "id": "ef0fb06f-13c5-46e8-be62-88db19165389",
        "meta": {
          "profile": [
            "http://hl7.eu/fhir/laboratory/StructureDefinition/Observation-resultslab-eu-lab"
          ]
        },
        "performer": [
          {
            "display": "The Central European Lab"
          }
        ],
        "category": [
          {
            "coding": [
              {
                "system": "http://terminology.hl7.org/CodeSystem/observation-category",
                "code": "laboratory"
              }
            ]
          }
        ],
        "code": {
          "coding": [
            {
              "code": "5802-4",
              "system": "http://loinc.org",
              "display": "Nitrite [Presence] in Urine by Test strip"
            }
          ],
          "text": "Nitrite [Presence] in Urine by Test strip"
        },
        "text": {
          "status": "generated",
          "div": "<div xmlns=\"http://www.w3.org/1999/xhtml\"><table class=\"hl7__eu__lab__report\"><tr><th>Test</th><th>23-Nov-2023</th><th>Reference&#xA0;Range</th><th>Unit</th></tr><tr><td>Nitrite [Presence] in Urine by Test strip</td></tr></table></div>"
        },
        "status": "final",
        "subject": {
          "reference": "urn:uuid:14d8a655-ae76-4a89-9430-d1da8acb7d84",
          "display": "Pelayo Casal"
        },
        "effectiveDateTime": "2023-11-23T05:38:59Z",
        "specimen": {
          "reference": "urn:uuid:9c970377-3a77-4b29-a2bb-ea17cb1acdd6"
        }
      }
    },
    {
      "fullUrl": "urn:uuid:af475fcb-8457-4720-924d-3e3087f004ee",
      "resource": {
        "resourceType": "Observation",
        "id": "af475fcb-8457-4720-924d-3e3087f004ee",
        "meta": {
          "profile": [
            "http://hl7.eu/fhir/laboratory/StructureDefinition/Observation-resultslab-eu-lab"
          ]
        },
        "performer": [
          {
            "display": "The Central European Lab"
          }
        ],
        "category": [
          {
            "coding": [
              {
                "system": "http://terminology.hl7.org/CodeSystem/observation-category",
                "code": "laboratory"
              }
            ]
          }
        ],
        "code": {
          "coding": [
            {
              "code": "5794-3",
              "system": "http://loinc.org",
              "display": "Hemoglobin [Presence] in Urine by Test strip"
            }
          ],
          "text": "Hemoglobin [Presence] in Urine by Test strip"
        },
        "text": {
          "status": "generated",
          "div": "<div xmlns=\"http://www.w3.org/1999/xhtml\"><table class=\"hl7__eu__lab__report\"><tr><th>Test</th><th>23-Nov-2023</th><th>Reference&#xA0;Range</th><th>Unit</th></tr><tr><td>Hemoglobin [Presence] in Urine by Test strip</td></tr></table></div>"
        },
        "status": "final",
        "subject": {
          "reference": "urn:uuid:14d8a655-ae76-4a89-9430-d1da8acb7d84",
          "display": "Pelayo Casal"
        },
        "effectiveDateTime": "2023-11-23T05:38:59Z",
        "specimen": {
          "reference": "urn:uuid:9c970377-3a77-4b29-a2bb-ea17cb1acdd6"
        }
      }
    },
    {
      "fullUrl": "urn:uuid:f34ec90e-cf30-43d3-8643-cfd6c6389847",
      "resource": {
        "resourceType": "Observation",
        "id": "f34ec90e-cf30-43d3-8643-cfd6c6389847",
        "meta": {
          "profile": [
            "http://hl7.eu/fhir/laboratory/StructureDefinition/Observation-resultslab-eu-lab"
          ]
        },
        "performer": [
          {
            "display": "The Central European Lab"
          }
        ],
        "category": [
          {
            "coding": [
              {
                "system": "http://terminology.hl7.org/CodeSystem/observation-category",
                "code": "laboratory"
              }
            ]
          }
        ],
        "code": {
          "coding": [
            {
              "code": "5799-2",
              "system": "http://loinc.org",
              "display": "Leukocyte esterase [Presence] in Urine by Test strip"
            }
          ],
          "text": "Leukocyte esterase [Presence] in Urine by Test strip"
        },
        "text": {
          "status": "generated",
          "div": "<div xmlns=\"http://www.w3.org/1999/xhtml\"><table class=\"hl7__eu__lab__report\"><tr><th>Test</th><th>23-Nov-2023</th><th>Reference&#xA0;Range</th><th>Unit</th></tr><tr><td>Leukocyte esterase [Presence] in Urine by Test strip</td></tr></table></div>"
        },
        "status": "final",
        "subject": {
          "reference": "urn:uuid:14d8a655-ae76-4a89-9430-d1da8acb7d84",
          "display": "Pelayo Casal"
        },
        "effectiveDateTime": "2023-11-23T05:38:59Z",
        "specimen": {
          "reference": "urn:uuid:9c970377-3a77-4b29-a2bb-ea17cb1acdd6"
        }
      }
    },
    {
      "fullUrl": "urn:uuid:0a7f0b35-4fdc-4312-991d-489d88690c2e",
      "resource": {
        "resourceType": "Observation",
        "id": "0a7f0b35-4fdc-4312-991d-489d88690c2e",
        "meta": {
          "profile": [
            "http://hl7.eu/fhir/laboratory/StructureDefinition/Observation-resultslab-eu-lab"
          ]
        },
        "performer": [
          {
            "display": "The Central European Lab"
          }
        ],
        "category": [
          {
            "coding": [
              {
                "system": "http://terminology.hl7.org/CodeSystem/observation-category",
                "code": "laboratory"
              }
            ]
          }
        ],
        "code": {
          "coding": [
            {
              "code": "4548-4",
              "system": "http://loinc.org",
              "display": "Hemoglobin A1c/Hemoglobin.total in Blood"
            }
          ],
          "text": "Hemoglobin A1c/Hemoglobin.total in Blood"
        },
        "valueQuantity": {
          "system": "http://unitsofmeasure.org",
          "value": 3.4,
          "unit": "%",
          "code": "%"
        },
        "referenceRange": [
          {
            "low": {
              "value": 4.5,
              "code": "%",
              "system": "http://unitsofmeasure.org"
            }
          },
          {
            "high": {
              "value": 6.4,
              "code": "%",
              "system": "http://unitsofmeasure.org"
            }
          }
        ],
        "interpretation": [
          {
            "coding": [
              {
                "code": "L",
                "system": "http://terminology.hl7.org/CodeSystem/v3-ObservationInterpretation",
                "display": "Low"
              }
            ]
          }
        ],
        "text": {
          "status": "generated",
          "div": "<div xmlns=\"http://www.w3.org/1999/xhtml\"><table class=\"hl7__eu__lab__report\"><tr><th>Test</th><th>23-Nov-2023</th><th>Reference&#xA0;Range</th><th>Unit</th></tr><tr><td>Hemoglobin A1c/Hemoglobin.total in Blood</td><td>3.4</td><td>4.5 - 6.4</td><td>L</td><td>%</td></tr></table></div>"
        },
        "status": "final",
        "subject": {
          "reference": "urn:uuid:14d8a655-ae76-4a89-9430-d1da8acb7d84",
          "display": "Pelayo Casal"
        },
        "effectiveDateTime": "2023-11-23T05:38:59Z",
        "specimen": {
          "reference": "urn:uuid:61caa3e5-4494-4e88-9383-3a0ba01e3b0a"
        }
      }
    },
    {
      "fullUrl": "urn:uuid:a25db5bb-992b-4f19-8a8d-df6ebc13c881",
      "resource": {
        "resourceType": "Observation",
        "id": "a25db5bb-992b-4f19-8a8d-df6ebc13c881",
        "meta": {
          "profile": [
            "http://hl7.eu/fhir/laboratory/StructureDefinition/Observation-resultslab-eu-lab"
          ]
        },
        "performer": [
          {
            "display": "The Central European Lab"
          }
        ],
        "category": [
          {
            "coding": [
              {
                "system": "http://terminology.hl7.org/CodeSystem/observation-category",
                "code": "laboratory"
              }
            ]
          }
        ],
        "code": {
          "coding": [
            {
              "code": "2339-0",
              "system": "http://loinc.org",
              "display": "Glucose [Mass/volume] in Blood"
            }
          ],
          "text": "Glucose [Mass/volume] in Blood"
        },
        "valueQuantity": {
          "system": "http://unitsofmeasure.org",
          "value": 95.2,
          "unit": "mg/dL",
          "code": "mg/dL"
        },
        "referenceRange": [
          {
            "low": {
              "value": 70,
              "code": "mg/dL",
              "system": "http://unitsofmeasure.org"
            }
          },
          {
            "high": {
              "value": 140,
              "code": "mg/dL",
              "system": "http://unitsofmeasure.org"
            }
          }
        ],
        "text": {
          "status": "generated",
          "div": "<div xmlns=\"http://www.w3.org/1999/xhtml\"><table class=\"hl7__eu__lab__report\"><tr><th>Test</th><th>23-Nov-2023</th><th>Reference&#xA0;Range</th><th>Unit</th></tr><tr><td>Glucose [Mass/volume] in Blood</td><td>95.2</td><td>70 - 140</td><td></td><td>mg/dL</td></tr></table></div>"
        },
        "status": "final",
        "subject": {
          "reference": "urn:uuid:14d8a655-ae76-4a89-9430-d1da8acb7d84",
          "display": "Pelayo Casal"
        },
        "effectiveDateTime": "2023-11-23T05:38:59Z",
        "specimen": {
          "reference": "urn:uuid:61caa3e5-4494-4e88-9383-3a0ba01e3b0a"
        }
      }
    },
    {
      "fullUrl": "urn:uuid:75914781-9f92-44b0-a07d-29b4dffc8c8e",
      "resource": {
        "resourceType": "Observation",
        "id": "75914781-9f92-44b0-a07d-29b4dffc8c8e",
        "meta": {
          "profile": [
            "http://hl7.eu/fhir/laboratory/StructureDefinition/Observation-resultslab-eu-lab"
          ]
        },
        "performer": [
          {
            "display": "The Central European Lab"
          }
        ],
        "category": [
          {
            "coding": [
              {
                "system": "http://terminology.hl7.org/CodeSystem/observation-category",
                "code": "laboratory"
              }
            ]
          }
        ],
        "code": {
          "coding": [
            {
              "code": "6299-2",
              "system": "http://loinc.org",
              "display": "Urea nitrogen [Mass/volume] in Blood"
            }
          ],
          "text": "Urea nitrogen [Mass/volume] in Blood"
        },
        "valueQuantity": {
          "system": "http://unitsofmeasure.org",
          "value": 15.5,
          "unit": "mg/dL",
          "code": "mg/dL"
        },
        "referenceRange": [
          {
            "low": {
              "value": 7,
              "code": "mg/dL",
              "system": "http://unitsofmeasure.org"
            }
          },
          {
            "high": {
              "value": 25,
              "code": "mg/dL",
              "system": "http://unitsofmeasure.org"
            }
          }
        ],
        "text": {
          "status": "generated",
          "div": "<div xmlns=\"http://www.w3.org/1999/xhtml\"><table class=\"hl7__eu__lab__report\"><tr><th>Test</th><th>23-Nov-2023</th><th>Reference&#xA0;Range</th><th>Unit</th></tr><tr><td>Urea nitrogen [Mass/volume] in Blood</td><td>15.5</td><td>7 - 25</td><td></td><td>mg/dL</td></tr></table></div>"
        },
        "status": "final",
        "subject": {
          "reference": "urn:uuid:14d8a655-ae76-4a89-9430-d1da8acb7d84",
          "display": "Pelayo Casal"
        },
        "effectiveDateTime": "2023-11-23T05:38:59Z",
        "specimen": {
          "reference": "urn:uuid:61caa3e5-4494-4e88-9383-3a0ba01e3b0a"
        }
      }
    },
    {
      "fullUrl": "urn:uuid:7b9ec121-b585-49c1-a502-33737f37fe0c",
      "resource": {
        "resourceType": "Observation",
        "id": "7b9ec121-b585-49c1-a502-33737f37fe0c",
        "meta": {
          "profile": [
            "http://hl7.eu/fhir/laboratory/StructureDefinition/Observation-resultslab-eu-lab"
          ]
        },
        "performer": [
          {
            "display": "The Central European Lab"
          }
        ],
        "category": [
          {
            "coding": [
              {
                "system": "http://terminology.hl7.org/CodeSystem/observation-category",
                "code": "laboratory"
              }
            ]
          }
        ],
        "code": {
          "coding": [
            {
              "code": "38483-4",
              "system": "http://loinc.org",
              "display": "Creatinine [Mass/volume] in Blood"
            }
          ],
          "text": "Creatinine [Mass/volume] in Blood"
        },
        "valueQuantity": {
          "system": "http://unitsofmeasure.org",
          "value": 1.9,
          "unit": "mg/dL",
          "code": "mg/dL"
        },
        "referenceRange": [
          {
            "low": {
              "value": 0.9,
              "code": "mg/dL",
              "system": "http://unitsofmeasure.org"
            }
          },
          {
            "high": {
              "value": 1.3,
              "code": "mg/dL",
              "system": "http://unitsofmeasure.org"
            }
          }
        ],
        "interpretation": [
          {
            "coding": [
              {
                "code": "H",
                "system": "http://terminology.hl7.org/CodeSystem/v3-ObservationInterpretation",
                "display": "High"
              }
            ]
          }
        ],
        "text": {
          "status": "generated",
          "div": "<div xmlns=\"http://www.w3.org/1999/xhtml\"><table class=\"hl7__eu__lab__report\"><tr><th>Test</th><th>23-Nov-2023</th><th>Reference&#xA0;Range</th><th>Unit</th></tr><tr><td>Creatinine [Mass/volume] in Blood</td><td>1.9</td><td>0.9 - 1.3</td><td>H</td><td>mg/dL</td></tr></table></div>"
        },
        "status": "final",
        "subject": {
          "reference": "urn:uuid:14d8a655-ae76-4a89-9430-d1da8acb7d84",
          "display": "Pelayo Casal"
        },
        "effectiveDateTime": "2023-11-23T05:38:59Z",
        "specimen": {
          "reference": "urn:uuid:61caa3e5-4494-4e88-9383-3a0ba01e3b0a"
        }
      }
    },
    {
      "fullUrl": "urn:uuid:cc592a31-504b-409e-880d-163640ee0e58",
      "resource": {
        "resourceType": "Observation",
        "id": "cc592a31-504b-409e-880d-163640ee0e58",
        "meta": {
          "profile": [
            "http://hl7.eu/fhir/laboratory/StructureDefinition/Observation-resultslab-eu-lab"
          ]
        },
        "performer": [
          {
            "display": "The Central European Lab"
          }
        ],
        "category": [
          {
            "coding": [
              {
                "system": "http://terminology.hl7.org/CodeSystem/observation-category",
                "code": "laboratory"
              }
            ]
          }
        ],
        "code": {
          "coding": [
            {
              "code": "49765-1",
              "system": "http://loinc.org",
              "display": "Calcium [Mass/volume] in Blood"
            }
          ],
          "text": "Calcium [Mass/volume] in Blood"
        },
        "valueQuantity": {
          "system": "http://unitsofmeasure.org",
          "value": 8.6,
          "unit": "mg/dL",
          "code": "mg/dL"
        },
        "referenceRange": [
          {
            "low": {
              "value": 8.6,
              "code": "mg/dL",
              "system": "http://unitsofmeasure.org"
            }
          },
          {
            "high": {
              "value": 10.2,
              "code": "mg/dL",
              "system": "http://unitsofmeasure.org"
            }
          }
        ],
        "text": {
          "status": "generated",
          "div": "<div xmlns=\"http://www.w3.org/1999/xhtml\"><table class=\"hl7__eu__lab__report\"><tr><th>Test</th><th>23-Nov-2023</th><th>Reference&#xA0;Range</th><th>Unit</th></tr><tr><td>Calcium [Mass/volume] in Blood</td><td>8.6</td><td>8.6 - 10.2</td><td></td><td>mg/dL</td></tr></table></div>"
        },
        "status": "final",
        "subject": {
          "reference": "urn:uuid:14d8a655-ae76-4a89-9430-d1da8acb7d84",
          "display": "Pelayo Casal"
        },
        "effectiveDateTime": "2023-11-23T05:38:59Z",
        "specimen": {
          "reference": "urn:uuid:61caa3e5-4494-4e88-9383-3a0ba01e3b0a"
        }
      }
    },
    {
      "fullUrl": "urn:uuid:de62030d-76c6-4598-bbca-3a3cd35cb6d4",
      "resource": {
        "resourceType": "Observation",
        "id": "de62030d-76c6-4598-bbca-3a3cd35cb6d4",
        "meta": {
          "profile": [
            "http://hl7.eu/fhir/laboratory/StructureDefinition/Observation-resultslab-eu-lab"
          ]
        },
        "performer": [
          {
            "display": "The Central European Lab"
          }
        ],
        "category": [
          {
            "coding": [
              {
                "system": "http://terminology.hl7.org/CodeSystem/observation-category",
                "code": "laboratory"
              }
            ]
          }
        ],
        "code": {
          "coding": [
            {
              "code": "2947-0",
              "system": "http://loinc.org",
              "display": "Sodium [Moles/volume] in Blood"
            }
          ],
          "text": "Sodium [Moles/volume] in Blood"
        },
        "valueQuantity": {
          "system": "http://unitsofmeasure.org",
          "value": 143.3,
          "unit": "mmol/L",
          "code": "mmol/L"
        },
        "referenceRange": [
          {
            "low": {
              "value": 135,
              "code": "mmol/L",
              "system": "http://unitsofmeasure.org"
            }
          },
          {
            "high": {
              "value": 145,
              "code": "mmol/L",
              "system": "http://unitsofmeasure.org"
            }
          }
        ],
        "text": {
          "status": "generated",
          "div": "<div xmlns=\"http://www.w3.org/1999/xhtml\"><table class=\"hl7__eu__lab__report\"><tr><th>Test</th><th>23-Nov-2023</th><th>Reference&#xA0;Range</th><th>Unit</th></tr><tr><td>Sodium [Moles/volume] in Blood</td><td>143.3</td><td>135 - 145</td><td></td><td>mmol/L</td></tr></table></div>"
        },
        "status": "final",
        "subject": {
          "reference": "urn:uuid:14d8a655-ae76-4a89-9430-d1da8acb7d84",
          "display": "Pelayo Casal"
        },
        "effectiveDateTime": "2023-11-23T05:38:59Z",
        "specimen": {
          "reference": "urn:uuid:61caa3e5-4494-4e88-9383-3a0ba01e3b0a"
        }
      }
    },
    {
      "fullUrl": "urn:uuid:6ca159d4-aebc-44a8-8f1d-f628912bc78b",
      "resource": {
        "resourceType": "Observation",
        "id": "6ca159d4-aebc-44a8-8f1d-f628912bc78b",
        "meta": {
          "profile": [
            "http://hl7.eu/fhir/laboratory/StructureDefinition/Observation-resultslab-eu-lab"
          ]
        },
        "performer": [
          {
            "display": "The Central European Lab"
          }
        ],
        "category": [
          {
            "coding": [
              {
                "system": "http://terminology.hl7.org/CodeSystem/observation-category",
                "code": "laboratory"
              }
            ]
          }
        ],
        "code": {
          "coding": [
            {
              "code": "6298-4",
              "system": "http://loinc.org",
              "display": "Potassium [Moles/volume] in Blood"
            }
          ],
          "text": "Potassium [Moles/volume] in Blood"
        },
        "valueQuantity": {
          "system": "http://unitsofmeasure.org",
          "value": 4.3,
          "unit": "mmol/L",
          "code": "mmol/L"
        },
        "referenceRange": [
          {
            "low": {
              "value": 3.5,
              "code": "mmol/L",
              "system": "http://unitsofmeasure.org"
            }
          },
          {
            "high": {
              "value": 5.1,
              "code": "mmol/L",
              "system": "http://unitsofmeasure.org"
            }
          }
        ],
        "text": {
          "status": "generated",
          "div": "<div xmlns=\"http://www.w3.org/1999/xhtml\"><table class=\"hl7__eu__lab__report\"><tr><th>Test</th><th>23-Nov-2023</th><th>Reference&#xA0;Range</th><th>Unit</th></tr><tr><td>Potassium [Moles/volume] in Blood</td><td>4.3</td><td>3.5 - 5.1</td><td></td><td>mmol/L</td></tr></table></div>"
        },
        "status": "final",
        "subject": {
          "reference": "urn:uuid:14d8a655-ae76-4a89-9430-d1da8acb7d84",
          "display": "Pelayo Casal"
        },
        "effectiveDateTime": "2023-11-23T05:38:59Z",
        "specimen": {
          "reference": "urn:uuid:61caa3e5-4494-4e88-9383-3a0ba01e3b0a"
        }
      }
    },
    {
      "fullUrl": "urn:uuid:721031f9-5d1c-467a-b015-484ce361f493",
      "resource": {
        "resourceType": "Observation",
        "id": "721031f9-5d1c-467a-b015-484ce361f493",
        "meta": {
          "profile": [
            "http://hl7.eu/fhir/laboratory/StructureDefinition/Observation-resultslab-eu-lab"
          ]
        },
        "performer": [
          {
            "display": "The Central European Lab"
          }
        ],
        "category": [
          {
            "coding": [
              {
                "system": "http://terminology.hl7.org/CodeSystem/observation-category",
                "code": "laboratory"
              }
            ]
          }
        ],
        "code": {
          "coding": [
            {
              "code": "2069-3",
              "system": "http://loinc.org",
              "display": "Chloride [Moles/volume] in Blood"
            }
          ],
          "text": "Chloride [Moles/volume] in Blood"
        },
        "valueQuantity": {
          "system": "http://unitsofmeasure.org",
          "value": 108.3,
          "unit": "mmol/L",
          "code": "mmol/L"
        },
        "referenceRange": [
          {
            "low": {
              "value": 98,
              "code": "mmol/L",
              "system": "http://unitsofmeasure.org"
            }
          },
          {
            "high": {
              "value": 108,
              "code": "mmol/L",
              "system": "http://unitsofmeasure.org"
            }
          }
        ],
        "interpretation": [
          {
            "coding": [
              {
                "code": "H",
                "system": "http://terminology.hl7.org/CodeSystem/v3-ObservationInterpretation",
                "display": "High"
              }
            ]
          }
        ],
        "text": {
          "status": "generated",
          "div": "<div xmlns=\"http://www.w3.org/1999/xhtml\"><table class=\"hl7__eu__lab__report\"><tr><th>Test</th><th>23-Nov-2023</th><th>Reference&#xA0;Range</th><th>Unit</th></tr><tr><td>Chloride [Moles/volume] in Blood</td><td>108.3</td><td>98 - 108</td><td>H</td><td>mmol/L</td></tr></table></div>"
        },
        "status": "final",
        "subject": {
          "reference": "urn:uuid:14d8a655-ae76-4a89-9430-d1da8acb7d84",
          "display": "Pelayo Casal"
        },
        "effectiveDateTime": "2023-11-23T05:38:59Z",
        "specimen": {
          "reference": "urn:uuid:61caa3e5-4494-4e88-9383-3a0ba01e3b0a"
        }
      }
    },
    {
      "fullUrl": "urn:uuid:f5df322d-f2d9-44d1-85fa-20cc075d45a9",
      "resource": {
        "resourceType": "Observation",
        "id": "f5df322d-f2d9-44d1-85fa-20cc075d45a9",
        "meta": {
          "profile": [
            "http://hl7.eu/fhir/laboratory/StructureDefinition/Observation-resultslab-eu-lab"
          ]
        },
        "performer": [
          {
            "display": "The Central European Lab"
          }
        ],
        "category": [
          {
            "coding": [
              {
                "system": "http://terminology.hl7.org/CodeSystem/observation-category",
                "code": "laboratory"
              }
            ]
          }
        ],
        "code": {
          "coding": [
            {
              "code": "20565-8",
              "system": "http://loinc.org",
              "display": "Carbon dioxide, total [Moles/volume] in Blood"
            }
          ],
          "text": "Carbon dioxide, total [Moles/volume] in Blood"
        },
        "valueQuantity": {
          "system": "http://unitsofmeasure.org",
          "value": 23.6,
          "unit": "mmol/L",
          "code": "mmol/L"
        },
        "referenceRange": [
          {
            "low": {
              "value": 22,
              "code": "mmol/L",
              "system": "http://unitsofmeasure.org"
            }
          },
          {
            "high": {
              "value": 32,
              "code": "mmol/L",
              "system": "http://unitsofmeasure.org"
            }
          }
        ],
        "text": {
          "status": "generated",
          "div": "<div xmlns=\"http://www.w3.org/1999/xhtml\"><table class=\"hl7__eu__lab__report\"><tr><th>Test</th><th>23-Nov-2023</th><th>Reference&#xA0;Range</th><th>Unit</th></tr><tr><td>Carbon dioxide, total [Moles/volume] in Blood</td><td>23.6</td><td>22 - 32</td><td></td><td>mmol/L</td></tr></table></div>"
        },
        "status": "final",
        "subject": {
          "reference": "urn:uuid:14d8a655-ae76-4a89-9430-d1da8acb7d84",
          "display": "Pelayo Casal"
        },
        "effectiveDateTime": "2023-11-23T05:38:59Z",
        "specimen": {
          "reference": "urn:uuid:61caa3e5-4494-4e88-9383-3a0ba01e3b0a"
        }
      }
    },
    {
      "fullUrl": "urn:uuid:f56f08cd-fefb-4b3b-8108-89892384dc2d",
      "resource": {
        "resourceType": "Device",
        "id": "f56f08cd-fefb-4b3b-8108-89892384dc2d",
        "deviceName": [
          {
            "name": "SYNDERAI Synthetic Generator",
            "type": "manufacturer-name"
          }
        ],
        "version": [
          {
            "value": "5.0"
          }
        ],
        "text": {
          "status": "generated",
          "div": "<div xmlns=\"http://www.w3.org/1999/xhtml\">SYNDERAI Synthetic Generator v5.0</div>"
        },
        "status": "active\"",
        "distinctIdentifier": "synderai-generator-50",
        "manufacturer": "SYNDERAI Project"
      }
    },
    {
      "fullUrl": "urn:uuid:7bb5a54d-d0a8-46c1-8f5c-e01c3b72db43",
      "resource": {
        "resourceType": "Provenance",
        "id": "7bb5a54d-d0a8-46c1-8f5c-e01c3b72db43",
        "target": [
          {
            "reference": "Patient/14d8a655-ae76-4a89-9430-d1da8acb7d84"
          },
          {
            "reference": "Bundle/babea5d7-5db9-407c-88f0-6d1695b166a2"
          },
          {
            "reference": "Composition/2296cc34-a6e6-4e49-b5d8-a0d62d61c6ed"
          },
          {
            "reference": "PractitionerRole/bed1bc0d-6025-43f2-8d8f-1d7917bc601a"
          },
          {
            "reference": "Practitioner/b925a219-5f26-4532-9713-6c692af3facc"
          },
          {
            "reference": "PractitionerRole/6b403524-f837-45d9-b8e6-268584d8a81d"
          },
          {
            "reference": "Organization/6813674f-e6d3-4515-a034-7c343f08b7f1"
          }
        ],
        "activity": {
          "text": "Synthetic Example Data Generation"
        },
        "policy": [
          "https://synderai.net/synderai-synthetic-data-policy"
        ],
        "agent": [
          {
            "type": {
              "text": "author"
            },
            "who": {
              "reference": "Device/f56f08cd-fefb-4b3b-8108-89892384dc2d"
            }
          }
        ],
        "reason": [
          {
            "text": "Interoperability Testing and Training (non-clinical use)"
          }
        ],
        "text": {
          "status": "generated",
          "div": "<div xmlns=\"http://www.w3.org/1999/xhtml\">Provenance for SYNDERAI Synthetic Example Data Resource</div>"
        },
        "recorded": "2023-11-23T06:38:59Z"
      }
    },
    {
      "fullUrl": "urn:uuid:bed1bc0d-6025-43f2-8d8f-1d7917bc601a",
      "resource": {
        "resourceType": "PractitionerRole",
        "id": "bed1bc0d-6025-43f2-8d8f-1d7917bc601a",
        "meta": {
          "profile": [
            "http://hl7.eu/fhir/base/StructureDefinition/practitionerRole-eu"
          ]
        },
        "text": {
          "status": "generated",
          "div": "<div xmlns=\"http://www.w3.org/1999/xhtml\">Laboratory Role Id: bed1bc0d-6025-43f2-8d8f-1d7917bc601a</div>"
        },
        "practitioner": {
          "reference": "urn:uuid:b925a219-5f26-4532-9713-6c692af3facc"
        }
      }
    },
    {
      "fullUrl": "urn:uuid:b925a219-5f26-4532-9713-6c692af3facc",
      "resource": {
        "resourceType": "Practitioner",
        "id": "b925a219-5f26-4532-9713-6c692af3facc",
        "meta": {
          "profile": [
            "http://hl7.eu/fhir/base/StructureDefinition/practitioner-eu"
          ]
        },
        "identifier": [
          {
            "assigner": {
              "display": "HL7 Europe"
            },
            "system": "urn:oid:2.16.840.1.113883.2.51.999",
            "value": "ed11cc11-6bd9-4162-8149-8946298431d9"
          }
        ],
        "name": [
          {
            "prefix": [
              "dr"
            ],
            "given": [
              "Ex"
            ],
            "family": "Ample"
          }
        ],
        "address": [
          {
            "line": [
              "Laboratoire Central Européenne",
              "Boulevard du Jardin Botanique 32"
            ],
            "postalCode": "1000",
            "city": "Brussels",
            "country": "Belgium"
          }
        ],
        "text": {
          "status": "generated",
          "div": "<div xmlns=\"http://www.w3.org/1999/xhtml\">Laboratory: Laboratoire Central Européenne, 1000 Brussels, Belgium</div>"
        }
      }
    }
  ],
  "type": "document",
  "timestamp": "2023-11-23T06:38:59Z"
}
