{
  "resourceType": "Bundle",
  "id": "a18cd099-6919-4a68-abd6-bbf5aa7864eb",
  "meta": {
    "profile": [
      "http://hl7.eu/fhir/laboratory/StructureDefinition/Bundle-eu-lab"
    ]
  },
  "identifier": {
    "assigner": {
      "display": "HL7 Europe"
    },
    "system": "urn:oid:2.16.840.1.113883.2.51.999",
    "value": "c1b9d823-cd3f-4a0c-9c31-658b328bdf3c"
  },
  "entry": [
    {
      "fullUrl": "urn:uuid:0da245a8-8a52-46c9-95c5-e21468a4eca1",
      "resource": {
        "resourceType": "Composition",
        "id": "0da245a8-8a52-46c9-95c5-e21468a4eca1",
        "meta": {
          "profile": [
            "http://hl7.eu/fhir/laboratory/StructureDefinition/Composition-eu-lab"
          ]
        },
        "identifier": {
          "assigner": {
            "display": "HL7 Europe"
          },
          "system": "urn:oid:2.16.840.1.113883.2.51.999",
          "value": "11e89ef1-bcd9-4cd3-a6b1-2e77dc75a1d1"
        },
        "author": [
          {
            "reference": "urn:uuid:b12be21e-6d8d-4e5e-ba97-14283915af58"
          }
        ],
        "category": [
          {
            "coding": [
              {
                "code": "26436-6",
                "system": "http://loinc.org",
                "display": "Laboratory studies (set)"
              }
            ]
          }
        ],
        "type": {
          "coding": [
            {
              "code": "11502-2",
              "system": "http://loinc.org",
              "display": "Laboratory report"
            }
          ],
          "text": "Laboratory Report"
        },
        "section": [
          {
            "code": {
              "coding": [
                {
                  "code": "26436-6",
                  "system": "http://loinc.org",
                  "display": "Laboratory studies (set)"
                }
              ],
              "text": "Laboratory studies"
            },
            "section": [
              {
                "code": {
                  "coding": [
                    {
                      "code": "$18719-5",
                      "system": "http://loinc.org",
                      "display": "Chemistry studies (set)"
                    }
                  ],
                  "text": "Chemistry"
                },
                "entry": [
                  {
                    "reference": "urn:uuid:33fad548-7a51-4c90-977e-b24d0ad3c836"
                  },
                  {
                    "reference": "urn:uuid:cb8b69c0-69a3-4b64-b233-6efcb0973933"
                  },
                  {
                    "reference": "urn:uuid:013039e9-eaaa-4add-b337-45b19f419c83"
                  },
                  {
                    "reference": "urn:uuid:b60ed616-abf1-474c-a4c5-faaddfd9243d"
                  }
                ],
                "text": {
                  "status": "generated",
                  "div": "<div xmlns=\"http://www.w3.org/1999/xhtml\"><h3>Chemistry</h3><table class=\"hl7__eu__lab__report\"><thead><tr><th>Test</th><th>26-NOV-2020</th><th>Reference&#xA0;Range</th><th>Unit</th></tr></thead><tbody><tr><td>Cholesterol [Mass/volume] in Serum or Plasma</td><td>175.7</td><td>125 - 200</td><td>mg/dL</td></tr><tr><td>Triglyceride [Mass/volume] in Serum or Plasma</td><td>125.3</td><td>40 - 150</td><td>mg/dL</td></tr><tr><td>Cholesterol in LDL [Mass/volume] in Serum or Plasma by Direct assay</td><td>86.1</td><td>0 - 130</td><td>mg/dL</td></tr><tr><td>Cholesterol in HDL [Mass/volume] in Serum or Plasma</td><td><strong>64.5 H</strong></td><td>40 - 60</td><td>mg/dL</td></tr></tbody></table></div>"
                },
                "title": "Chemistry"
              }
            ],
            "title": "Laboratory Report"
          },
          {
            "text": {
              "status": "generated",
              "div": "<div xmlns=\"http://www.w3.org/1999/xhtml\"><h3>Annotation</h3><table class=\"hl7__eu__lab__report\"><tr><th>Conclusion and Recommendations based on this report and previous findings known to us</th></tr><tr><td>All lipid parameters are within or slightly above the normal range, with HDL cholesterol mildly elevated, which is generally considered protective. No evidence of dyslipidemia or increased cardiovascular risk from these results. No laboratory abnormalities requiring intervention.</td></tr></table></div>"
            },
            "code": {
              "coding": [
                {
                  "system": "http://loinc.org",
                  "code": "48767-8",
                  "display": "Annotation comment"
                }
              ]
            },
            "title": "Annotation comment"
          }
        ],
        "status": "final",
        "subject": {
          "reference": "urn:uuid:ccd5b16b-bce1-4833-acd5-95fb5750b26a",
          "display": "Alberto Manrique"
        },
        "date": "2020-11-26T11:32:27Z",
        "title": "Laboratory Report",
        "confidentiality": "N"
      }
    },
    {
      "fullUrl": "urn:uuid:ee1f8c98-998d-4334-9525-8a959afcfa66",
      "resource": {
        "resourceType": "DiagnosticReport",
        "id": "ee1f8c98-998d-4334-9525-8a959afcfa66",
        "meta": {
          "profile": [
            "http://hl7.eu/fhir/laboratory/StructureDefinition/DiagnosticReport-eu-lab"
          ]
        },
        "identifier": [
          {
            "assigner": {
              "display": "HL7 Europe"
            },
            "system": "urn:oid:2.16.840.1.113883.2.51.999",
            "value": "782aac81-321a-4eab-b91f-9d78d315dd6b"
          }
        ],
        "extension": [
          {
            "url": "http://hl7.org/fhir/5.0/StructureDefinition/extension-DiagnosticReport.composition",
            "valueReference": {
              "reference": "urn:uuid:11e89ef1-bcd9-4cd3-a6b1-2e77dc75a1d1"
            }
          }
        ],
        "category": [
          {
            "coding": [
              {
                "code": "26436-6",
                "system": "http://loinc.org",
                "display": "Laboratory studies (set)"
              }
            ]
          }
        ],
        "specimen": [
          {
            "reference": "urn:uuid:e2b11a0d-8e94-4c47-b98c-99231b4e2f61"
          }
        ],
        "result": [
          {
            "reference": "urn:uuid:33fad548-7a51-4c90-977e-b24d0ad3c836"
          },
          {
            "reference": "urn:uuid:cb8b69c0-69a3-4b64-b233-6efcb0973933"
          },
          {
            "reference": "urn:uuid:013039e9-eaaa-4add-b337-45b19f419c83"
          },
          {
            "reference": "urn:uuid:b60ed616-abf1-474c-a4c5-faaddfd9243d"
          }
        ],
        "status": "registered",
        "code": {
          "coding": [
            {
              "code": "11502-2",
              "system": "http://loinc.org",
              "display": "Laboratory report"
            }
          ]
        },
        "subject": {
          "reference": "urn:uuid:ccd5b16b-bce1-4833-acd5-95fb5750b26a",
          "display": "Alberto Manrique"
        }
      }
    },
    {
      "fullUrl": "urn:uuid:ccd5b16b-bce1-4833-acd5-95fb5750b26a",
      "resource": {
        "resourceType": "Patient",
        "id": "ccd5b16b-bce1-4833-acd5-95fb5750b26a",
        "meta": {
          "security": [
            {
              "system": "http://terminology.hl7.org/CodeSystem/v3-ActReason",
              "code": "HTEST"
            },
            {
              "system": "http://terminology.hl7.org/CodeSystem/v3-ActReason",
              "code": "TRAIN"
            }
          ],
          "tag": [
            {
              "system": "https://synderai.net/fhir/CodeSystem/tags",
              "code": "synthetic",
              "display": "SYNDERAI Synthetic data"
            }
          ],
          "profile": [
            "http://hl7.eu/fhir/base/StructureDefinition/patient-eu-core"
          ]
        },
        "identifier": [
          {
            "type": {
              "coding": [
                {
                  "code": "PT",
                  "system": "http://terminology.hl7.org/CodeSystem/v2-0203"
                }
              ]
            },
            "system": "http://ec.europa.eu/identifier/eci",
            "value": "7218-581842-3"
          },
          {
            "type": {
              "coding": [
                {
                  "code": "MR",
                  "system": "http://terminology.hl7.org/CodeSystem/v2-0203"
                }
              ]
            },
            "system": "http://local.setting.eu/identifier",
            "value": "b6afc1e6-e260-fa0e-a335-1699bedecb9b"
          }
        ],
        "name": [
          {
            "family": "Manrique"
          },
          {
            "given": [
              "Alberto"
            ]
          },
          {
            "text": "Alberto Manrique"
          }
        ],
        "address": [
          {
            "line": [
              "Pasaje de Elisabet Rey 25"
            ],
            "use": "home",
            "type": "physical",
            "postalCode": "47001",
            "city": "Valladolid",
            "country": "Spain"
          }
        ],
        "telecom": [
          {
            "system": "phone",
            "value": "+34 827 76 55 59"
          }
        ],
        "extension": [
          {
            "url": "http://hl7.org/fhir/StructureDefinition/patient-nationality",
            "valueCodeableConcept": {
              "coding": [
                {
                  "code": "ES",
                  "system": "http://hl7.org/fhir/ValueSet/country"
                }
              ]
            }
          }
        ],
        "text": {
          "status": "generated",
          "div": "<div xmlns=\"http://www.w3.org/1999/xhtml\"><table class=\"hl7__ips\"><tr><td>Alberto Manrique</td><td>male</td><td>05-Apr-1993</td></tr></table></div>"
        },
        "gender": "male",
        "birthDate": "1993-04-05"
      }
    },
    {
      "fullUrl": "urn:uuid:443cd1c4-832c-422e-9041-ffa5722e259f",
      "resource": {
        "resourceType": "ServiceRequest",
        "id": "443cd1c4-832c-422e-9041-ffa5722e259f",
        "meta": {
          "profile": [
            "http://hl7.eu/fhir/laboratory/StructureDefinition/ServiceRequest-eu-lab"
          ]
        },
        "identifier": [
          {
            "system": "http://example.org",
            "value": "b6a12888-8533-44b0-9bcc-b98d1e993c98"
          }
        ],
        "specimen": [
          {
            "reference": "urn:uuid:e2b11a0d-8e94-4c47-b98c-99231b4e2f61"
          }
        ],
        "reasonCode": [
          {
            "coding": [
              {
                "code": "59621000",
                "system": "http://snomed.info/sct",
                "display": "Essential hypertension"
              }
            ]
          }
        ],
        "status": "active",
        "intent": "order",
        "code": {
          "coding": [
            {
              "code": "108252007",
              "system": "http://snomed.info/sct",
              "display": "Laboratory procedure"
            }
          ]
        },
        "subject": {
          "reference": "urn:uuid:ccd5b16b-bce1-4833-acd5-95fb5750b26a",
          "display": "Alberto Manrique"
        },
        "requester": {
          "reference": "urn:uuid:1ca324c7-c494-4038-b582-8822129a16e1"
        }
      }
    },
    {
      "fullUrl": "urn:uuid:1ca324c7-c494-4038-b582-8822129a16e1",
      "resource": {
        "resourceType": "PractitionerRole",
        "id": "1ca324c7-c494-4038-b582-8822129a16e1",
        "meta": {
          "profile": [
            "http://hl7.eu/fhir/base/StructureDefinition/practitionerRole-eu"
          ]
        },
        "text": {
          "status": "generated",
          "div": "<div xmlns=\"http://www.w3.org/1999/xhtml\">Provider Role Id: 1ca324c7-c494-4038-b582-8822129a16e1</div>"
        },
        "organization": {
          "reference": "urn:uuid:37e84f7a-8384-4690-ac3b-fd45c3f1ebd0"
        }
      }
    },
    {
      "fullUrl": "urn:uuid:37e84f7a-8384-4690-ac3b-fd45c3f1ebd0",
      "resource": {
        "resourceType": "Organization",
        "id": "37e84f7a-8384-4690-ac3b-fd45c3f1ebd0",
        "meta": {
          "profile": [
            "http://hl7.eu/fhir/base/StructureDefinition/organization-eu"
          ]
        },
        "identifier": [
          {
            "assigner": {
              "display": "HL7 Europe"
            },
            "system": "urn:oid:2.16.840.1.113883.2.51.999",
            "value": "bd54f83f-916e-4877-a678-55c318cf8f62"
          }
        ],
        "address": [
          {
            "line": [
              "Calle de la Estación del Norte nan"
            ],
            "city": "Valladolid",
            "postalCode": "47007",
            "country": "Spain"
          }
        ],
        "text": {
          "status": "generated",
          "div": "<div xmlns=\"http://www.w3.org/1999/xhtml\">Provider Organization: Hospital Recoletas Campo Grande</div>"
        },
        "name": "Hospital Recoletas Campo Grande"
      }
    },
    {
      "fullUrl": "urn:uuid:e2b11a0d-8e94-4c47-b98c-99231b4e2f61",
      "resource": {
        "resourceType": "Specimen",
        "id": "e2b11a0d-8e94-4c47-b98c-99231b4e2f61",
        "meta": {
          "profile": [
            "http://hl7.eu/fhir/laboratory/StructureDefinition/Specimen-eu-lab"
          ]
        },
        "collection": {
          "collectedDateTime": "2020-11-26"
        },
        "text": {
          "status": "generated",
          "div": "<div xmlns=\"http://www.w3.org/1999/xhtml\"><table class=\"hl7__eu__lab__report\"><tr><th>Specimen</th><th>Collection Date</th></tr><tr><td>Acellular blood (serum or plasma) specimen</td><td><span class=\"nb\">26-Nov-2020</span></td></tr></table></div>"
        },
        "type": {
          "coding": [
            {
              "code": "122592007",
              "system": "http://snomed.info/sct",
              "display": "Acellular blood (serum or plasma) specimen"
            }
          ]
        }
      }
    },
    {
      "fullUrl": "urn:uuid:33fad548-7a51-4c90-977e-b24d0ad3c836",
      "resource": {
        "resourceType": "Observation",
        "id": "33fad548-7a51-4c90-977e-b24d0ad3c836",
        "meta": {
          "profile": [
            "http://hl7.eu/fhir/laboratory/StructureDefinition/Observation-resultslab-eu-lab"
          ]
        },
        "performer": [
          {
            "display": "The Central European Lab"
          }
        ],
        "category": [
          {
            "coding": [
              {
                "system": "http://terminology.hl7.org/CodeSystem/observation-category",
                "code": "laboratory"
              }
            ]
          }
        ],
        "code": {
          "coding": [
            {
              "code": "2093-3",
              "system": "http://loinc.org",
              "display": "Cholesterol [Mass/volume] in Serum or Plasma"
            }
          ],
          "text": "Cholesterol [Mass/volume] in Serum or Plasma"
        },
        "valueQuantity": {
          "system": "http://unitsofmeasure.org",
          "value": 175.7,
          "unit": "mg/dL",
          "code": "mg/dL"
        },
        "referenceRange": [
          {
            "low": {
              "value": 125,
              "code": "mg/dL",
              "system": "http://unitsofmeasure.org"
            }
          },
          {
            "high": {
              "value": 200,
              "code": "mg/dL",
              "system": "http://unitsofmeasure.org"
            }
          }
        ],
        "text": {
          "status": "generated",
          "div": "<div xmlns=\"http://www.w3.org/1999/xhtml\"><table class=\"hl7__eu__lab__report\"><tr><th>Test</th><th>26-Nov-2020</th><th>Reference&#xA0;Range</th><th>Unit</th></tr><tr><td>Cholesterol [Mass/volume] in Serum or Plasma</td><td>175.7</td><td>125 - 200</td><td></td><td>mg/dL</td></tr></table></div>"
        },
        "status": "final",
        "subject": {
          "reference": "urn:uuid:ccd5b16b-bce1-4833-acd5-95fb5750b26a",
          "display": "Alberto Manrique"
        },
        "effectiveDateTime": "2020-11-26T10:32:27Z",
        "specimen": {
          "reference": "urn:uuid:e2b11a0d-8e94-4c47-b98c-99231b4e2f61"
        }
      }
    },
    {
      "fullUrl": "urn:uuid:cb8b69c0-69a3-4b64-b233-6efcb0973933",
      "resource": {
        "resourceType": "Observation",
        "id": "cb8b69c0-69a3-4b64-b233-6efcb0973933",
        "meta": {
          "profile": [
            "http://hl7.eu/fhir/laboratory/StructureDefinition/Observation-resultslab-eu-lab"
          ]
        },
        "performer": [
          {
            "display": "The Central European Lab"
          }
        ],
        "category": [
          {
            "coding": [
              {
                "system": "http://terminology.hl7.org/CodeSystem/observation-category",
                "code": "laboratory"
              }
            ]
          }
        ],
        "code": {
          "coding": [
            {
              "code": "2571-8",
              "system": "http://loinc.org",
              "display": "Triglyceride [Mass/volume] in Serum or Plasma"
            }
          ],
          "text": "Triglyceride [Mass/volume] in Serum or Plasma"
        },
        "valueQuantity": {
          "system": "http://unitsofmeasure.org",
          "value": 125.3,
          "unit": "mg/dL",
          "code": "mg/dL"
        },
        "referenceRange": [
          {
            "low": {
              "value": 40,
              "code": "mg/dL",
              "system": "http://unitsofmeasure.org"
            }
          },
          {
            "high": {
              "value": 150,
              "code": "mg/dL",
              "system": "http://unitsofmeasure.org"
            }
          }
        ],
        "text": {
          "status": "generated",
          "div": "<div xmlns=\"http://www.w3.org/1999/xhtml\"><table class=\"hl7__eu__lab__report\"><tr><th>Test</th><th>26-Nov-2020</th><th>Reference&#xA0;Range</th><th>Unit</th></tr><tr><td>Triglyceride [Mass/volume] in Serum or Plasma</td><td>125.3</td><td>40 - 150</td><td></td><td>mg/dL</td></tr></table></div>"
        },
        "status": "final",
        "subject": {
          "reference": "urn:uuid:ccd5b16b-bce1-4833-acd5-95fb5750b26a",
          "display": "Alberto Manrique"
        },
        "effectiveDateTime": "2020-11-26T10:32:27Z",
        "specimen": {
          "reference": "urn:uuid:e2b11a0d-8e94-4c47-b98c-99231b4e2f61"
        }
      }
    },
    {
      "fullUrl": "urn:uuid:013039e9-eaaa-4add-b337-45b19f419c83",
      "resource": {
        "resourceType": "Observation",
        "id": "013039e9-eaaa-4add-b337-45b19f419c83",
        "meta": {
          "profile": [
            "http://hl7.eu/fhir/laboratory/StructureDefinition/Observation-resultslab-eu-lab"
          ]
        },
        "performer": [
          {
            "display": "The Central European Lab"
          }
        ],
        "category": [
          {
            "coding": [
              {
                "system": "http://terminology.hl7.org/CodeSystem/observation-category",
                "code": "laboratory"
              }
            ]
          }
        ],
        "code": {
          "coding": [
            {
              "code": "18262-6",
              "system": "http://loinc.org",
              "display": "Cholesterol in LDL [Mass/volume] in Serum or Plasma by Direct assay"
            }
          ],
          "text": "Cholesterol in LDL [Mass/volume] in Serum or Plasma by Direct assay"
        },
        "valueQuantity": {
          "system": "http://unitsofmeasure.org",
          "value": 86.1,
          "unit": "mg/dL",
          "code": "mg/dL"
        },
        "referenceRange": [
          {
            "low": {
              "value": 0,
              "code": "mg/dL",
              "system": "http://unitsofmeasure.org"
            }
          },
          {
            "high": {
              "value": 130,
              "code": "mg/dL",
              "system": "http://unitsofmeasure.org"
            }
          }
        ],
        "text": {
          "status": "generated",
          "div": "<div xmlns=\"http://www.w3.org/1999/xhtml\"><table class=\"hl7__eu__lab__report\"><tr><th>Test</th><th>26-Nov-2020</th><th>Reference&#xA0;Range</th><th>Unit</th></tr><tr><td>Cholesterol in LDL [Mass/volume] in Serum or Plasma by Direct assay</td><td>86.1</td><td>0 - 130</td><td></td><td>mg/dL</td></tr></table></div>"
        },
        "status": "final",
        "subject": {
          "reference": "urn:uuid:ccd5b16b-bce1-4833-acd5-95fb5750b26a",
          "display": "Alberto Manrique"
        },
        "effectiveDateTime": "2020-11-26T10:32:27Z",
        "specimen": {
          "reference": "urn:uuid:e2b11a0d-8e94-4c47-b98c-99231b4e2f61"
        }
      }
    },
    {
      "fullUrl": "urn:uuid:b60ed616-abf1-474c-a4c5-faaddfd9243d",
      "resource": {
        "resourceType": "Observation",
        "id": "b60ed616-abf1-474c-a4c5-faaddfd9243d",
        "meta": {
          "profile": [
            "http://hl7.eu/fhir/laboratory/StructureDefinition/Observation-resultslab-eu-lab"
          ]
        },
        "performer": [
          {
            "display": "The Central European Lab"
          }
        ],
        "category": [
          {
            "coding": [
              {
                "system": "http://terminology.hl7.org/CodeSystem/observation-category",
                "code": "laboratory"
              }
            ]
          }
        ],
        "code": {
          "coding": [
            {
              "code": "2085-9",
              "system": "http://loinc.org",
              "display": "Cholesterol in HDL [Mass/volume] in Serum or Plasma"
            }
          ],
          "text": "Cholesterol in HDL [Mass/volume] in Serum or Plasma"
        },
        "valueQuantity": {
          "system": "http://unitsofmeasure.org",
          "value": 64.5,
          "unit": "mg/dL",
          "code": "mg/dL"
        },
        "referenceRange": [
          {
            "low": {
              "value": 40,
              "code": "mg/dL",
              "system": "http://unitsofmeasure.org"
            }
          },
          {
            "high": {
              "value": 60,
              "code": "mg/dL",
              "system": "http://unitsofmeasure.org"
            }
          }
        ],
        "interpretation": [
          {
            "coding": [
              {
                "code": "H",
                "system": "http://terminology.hl7.org/CodeSystem/v3-ObservationInterpretation",
                "display": "High"
              }
            ]
          }
        ],
        "text": {
          "status": "generated",
          "div": "<div xmlns=\"http://www.w3.org/1999/xhtml\"><table class=\"hl7__eu__lab__report\"><tr><th>Test</th><th>26-Nov-2020</th><th>Reference&#xA0;Range</th><th>Unit</th></tr><tr><td>Cholesterol in HDL [Mass/volume] in Serum or Plasma</td><td>64.5</td><td>40 - 60</td><td>H</td><td>mg/dL</td></tr></table></div>"
        },
        "status": "final",
        "subject": {
          "reference": "urn:uuid:ccd5b16b-bce1-4833-acd5-95fb5750b26a",
          "display": "Alberto Manrique"
        },
        "effectiveDateTime": "2020-11-26T10:32:27Z",
        "specimen": {
          "reference": "urn:uuid:e2b11a0d-8e94-4c47-b98c-99231b4e2f61"
        }
      }
    },
    {
      "fullUrl": "urn:uuid:cad2ea00-f634-4850-a877-dffcaec5c243",
      "resource": {
        "resourceType": "Device",
        "id": "cad2ea00-f634-4850-a877-dffcaec5c243",
        "deviceName": [
          {
            "name": "SYNDERAI Synthetic Generator",
            "type": "manufacturer-name"
          }
        ],
        "version": [
          {
            "value": "5.0"
          }
        ],
        "text": {
          "status": "generated",
          "div": "<div xmlns=\"http://www.w3.org/1999/xhtml\">SYNDERAI Synthetic Generator v5.0</div>"
        },
        "status": "active\"",
        "distinctIdentifier": "synderai-generator-50",
        "manufacturer": "SYNDERAI Project"
      }
    },
    {
      "fullUrl": "urn:uuid:330bb42b-2ce7-461e-8b9e-03928950dbc0",
      "resource": {
        "resourceType": "Provenance",
        "id": "330bb42b-2ce7-461e-8b9e-03928950dbc0",
        "target": [
          {
            "reference": "Patient/ccd5b16b-bce1-4833-acd5-95fb5750b26a"
          },
          {
            "reference": "Bundle/a18cd099-6919-4a68-abd6-bbf5aa7864eb"
          },
          {
            "reference": "Composition/0da245a8-8a52-46c9-95c5-e21468a4eca1"
          },
          {
            "reference": "PractitionerRole/b12be21e-6d8d-4e5e-ba97-14283915af58"
          },
          {
            "reference": "Practitioner/e51eabdb-0e16-4f26-a68d-31f843d7e18c"
          },
          {
            "reference": "PractitionerRole/1ca324c7-c494-4038-b582-8822129a16e1"
          },
          {
            "reference": "Organization/37e84f7a-8384-4690-ac3b-fd45c3f1ebd0"
          }
        ],
        "activity": {
          "text": "Synthetic Example Data Generation"
        },
        "policy": [
          "https://synderai.net/synderai-synthetic-data-policy"
        ],
        "agent": [
          {
            "type": {
              "text": "author"
            },
            "who": {
              "reference": "Device/cad2ea00-f634-4850-a877-dffcaec5c243"
            }
          }
        ],
        "reason": [
          {
            "text": "Interoperability Testing and Training (non-clinical use)"
          }
        ],
        "text": {
          "status": "generated",
          "div": "<div xmlns=\"http://www.w3.org/1999/xhtml\">Provenance for SYNDERAI Synthetic Example Data Resource</div>"
        },
        "recorded": "2020-11-26T11:32:27Z"
      }
    },
    {
      "fullUrl": "urn:uuid:b12be21e-6d8d-4e5e-ba97-14283915af58",
      "resource": {
        "resourceType": "PractitionerRole",
        "id": "b12be21e-6d8d-4e5e-ba97-14283915af58",
        "meta": {
          "profile": [
            "http://hl7.eu/fhir/base/StructureDefinition/practitionerRole-eu"
          ]
        },
        "text": {
          "status": "generated",
          "div": "<div xmlns=\"http://www.w3.org/1999/xhtml\">Laboratory Role Id: b12be21e-6d8d-4e5e-ba97-14283915af58</div>"
        },
        "practitioner": {
          "reference": "urn:uuid:e51eabdb-0e16-4f26-a68d-31f843d7e18c"
        }
      }
    },
    {
      "fullUrl": "urn:uuid:e51eabdb-0e16-4f26-a68d-31f843d7e18c",
      "resource": {
        "resourceType": "Practitioner",
        "id": "e51eabdb-0e16-4f26-a68d-31f843d7e18c",
        "meta": {
          "profile": [
            "http://hl7.eu/fhir/base/StructureDefinition/practitioner-eu"
          ]
        },
        "identifier": [
          {
            "assigner": {
              "display": "HL7 Europe"
            },
            "system": "urn:oid:2.16.840.1.113883.2.51.999",
            "value": "39afb24e-c68d-4318-a0e7-cdac39d3b6bf"
          }
        ],
        "name": [
          {
            "prefix": [
              "dr"
            ],
            "given": [
              "Ex"
            ],
            "family": "Ample"
          }
        ],
        "address": [
          {
            "line": [
              "Laboratoire Central Européenne",
              "Boulevard du Jardin Botanique 32"
            ],
            "postalCode": "1000",
            "city": "Brussels",
            "country": "Belgium"
          }
        ],
        "text": {
          "status": "generated",
          "div": "<div xmlns=\"http://www.w3.org/1999/xhtml\">Laboratory: Laboratoire Central Européenne, 1000 Brussels, Belgium</div>"
        }
      }
    }
  ],
  "type": "document",
  "timestamp": "2020-11-26T11:32:27Z"
}
