{
  "resourceType": "Bundle",
  "id": "d1311dcd-e9c3-4900-aec6-358877d656ed",
  "meta": {
    "profile": [
      "http://hl7.eu/fhir/laboratory/StructureDefinition/Bundle-eu-lab"
    ]
  },
  "identifier": {
    "assigner": {
      "display": "HL7 Europe"
    },
    "system": "urn:oid:2.16.840.1.113883.2.51.999",
    "value": "34d869b2-d171-4ac1-9ae6-0ef3ca38f5ef"
  },
  "entry": [
    {
      "fullUrl": "urn:uuid:a31bdeac-5610-4a31-a454-c64591010261",
      "resource": {
        "resourceType": "Composition",
        "id": "a31bdeac-5610-4a31-a454-c64591010261",
        "meta": {
          "profile": [
            "http://hl7.eu/fhir/laboratory/StructureDefinition/Composition-eu-lab"
          ]
        },
        "identifier": {
          "assigner": {
            "display": "HL7 Europe"
          },
          "system": "urn:oid:2.16.840.1.113883.2.51.999",
          "value": "f6ac10bc-4e80-4e7f-be2d-3dc237f1faec"
        },
        "author": [
          {
            "reference": "urn:uuid:784737ca-96c3-4678-b142-6397bb518739"
          }
        ],
        "category": [
          {
            "coding": [
              {
                "code": "26436-6",
                "system": "http://loinc.org",
                "display": "Laboratory studies (set)"
              }
            ]
          }
        ],
        "type": {
          "coding": [
            {
              "code": "11502-2",
              "system": "http://loinc.org",
              "display": "Laboratory report"
            }
          ],
          "text": "Laboratory Report"
        },
        "section": [
          {
            "code": {
              "coding": [
                {
                  "code": "26436-6",
                  "system": "http://loinc.org",
                  "display": "Laboratory studies (set)"
                }
              ],
              "text": "Laboratory studies"
            },
            "section": [
              {
                "code": {
                  "coding": [
                    {
                      "code": "$18719-5",
                      "system": "http://loinc.org",
                      "display": "Chemistry studies (set)"
                    }
                  ],
                  "text": "Chemistry"
                },
                "entry": [
                  {
                    "reference": "urn:uuid:7cb72991-caa8-4c3c-9be4-e6e4b4b48ce2"
                  },
                  {
                    "reference": "urn:uuid:d4287718-45e9-45d2-a9bf-ea33052c5a27"
                  },
                  {
                    "reference": "urn:uuid:d770638d-3f1c-49da-a5d7-fb89d57d93f9"
                  },
                  {
                    "reference": "urn:uuid:7eb68b15-d198-46af-bd0b-dbd1b7a73dbd"
                  },
                  {
                    "reference": "urn:uuid:9836e48b-fb48-4c6a-a730-3474a765aa7a"
                  },
                  {
                    "reference": "urn:uuid:b62d60c9-2c96-4ff4-81d7-a1e14f44f9d7"
                  },
                  {
                    "reference": "urn:uuid:5987dac9-3b63-41dd-84e2-d057fec0e28c"
                  },
                  {
                    "reference": "urn:uuid:b0741da3-b0b8-4c75-b538-27eed18336ac"
                  },
                  {
                    "reference": "urn:uuid:26e31b48-a637-4f24-aee2-c733feb6157b"
                  },
                  {
                    "reference": "urn:uuid:d8e09343-98ad-45a3-ae08-5f649a4f5c58"
                  }
                ],
                "text": {
                  "status": "generated",
                  "div": "<div xmlns=\"http://www.w3.org/1999/xhtml\"><h3>Chemistry</h3><table class=\"hl7__eu__lab__report\"><thead><tr><th>Test</th><th>07-JUN-2024</th><th>Reference&#xA0;Range</th><th>Unit</th></tr></thead><tbody><tr><td>Glucose [Mass/volume] in Serum or Plasma</td><td>90.6</td><td>70 - 140</td><td>mg/dL</td></tr><tr><td>Urea nitrogen [Mass/volume] in Serum or Plasma</td><td>13.0</td><td>7 - 20</td><td>mg/dL</td></tr><tr><td>Creatinine [Mass/volume] in Serum or Plasma</td><td><strong>2.0 H</strong></td><td>0.9 - 1.3</td><td>mg/dL</td></tr><tr><td>Calcium [Mass/volume] in Serum or Plasma</td><td>9.5</td><td>8.5 - 10.5</td><td>mg/dL</td></tr><tr><td>Sodium [Moles/volume] in Serum or Plasma</td><td>142.7</td><td>135 - 145</td><td>mmol/L</td></tr><tr><td>Potassium [Moles/volume] in Serum or Plasma</td><td>5.1</td><td>3.5 - 5.3</td><td>mmol/L</td></tr><tr><td>Chloride [Moles/volume] in Serum or Plasma</td><td>105.0</td><td>98 - 107</td><td>mmol/L</td></tr><tr><td>Carbon dioxide, total [Moles/volume] in Serum or Plasma</td><td>28.5</td><td>22 - 33</td><td>mmol/L</td></tr><tr><td>Ketones [Presence] in Urine by Test strip</td><td>Urine ketone test = ++</td><td></td><td></td></tr><tr><td>Hemoglobin A1c/Hemoglobin.total in Blood</td><td><strong>3.1 L</strong></td><td>4.3 - 6</td><td>%</td></tr></tbody></table></div>"
                },
                "title": "Chemistry"
              },
              {
                "code": {
                  "coding": [
                    {
                      "code": "$18729-4",
                      "system": "http://loinc.org",
                      "display": "Urinalysis studies (set)"
                    }
                  ],
                  "text": "Urinalysis"
                },
                "entry": [
                  {
                    "reference": "urn:uuid:10efc22e-41b0-459a-b3e6-2b2974690ec5"
                  },
                  {
                    "reference": "urn:uuid:b7257f3d-adbc-4edf-a3c3-88071e00feb1"
                  },
                  {
                    "reference": "urn:uuid:cec81e13-e577-489c-84b2-4b820d8fdb7a"
                  },
                  {
                    "reference": "urn:uuid:0f8d6b53-6e6c-488d-9d84-ea10fccd7a67"
                  },
                  {
                    "reference": "urn:uuid:9d42bf5a-4bde-409d-a7c5-811ff8fc80c4"
                  },
                  {
                    "reference": "urn:uuid:7009896f-6671-43c8-95a9-e4e3f8d24197"
                  },
                  {
                    "reference": "urn:uuid:f91f0c67-44a9-42d7-afda-f6cf8aeb39ee"
                  },
                  {
                    "reference": "urn:uuid:b4c2411a-8e66-476d-b784-16c92ba3b719"
                  },
                  {
                    "reference": "urn:uuid:6a896cfd-f8c2-49d3-a73c-8bad94cdd2aa"
                  },
                  {
                    "reference": "urn:uuid:749551f6-2082-459f-8fd5-db5c099c18a3"
                  },
                  {
                    "reference": "urn:uuid:945a5e25-ed2e-454a-ab42-201441fc670f"
                  },
                  {
                    "reference": "urn:uuid:1edc9841-76bf-46e6-9bd0-c6408ac657b7"
                  }
                ],
                "text": {
                  "status": "generated",
                  "div": "<div xmlns=\"http://www.w3.org/1999/xhtml\"><h3>Urinalysis</h3><table class=\"hl7__eu__lab__report\"><thead><tr><th>Test</th><th>07-JUN-2024</th><th>Reference&#xA0;Range</th><th>Unit</th></tr></thead><tbody><tr><td>Glucose [Mass/volume] in Urine by Test strip</td><td><strong>1.4 H</strong></td><td>0 - 0.8</td><td>mg/dL</td></tr><tr><td>Glucose [Presence] in Urine by Test strip</td><td>++</td><td></td><td></td></tr><tr><td>Bilirubin.total [Mass/volume] in Urine by Test strip</td><td>0.9</td><td>0 - 1.9</td><td>mg/dL</td></tr><tr><td>Bilirubin.total [Presence] in Urine by Test strip</td><td>Finding of bilirubin in urine</td><td></td><td></td></tr><tr><td>Ketones [Mass/volume] in Urine by Test strip</td><td><strong>5.5 H</strong></td><td>0 - 3</td><td>mg/dL</td></tr><tr><td>Specific gravity of Urine by Test strip</td><td><strong>1.0 L</strong></td><td>1.01 - 1.03</td><td>{nominal}</td></tr><tr><td>pH of Urine by Test strip</td><td>6.4</td><td>4.5 - 7.5</td><td>pH</td></tr><tr><td>Protein [Mass/volume] in Urine by Test strip</td><td><strong>324.6 H</strong></td><td>0 - 149</td><td>mg/dL</td></tr><tr><td>Protein [Presence] in Urine by Test strip</td><td>Urine protein test = ++</td><td></td><td></td></tr><tr><td>Nitrite [Presence] in Urine by Test strip</td><td>Urine nitrite negative</td><td></td><td></td></tr><tr><td>Hemoglobin [Presence] in Urine by Test strip</td><td>Urine blood test = negative</td><td></td><td></td></tr><tr><td>Leukocyte esterase [Presence] in Urine by Test strip</td><td>Urine leukocyte test negative</td><td></td><td></td></tr></tbody></table></div>"
                },
                "title": "Urinalysis"
              },
              {
                "code": {
                  "coding": [
                    {
                      "code": "$LP7846-1",
                      "system": "http://loinc.org",
                      "display": "Specimen information"
                    }
                  ],
                  "text": "Specimen information"
                },
                "entry": [
                  {
                    "reference": "urn:uuid:a7115d38-2865-4e98-8f6c-346e2e767012"
                  },
                  {
                    "reference": "urn:uuid:18a69889-8deb-4782-91a2-101fc7ff4d4f"
                  },
                  {
                    "reference": "urn:uuid:46c15cfe-7626-482c-a78a-87a7aaa9294d"
                  },
                  {
                    "reference": "urn:uuid:59d11058-e253-42f1-bec5-cca1ef808d1f"
                  }
                ],
                "text": {
                  "status": "generated",
                  "div": "<div xmlns=\"http://www.w3.org/1999/xhtml\"><h3>Specimen information</h3><table class=\"hl7__eu__lab__report\"><thead><tr><th>Test</th><th>07-JUN-2024</th><th>Specimen</th><th></th></tr></thead><tbody><tr><td>Appearance of Urine</td><td>Cloudy urine</td><td>Urine</td><td></td></tr><tr><td>Odor of Urine</td><td>Urine smell ammoniacal</td><td>Urine</td><td></td></tr><tr><td>Clarity of Urine</td><td>Translucent</td><td>Urine</td><td></td></tr><tr><td>Color of Urine</td><td>Brown color</td><td>Urine</td><td></td></tr></tbody></table></div>"
                },
                "title": "Specimen information"
              }
            ],
            "title": "Laboratory Report"
          },
          {
            "text": {
              "status": "generated",
              "div": "<div xmlns=\"http://www.w3.org/1999/xhtml\"><h3>Annotation</h3><table class=\"hl7__eu__lab__report\"><tr><th>Conclusion and Recommendations based on this report and previous findings known to us</th></tr><tr><td>The patient shows elevated serum creatinine, suggesting impaired renal function. Urinalysis reveals proteinuria, glucosuria, ketonuria, low specific gravity, and abnormal urine appearance (cloudy, brown, ammoniacal), indicating possible renal tubular dysfunction or diabetic ketoacidosis, though HbA1c is low. No evidence of urinary infection. Further clinical correlation and nephrology evaluation are recommended.</td></tr></table></div>"
            },
            "code": {
              "coding": [
                {
                  "system": "http://loinc.org",
                  "code": "48767-8",
                  "display": "Annotation comment"
                }
              ]
            },
            "title": "Annotation comment"
          }
        ],
        "status": "final",
        "subject": {
          "reference": "urn:uuid:6b323346-c4ae-48bd-bf65-e400ab4fb219",
          "display": "Victor Lagarde"
        },
        "date": "2024-06-07T06:48:18Z",
        "title": "Laboratory Report",
        "confidentiality": "N"
      }
    },
    {
      "fullUrl": "urn:uuid:1fc5e908-3f82-422e-8647-1b2892083553",
      "resource": {
        "resourceType": "DiagnosticReport",
        "id": "1fc5e908-3f82-422e-8647-1b2892083553",
        "meta": {
          "profile": [
            "http://hl7.eu/fhir/laboratory/StructureDefinition/DiagnosticReport-eu-lab"
          ]
        },
        "identifier": [
          {
            "assigner": {
              "display": "HL7 Europe"
            },
            "system": "urn:oid:2.16.840.1.113883.2.51.999",
            "value": "b426690f-bb37-4c3b-8135-7933936c1e29"
          }
        ],
        "extension": [
          {
            "url": "http://hl7.org/fhir/5.0/StructureDefinition/extension-DiagnosticReport.composition",
            "valueReference": {
              "reference": "urn:uuid:f6ac10bc-4e80-4e7f-be2d-3dc237f1faec"
            }
          }
        ],
        "category": [
          {
            "coding": [
              {
                "code": "26436-6",
                "system": "http://loinc.org",
                "display": "Laboratory studies (set)"
              }
            ]
          }
        ],
        "specimen": [
          {
            "reference": "urn:uuid:a42be1e1-5f40-481e-8d0b-cfd666a63fe3"
          },
          {
            "reference": "urn:uuid:04a70d7e-2623-4767-b9c6-a7b7c5c48372"
          },
          {
            "reference": "urn:uuid:ad367913-05ec-4963-b393-cdf9dd9f2b72"
          }
        ],
        "result": [
          {
            "reference": "urn:uuid:7cb72991-caa8-4c3c-9be4-e6e4b4b48ce2"
          },
          {
            "reference": "urn:uuid:d4287718-45e9-45d2-a9bf-ea33052c5a27"
          },
          {
            "reference": "urn:uuid:d770638d-3f1c-49da-a5d7-fb89d57d93f9"
          },
          {
            "reference": "urn:uuid:7eb68b15-d198-46af-bd0b-dbd1b7a73dbd"
          },
          {
            "reference": "urn:uuid:9836e48b-fb48-4c6a-a730-3474a765aa7a"
          },
          {
            "reference": "urn:uuid:b62d60c9-2c96-4ff4-81d7-a1e14f44f9d7"
          },
          {
            "reference": "urn:uuid:5987dac9-3b63-41dd-84e2-d057fec0e28c"
          },
          {
            "reference": "urn:uuid:b0741da3-b0b8-4c75-b538-27eed18336ac"
          },
          {
            "reference": "urn:uuid:a7115d38-2865-4e98-8f6c-346e2e767012"
          },
          {
            "reference": "urn:uuid:18a69889-8deb-4782-91a2-101fc7ff4d4f"
          },
          {
            "reference": "urn:uuid:46c15cfe-7626-482c-a78a-87a7aaa9294d"
          },
          {
            "reference": "urn:uuid:59d11058-e253-42f1-bec5-cca1ef808d1f"
          },
          {
            "reference": "urn:uuid:10efc22e-41b0-459a-b3e6-2b2974690ec5"
          },
          {
            "reference": "urn:uuid:b7257f3d-adbc-4edf-a3c3-88071e00feb1"
          },
          {
            "reference": "urn:uuid:cec81e13-e577-489c-84b2-4b820d8fdb7a"
          },
          {
            "reference": "urn:uuid:0f8d6b53-6e6c-488d-9d84-ea10fccd7a67"
          },
          {
            "reference": "urn:uuid:9d42bf5a-4bde-409d-a7c5-811ff8fc80c4"
          },
          {
            "reference": "urn:uuid:26e31b48-a637-4f24-aee2-c733feb6157b"
          },
          {
            "reference": "urn:uuid:7009896f-6671-43c8-95a9-e4e3f8d24197"
          },
          {
            "reference": "urn:uuid:f91f0c67-44a9-42d7-afda-f6cf8aeb39ee"
          },
          {
            "reference": "urn:uuid:b4c2411a-8e66-476d-b784-16c92ba3b719"
          },
          {
            "reference": "urn:uuid:6a896cfd-f8c2-49d3-a73c-8bad94cdd2aa"
          },
          {
            "reference": "urn:uuid:749551f6-2082-459f-8fd5-db5c099c18a3"
          },
          {
            "reference": "urn:uuid:945a5e25-ed2e-454a-ab42-201441fc670f"
          },
          {
            "reference": "urn:uuid:1edc9841-76bf-46e6-9bd0-c6408ac657b7"
          },
          {
            "reference": "urn:uuid:d8e09343-98ad-45a3-ae08-5f649a4f5c58"
          }
        ],
        "status": "registered",
        "code": {
          "coding": [
            {
              "code": "11502-2",
              "system": "http://loinc.org",
              "display": "Laboratory report"
            }
          ]
        },
        "subject": {
          "reference": "urn:uuid:6b323346-c4ae-48bd-bf65-e400ab4fb219",
          "display": "Victor Lagarde"
        }
      }
    },
    {
      "fullUrl": "urn:uuid:6b323346-c4ae-48bd-bf65-e400ab4fb219",
      "resource": {
        "resourceType": "Patient",
        "id": "6b323346-c4ae-48bd-bf65-e400ab4fb219",
        "meta": {
          "security": [
            {
              "system": "http://terminology.hl7.org/CodeSystem/v3-ActReason",
              "code": "HTEST"
            },
            {
              "system": "http://terminology.hl7.org/CodeSystem/v3-ActReason",
              "code": "TRAIN"
            }
          ],
          "tag": [
            {
              "system": "https://synderai.net/fhir/CodeSystem/tags",
              "code": "synthetic",
              "display": "SYNDERAI Synthetic data"
            }
          ],
          "profile": [
            "http://hl7.eu/fhir/base/StructureDefinition/patient-eu-core"
          ]
        },
        "identifier": [
          {
            "type": {
              "coding": [
                {
                  "code": "PT",
                  "system": "http://terminology.hl7.org/CodeSystem/v2-0203"
                }
              ]
            },
            "system": "http://ec.europa.eu/identifier/eci",
            "value": "9925-001801-9"
          },
          {
            "type": {
              "coding": [
                {
                  "code": "MR",
                  "system": "http://terminology.hl7.org/CodeSystem/v2-0203"
                }
              ]
            },
            "system": "http://local.setting.eu/identifier",
            "value": "22c2dfd0-ac57-8833-2532-848f180896a4"
          }
        ],
        "name": [
          {
            "family": "Lagarde"
          },
          {
            "given": [
              "Victor"
            ]
          },
          {
            "text": "Victor Lagarde"
          }
        ],
        "address": [
          {
            "line": [
              "avenue Robert"
            ],
            "use": "home",
            "type": "physical",
            "postalCode": "80300",
            "city": "Albert",
            "country": "France"
          }
        ],
        "telecom": [
          {
            "system": "phone",
            "value": "0177941801"
          }
        ],
        "extension": [
          {
            "url": "http://hl7.org/fhir/StructureDefinition/patient-nationality",
            "valueCodeableConcept": {
              "coding": [
                {
                  "code": "FR",
                  "system": "http://hl7.org/fhir/ValueSet/country"
                }
              ]
            }
          }
        ],
        "text": {
          "status": "generated",
          "div": "<div xmlns=\"http://www.w3.org/1999/xhtml\"><table class=\"hl7__ips\"><tr><td>Victor Lagarde</td><td>male</td><td>31-Aug-1939</td></tr></table></div>"
        },
        "gender": "male",
        "birthDate": "1939-08-31"
      }
    },
    {
      "fullUrl": "urn:uuid:7ce6b351-640b-4146-a291-e301de3a1c66",
      "resource": {
        "resourceType": "ServiceRequest",
        "id": "7ce6b351-640b-4146-a291-e301de3a1c66",
        "meta": {
          "profile": [
            "http://hl7.eu/fhir/laboratory/StructureDefinition/ServiceRequest-eu-lab"
          ]
        },
        "identifier": [
          {
            "system": "http://example.org",
            "value": "838d7b36-2a9f-441c-b0ab-f18cdcda6515"
          }
        ],
        "specimen": [
          {
            "reference": "urn:uuid:a42be1e1-5f40-481e-8d0b-cfd666a63fe3"
          },
          {
            "reference": "urn:uuid:04a70d7e-2623-4767-b9c6-a7b7c5c48372"
          },
          {
            "reference": "urn:uuid:ad367913-05ec-4963-b393-cdf9dd9f2b72"
          }
        ],
        "reasonCode": [
          {
            "coding": [
              {
                "code": "433144002",
                "system": "http://snomed.info/sct",
                "display": "Chronic kidney disease stage 3"
              }
            ]
          },
          {
            "coding": [
              {
                "code": "157141000119108",
                "system": "http://snomed.info/sct",
                "display": "Proteinuria due to type 2 diabetes mellitus"
              }
            ]
          },
          {
            "coding": [
              {
                "code": "431856006",
                "system": "http://snomed.info/sct",
                "display": "Chronic kidney disease stage 2"
              }
            ]
          },
          {
            "coding": [
              {
                "code": "90781000119102",
                "system": "http://snomed.info/sct",
                "display": "Microalbuminuria due to type 2 diabetes mellitus"
              }
            ]
          },
          {
            "coding": [
              {
                "code": "127013003",
                "system": "http://snomed.info/sct",
                "display": "Disorder of kidney due to diabetes mellitus"
              }
            ]
          },
          {
            "coding": [
              {
                "code": "431855005",
                "system": "http://snomed.info/sct",
                "display": "Chronic kidney disease stage 1"
              }
            ]
          },
          {
            "coding": [
              {
                "code": "55822004",
                "system": "http://snomed.info/sct",
                "display": "Hyperlipidemia"
              }
            ]
          },
          {
            "coding": [
              {
                "code": "59621000",
                "system": "http://snomed.info/sct",
                "display": "Essential hypertension"
              }
            ]
          },
          {
            "coding": [
              {
                "code": "237602007",
                "system": "http://snomed.info/sct",
                "display": "Metabolic syndrome X"
              }
            ]
          },
          {
            "coding": [
              {
                "code": "414545008",
                "system": "http://snomed.info/sct",
                "display": "Ischemic heart disease"
              }
            ]
          },
          {
            "coding": [
              {
                "code": "40055000",
                "system": "http://snomed.info/sct",
                "display": "Chronic sinusitis"
              }
            ]
          },
          {
            "coding": [
              {
                "code": "15777000",
                "system": "http://snomed.info/sct",
                "display": "Prediabetes"
              }
            ]
          },
          {
            "coding": [
              {
                "code": "271737000",
                "system": "http://snomed.info/sct",
                "display": "Anemia"
              }
            ]
          }
        ],
        "status": "active",
        "intent": "order",
        "code": {
          "coding": [
            {
              "code": "108252007",
              "system": "http://snomed.info/sct",
              "display": "Laboratory procedure"
            }
          ]
        },
        "subject": {
          "reference": "urn:uuid:6b323346-c4ae-48bd-bf65-e400ab4fb219",
          "display": "Victor Lagarde"
        },
        "requester": {
          "reference": "urn:uuid:3aca0a38-8deb-47fc-b28b-1c1eddcdf3cf"
        }
      }
    },
    {
      "fullUrl": "urn:uuid:3aca0a38-8deb-47fc-b28b-1c1eddcdf3cf",
      "resource": {
        "resourceType": "PractitionerRole",
        "id": "3aca0a38-8deb-47fc-b28b-1c1eddcdf3cf",
        "meta": {
          "profile": [
            "http://hl7.eu/fhir/base/StructureDefinition/practitionerRole-eu"
          ]
        },
        "text": {
          "status": "generated",
          "div": "<div xmlns=\"http://www.w3.org/1999/xhtml\">Provider Role Id: 3aca0a38-8deb-47fc-b28b-1c1eddcdf3cf</div>"
        },
        "organization": {
          "reference": "urn:uuid:8eb70bf9-62af-45ab-ad9e-fca24d0b8d23"
        }
      }
    },
    {
      "fullUrl": "urn:uuid:8eb70bf9-62af-45ab-ad9e-fca24d0b8d23",
      "resource": {
        "resourceType": "Organization",
        "id": "8eb70bf9-62af-45ab-ad9e-fca24d0b8d23",
        "meta": {
          "profile": [
            "http://hl7.eu/fhir/base/StructureDefinition/organization-eu"
          ]
        },
        "identifier": [
          {
            "assigner": {
              "display": "HL7 Europe"
            },
            "system": "urn:oid:2.16.840.1.113883.2.51.999",
            "value": "3b213fad-f321-4f95-b2d5-9555a6e133d0"
          }
        ],
        "address": [
          {
            "city": "Auxerre",
            "postalCode": "89000",
            "country": "France"
          }
        ],
        "text": {
          "status": "generated",
          "div": "<div xmlns=\"http://www.w3.org/1999/xhtml\">Provider Organization: Thiriot Didier (Cardiologie)</div>"
        },
        "name": "Thiriot Didier (Cardiologie)"
      }
    },
    {
      "fullUrl": "urn:uuid:a42be1e1-5f40-481e-8d0b-cfd666a63fe3",
      "resource": {
        "resourceType": "Specimen",
        "id": "a42be1e1-5f40-481e-8d0b-cfd666a63fe3",
        "meta": {
          "profile": [
            "http://hl7.eu/fhir/laboratory/StructureDefinition/Specimen-eu-lab"
          ]
        },
        "collection": {
          "collectedDateTime": "2024-06-07"
        },
        "text": {
          "status": "generated",
          "div": "<div xmlns=\"http://www.w3.org/1999/xhtml\"><table class=\"hl7__eu__lab__report\"><tr><th>Specimen</th><th>Collection Date</th></tr><tr><td>Acellular blood (serum or plasma) specimen</td><td><span class=\"nb\">07-Jun-2024</span></td></tr></table></div>"
        },
        "type": {
          "coding": [
            {
              "code": "122592007",
              "system": "http://snomed.info/sct",
              "display": "Acellular blood (serum or plasma) specimen"
            }
          ]
        }
      }
    },
    {
      "fullUrl": "urn:uuid:04a70d7e-2623-4767-b9c6-a7b7c5c48372",
      "resource": {
        "resourceType": "Specimen",
        "id": "04a70d7e-2623-4767-b9c6-a7b7c5c48372",
        "meta": {
          "profile": [
            "http://hl7.eu/fhir/laboratory/StructureDefinition/Specimen-eu-lab"
          ]
        },
        "collection": {
          "collectedDateTime": "2024-06-07"
        },
        "text": {
          "status": "generated",
          "div": "<div xmlns=\"http://www.w3.org/1999/xhtml\"><table class=\"hl7__eu__lab__report\"><tr><th>Specimen</th><th>Collection Date</th></tr><tr><td>Urine specimen</td><td><span class=\"nb\">07-Jun-2024</span></td></tr></table></div>"
        },
        "type": {
          "coding": [
            {
              "code": "122575003",
              "system": "http://snomed.info/sct",
              "display": "Urine specimen"
            }
          ]
        }
      }
    },
    {
      "fullUrl": "urn:uuid:ad367913-05ec-4963-b393-cdf9dd9f2b72",
      "resource": {
        "resourceType": "Specimen",
        "id": "ad367913-05ec-4963-b393-cdf9dd9f2b72",
        "meta": {
          "profile": [
            "http://hl7.eu/fhir/laboratory/StructureDefinition/Specimen-eu-lab"
          ]
        },
        "collection": {
          "collectedDateTime": "2024-06-07"
        },
        "text": {
          "status": "generated",
          "div": "<div xmlns=\"http://www.w3.org/1999/xhtml\"><table class=\"hl7__eu__lab__report\"><tr><th>Specimen</th><th>Collection Date</th></tr><tr><td>Whole blood specimen (specimen)</td><td><span class=\"nb\">07-Jun-2024</span></td></tr></table></div>"
        },
        "type": {
          "coding": [
            {
              "code": "258580003",
              "system": "http://snomed.info/sct",
              "display": "Whole blood specimen (specimen)"
            }
          ]
        }
      }
    },
    {
      "fullUrl": "urn:uuid:7cb72991-caa8-4c3c-9be4-e6e4b4b48ce2",
      "resource": {
        "resourceType": "Observation",
        "id": "7cb72991-caa8-4c3c-9be4-e6e4b4b48ce2",
        "meta": {
          "profile": [
            "http://hl7.eu/fhir/laboratory/StructureDefinition/Observation-resultslab-eu-lab"
          ]
        },
        "performer": [
          {
            "display": "The Central European Lab"
          }
        ],
        "category": [
          {
            "coding": [
              {
                "system": "http://terminology.hl7.org/CodeSystem/observation-category",
                "code": "laboratory"
              }
            ]
          }
        ],
        "code": {
          "coding": [
            {
              "code": "2345-7",
              "system": "http://loinc.org",
              "display": "Glucose [Mass/volume] in Serum or Plasma"
            }
          ],
          "text": "Glucose [Mass/volume] in Serum or Plasma"
        },
        "valueQuantity": {
          "system": "http://unitsofmeasure.org",
          "value": 90.6,
          "unit": "mg/dL",
          "code": "mg/dL"
        },
        "referenceRange": [
          {
            "low": {
              "value": 70,
              "code": "mg/dL",
              "system": "http://unitsofmeasure.org"
            }
          },
          {
            "high": {
              "value": 140,
              "code": "mg/dL",
              "system": "http://unitsofmeasure.org"
            }
          }
        ],
        "text": {
          "status": "generated",
          "div": "<div xmlns=\"http://www.w3.org/1999/xhtml\"><table class=\"hl7__eu__lab__report\"><tr><th>Test</th><th>07-Jun-2024</th><th>Reference&#xA0;Range</th><th>Unit</th></tr><tr><td>Glucose [Mass/volume] in Serum or Plasma</td><td>90.6</td><td>70 - 140</td><td></td><td>mg/dL</td></tr></table></div>"
        },
        "status": "final",
        "subject": {
          "reference": "urn:uuid:6b323346-c4ae-48bd-bf65-e400ab4fb219",
          "display": "Victor Lagarde"
        },
        "effectiveDateTime": "2024-06-07T04:48:18Z",
        "specimen": {
          "reference": "urn:uuid:a42be1e1-5f40-481e-8d0b-cfd666a63fe3"
        }
      }
    },
    {
      "fullUrl": "urn:uuid:d4287718-45e9-45d2-a9bf-ea33052c5a27",
      "resource": {
        "resourceType": "Observation",
        "id": "d4287718-45e9-45d2-a9bf-ea33052c5a27",
        "meta": {
          "profile": [
            "http://hl7.eu/fhir/laboratory/StructureDefinition/Observation-resultslab-eu-lab"
          ]
        },
        "performer": [
          {
            "display": "The Central European Lab"
          }
        ],
        "category": [
          {
            "coding": [
              {
                "system": "http://terminology.hl7.org/CodeSystem/observation-category",
                "code": "laboratory"
              }
            ]
          }
        ],
        "code": {
          "coding": [
            {
              "code": "3094-0",
              "system": "http://loinc.org",
              "display": "Urea nitrogen [Mass/volume] in Serum or Plasma"
            }
          ],
          "text": "Urea nitrogen [Mass/volume] in Serum or Plasma"
        },
        "valueQuantity": {
          "system": "http://unitsofmeasure.org",
          "value": 13,
          "unit": "mg/dL",
          "code": "mg/dL"
        },
        "referenceRange": [
          {
            "low": {
              "value": 7,
              "code": "mg/dL",
              "system": "http://unitsofmeasure.org"
            }
          },
          {
            "high": {
              "value": 20,
              "code": "mg/dL",
              "system": "http://unitsofmeasure.org"
            }
          }
        ],
        "text": {
          "status": "generated",
          "div": "<div xmlns=\"http://www.w3.org/1999/xhtml\"><table class=\"hl7__eu__lab__report\"><tr><th>Test</th><th>07-Jun-2024</th><th>Reference&#xA0;Range</th><th>Unit</th></tr><tr><td>Urea nitrogen [Mass/volume] in Serum or Plasma</td><td>13.0</td><td>7 - 20</td><td></td><td>mg/dL</td></tr></table></div>"
        },
        "status": "final",
        "subject": {
          "reference": "urn:uuid:6b323346-c4ae-48bd-bf65-e400ab4fb219",
          "display": "Victor Lagarde"
        },
        "effectiveDateTime": "2024-06-07T04:48:18Z",
        "specimen": {
          "reference": "urn:uuid:a42be1e1-5f40-481e-8d0b-cfd666a63fe3"
        }
      }
    },
    {
      "fullUrl": "urn:uuid:d770638d-3f1c-49da-a5d7-fb89d57d93f9",
      "resource": {
        "resourceType": "Observation",
        "id": "d770638d-3f1c-49da-a5d7-fb89d57d93f9",
        "meta": {
          "profile": [
            "http://hl7.eu/fhir/laboratory/StructureDefinition/Observation-resultslab-eu-lab"
          ]
        },
        "performer": [
          {
            "display": "The Central European Lab"
          }
        ],
        "category": [
          {
            "coding": [
              {
                "system": "http://terminology.hl7.org/CodeSystem/observation-category",
                "code": "laboratory"
              }
            ]
          }
        ],
        "code": {
          "coding": [
            {
              "code": "2160-0",
              "system": "http://loinc.org",
              "display": "Creatinine [Mass/volume] in Serum or Plasma"
            }
          ],
          "text": "Creatinine [Mass/volume] in Serum or Plasma"
        },
        "valueQuantity": {
          "system": "http://unitsofmeasure.org",
          "value": 2,
          "unit": "mg/dL",
          "code": "mg/dL"
        },
        "referenceRange": [
          {
            "low": {
              "value": 0.9,
              "code": "mg/dL",
              "system": "http://unitsofmeasure.org"
            }
          },
          {
            "high": {
              "value": 1.3,
              "code": "mg/dL",
              "system": "http://unitsofmeasure.org"
            }
          }
        ],
        "interpretation": [
          {
            "coding": [
              {
                "code": "H",
                "system": "http://terminology.hl7.org/CodeSystem/v3-ObservationInterpretation",
                "display": "High"
              }
            ]
          }
        ],
        "text": {
          "status": "generated",
          "div": "<div xmlns=\"http://www.w3.org/1999/xhtml\"><table class=\"hl7__eu__lab__report\"><tr><th>Test</th><th>07-Jun-2024</th><th>Reference&#xA0;Range</th><th>Unit</th></tr><tr><td>Creatinine [Mass/volume] in Serum or Plasma</td><td>2.0</td><td>0.9 - 1.3</td><td>H</td><td>mg/dL</td></tr></table></div>"
        },
        "status": "final",
        "subject": {
          "reference": "urn:uuid:6b323346-c4ae-48bd-bf65-e400ab4fb219",
          "display": "Victor Lagarde"
        },
        "effectiveDateTime": "2024-06-07T04:48:18Z",
        "specimen": {
          "reference": "urn:uuid:a42be1e1-5f40-481e-8d0b-cfd666a63fe3"
        }
      }
    },
    {
      "fullUrl": "urn:uuid:7eb68b15-d198-46af-bd0b-dbd1b7a73dbd",
      "resource": {
        "resourceType": "Observation",
        "id": "7eb68b15-d198-46af-bd0b-dbd1b7a73dbd",
        "meta": {
          "profile": [
            "http://hl7.eu/fhir/laboratory/StructureDefinition/Observation-resultslab-eu-lab"
          ]
        },
        "performer": [
          {
            "display": "The Central European Lab"
          }
        ],
        "category": [
          {
            "coding": [
              {
                "system": "http://terminology.hl7.org/CodeSystem/observation-category",
                "code": "laboratory"
              }
            ]
          }
        ],
        "code": {
          "coding": [
            {
              "code": "17861-6",
              "system": "http://loinc.org",
              "display": "Calcium [Mass/volume] in Serum or Plasma"
            }
          ],
          "text": "Calcium [Mass/volume] in Serum or Plasma"
        },
        "valueQuantity": {
          "system": "http://unitsofmeasure.org",
          "value": 9.5,
          "unit": "mg/dL",
          "code": "mg/dL"
        },
        "referenceRange": [
          {
            "low": {
              "value": 8.5,
              "code": "mg/dL",
              "system": "http://unitsofmeasure.org"
            }
          },
          {
            "high": {
              "value": 10.5,
              "code": "mg/dL",
              "system": "http://unitsofmeasure.org"
            }
          }
        ],
        "text": {
          "status": "generated",
          "div": "<div xmlns=\"http://www.w3.org/1999/xhtml\"><table class=\"hl7__eu__lab__report\"><tr><th>Test</th><th>07-Jun-2024</th><th>Reference&#xA0;Range</th><th>Unit</th></tr><tr><td>Calcium [Mass/volume] in Serum or Plasma</td><td>9.5</td><td>8.5 - 10.5</td><td></td><td>mg/dL</td></tr></table></div>"
        },
        "status": "final",
        "subject": {
          "reference": "urn:uuid:6b323346-c4ae-48bd-bf65-e400ab4fb219",
          "display": "Victor Lagarde"
        },
        "effectiveDateTime": "2024-06-07T04:48:18Z",
        "specimen": {
          "reference": "urn:uuid:a42be1e1-5f40-481e-8d0b-cfd666a63fe3"
        }
      }
    },
    {
      "fullUrl": "urn:uuid:9836e48b-fb48-4c6a-a730-3474a765aa7a",
      "resource": {
        "resourceType": "Observation",
        "id": "9836e48b-fb48-4c6a-a730-3474a765aa7a",
        "meta": {
          "profile": [
            "http://hl7.eu/fhir/laboratory/StructureDefinition/Observation-resultslab-eu-lab"
          ]
        },
        "performer": [
          {
            "display": "The Central European Lab"
          }
        ],
        "category": [
          {
            "coding": [
              {
                "system": "http://terminology.hl7.org/CodeSystem/observation-category",
                "code": "laboratory"
              }
            ]
          }
        ],
        "code": {
          "coding": [
            {
              "code": "2951-2",
              "system": "http://loinc.org",
              "display": "Sodium [Moles/volume] in Serum or Plasma"
            }
          ],
          "text": "Sodium [Moles/volume] in Serum or Plasma"
        },
        "valueQuantity": {
          "system": "http://unitsofmeasure.org",
          "value": 142.7,
          "unit": "mmol/L",
          "code": "mmol/L"
        },
        "referenceRange": [
          {
            "low": {
              "value": 135,
              "code": "mmol/L",
              "system": "http://unitsofmeasure.org"
            }
          },
          {
            "high": {
              "value": 145,
              "code": "mmol/L",
              "system": "http://unitsofmeasure.org"
            }
          }
        ],
        "text": {
          "status": "generated",
          "div": "<div xmlns=\"http://www.w3.org/1999/xhtml\"><table class=\"hl7__eu__lab__report\"><tr><th>Test</th><th>07-Jun-2024</th><th>Reference&#xA0;Range</th><th>Unit</th></tr><tr><td>Sodium [Moles/volume] in Serum or Plasma</td><td>142.7</td><td>135 - 145</td><td></td><td>mmol/L</td></tr></table></div>"
        },
        "status": "final",
        "subject": {
          "reference": "urn:uuid:6b323346-c4ae-48bd-bf65-e400ab4fb219",
          "display": "Victor Lagarde"
        },
        "effectiveDateTime": "2024-06-07T04:48:18Z",
        "specimen": {
          "reference": "urn:uuid:a42be1e1-5f40-481e-8d0b-cfd666a63fe3"
        }
      }
    },
    {
      "fullUrl": "urn:uuid:b62d60c9-2c96-4ff4-81d7-a1e14f44f9d7",
      "resource": {
        "resourceType": "Observation",
        "id": "b62d60c9-2c96-4ff4-81d7-a1e14f44f9d7",
        "meta": {
          "profile": [
            "http://hl7.eu/fhir/laboratory/StructureDefinition/Observation-resultslab-eu-lab"
          ]
        },
        "performer": [
          {
            "display": "The Central European Lab"
          }
        ],
        "category": [
          {
            "coding": [
              {
                "system": "http://terminology.hl7.org/CodeSystem/observation-category",
                "code": "laboratory"
              }
            ]
          }
        ],
        "code": {
          "coding": [
            {
              "code": "2823-3",
              "system": "http://loinc.org",
              "display": "Potassium [Moles/volume] in Serum or Plasma"
            }
          ],
          "text": "Potassium [Moles/volume] in Serum or Plasma"
        },
        "valueQuantity": {
          "system": "http://unitsofmeasure.org",
          "value": 5.1,
          "unit": "mmol/L",
          "code": "mmol/L"
        },
        "referenceRange": [
          {
            "low": {
              "value": 3.5,
              "code": "mmol/L",
              "system": "http://unitsofmeasure.org"
            }
          },
          {
            "high": {
              "value": 5.3,
              "code": "mmol/L",
              "system": "http://unitsofmeasure.org"
            }
          }
        ],
        "text": {
          "status": "generated",
          "div": "<div xmlns=\"http://www.w3.org/1999/xhtml\"><table class=\"hl7__eu__lab__report\"><tr><th>Test</th><th>07-Jun-2024</th><th>Reference&#xA0;Range</th><th>Unit</th></tr><tr><td>Potassium [Moles/volume] in Serum or Plasma</td><td>5.1</td><td>3.5 - 5.3</td><td></td><td>mmol/L</td></tr></table></div>"
        },
        "status": "final",
        "subject": {
          "reference": "urn:uuid:6b323346-c4ae-48bd-bf65-e400ab4fb219",
          "display": "Victor Lagarde"
        },
        "effectiveDateTime": "2024-06-07T04:48:18Z",
        "specimen": {
          "reference": "urn:uuid:a42be1e1-5f40-481e-8d0b-cfd666a63fe3"
        }
      }
    },
    {
      "fullUrl": "urn:uuid:5987dac9-3b63-41dd-84e2-d057fec0e28c",
      "resource": {
        "resourceType": "Observation",
        "id": "5987dac9-3b63-41dd-84e2-d057fec0e28c",
        "meta": {
          "profile": [
            "http://hl7.eu/fhir/laboratory/StructureDefinition/Observation-resultslab-eu-lab"
          ]
        },
        "performer": [
          {
            "display": "The Central European Lab"
          }
        ],
        "category": [
          {
            "coding": [
              {
                "system": "http://terminology.hl7.org/CodeSystem/observation-category",
                "code": "laboratory"
              }
            ]
          }
        ],
        "code": {
          "coding": [
            {
              "code": "2075-0",
              "system": "http://loinc.org",
              "display": "Chloride [Moles/volume] in Serum or Plasma"
            }
          ],
          "text": "Chloride [Moles/volume] in Serum or Plasma"
        },
        "valueQuantity": {
          "system": "http://unitsofmeasure.org",
          "value": 105,
          "unit": "mmol/L",
          "code": "mmol/L"
        },
        "referenceRange": [
          {
            "low": {
              "value": 98,
              "code": "mmol/L",
              "system": "http://unitsofmeasure.org"
            }
          },
          {
            "high": {
              "value": 107,
              "code": "mmol/L",
              "system": "http://unitsofmeasure.org"
            }
          }
        ],
        "text": {
          "status": "generated",
          "div": "<div xmlns=\"http://www.w3.org/1999/xhtml\"><table class=\"hl7__eu__lab__report\"><tr><th>Test</th><th>07-Jun-2024</th><th>Reference&#xA0;Range</th><th>Unit</th></tr><tr><td>Chloride [Moles/volume] in Serum or Plasma</td><td>105.0</td><td>98 - 107</td><td></td><td>mmol/L</td></tr></table></div>"
        },
        "status": "final",
        "subject": {
          "reference": "urn:uuid:6b323346-c4ae-48bd-bf65-e400ab4fb219",
          "display": "Victor Lagarde"
        },
        "effectiveDateTime": "2024-06-07T04:48:18Z",
        "specimen": {
          "reference": "urn:uuid:a42be1e1-5f40-481e-8d0b-cfd666a63fe3"
        }
      }
    },
    {
      "fullUrl": "urn:uuid:b0741da3-b0b8-4c75-b538-27eed18336ac",
      "resource": {
        "resourceType": "Observation",
        "id": "b0741da3-b0b8-4c75-b538-27eed18336ac",
        "meta": {
          "profile": [
            "http://hl7.eu/fhir/laboratory/StructureDefinition/Observation-resultslab-eu-lab"
          ]
        },
        "performer": [
          {
            "display": "The Central European Lab"
          }
        ],
        "category": [
          {
            "coding": [
              {
                "system": "http://terminology.hl7.org/CodeSystem/observation-category",
                "code": "laboratory"
              }
            ]
          }
        ],
        "code": {
          "coding": [
            {
              "code": "2028-9",
              "system": "http://loinc.org",
              "display": "Carbon dioxide, total [Moles/volume] in Serum or Plasma"
            }
          ],
          "text": "Carbon dioxide, total [Moles/volume] in Serum or Plasma"
        },
        "valueQuantity": {
          "system": "http://unitsofmeasure.org",
          "value": 28.5,
          "unit": "mmol/L",
          "code": "mmol/L"
        },
        "referenceRange": [
          {
            "low": {
              "value": 22,
              "code": "mmol/L",
              "system": "http://unitsofmeasure.org"
            }
          },
          {
            "high": {
              "value": 33,
              "code": "mmol/L",
              "system": "http://unitsofmeasure.org"
            }
          }
        ],
        "text": {
          "status": "generated",
          "div": "<div xmlns=\"http://www.w3.org/1999/xhtml\"><table class=\"hl7__eu__lab__report\"><tr><th>Test</th><th>07-Jun-2024</th><th>Reference&#xA0;Range</th><th>Unit</th></tr><tr><td>Carbon dioxide, total [Moles/volume] in Serum or Plasma</td><td>28.5</td><td>22 - 33</td><td></td><td>mmol/L</td></tr></table></div>"
        },
        "status": "final",
        "subject": {
          "reference": "urn:uuid:6b323346-c4ae-48bd-bf65-e400ab4fb219",
          "display": "Victor Lagarde"
        },
        "effectiveDateTime": "2024-06-07T04:48:18Z",
        "specimen": {
          "reference": "urn:uuid:a42be1e1-5f40-481e-8d0b-cfd666a63fe3"
        }
      }
    },
    {
      "fullUrl": "urn:uuid:a7115d38-2865-4e98-8f6c-346e2e767012",
      "resource": {
        "resourceType": "Observation",
        "id": "a7115d38-2865-4e98-8f6c-346e2e767012",
        "meta": {
          "profile": [
            "http://hl7.eu/fhir/laboratory/StructureDefinition/Observation-resultslab-eu-lab"
          ]
        },
        "performer": [
          {
            "display": "The Central European Lab"
          }
        ],
        "category": [
          {
            "coding": [
              {
                "system": "http://terminology.hl7.org/CodeSystem/observation-category",
                "code": "laboratory"
              }
            ]
          }
        ],
        "code": {
          "coding": [
            {
              "code": "5767-9",
              "system": "http://loinc.org",
              "display": "Appearance of Urine"
            }
          ],
          "text": "Appearance of Urine"
        },
        "text": {
          "status": "generated",
          "div": "<div xmlns=\"http://www.w3.org/1999/xhtml\"><table class=\"hl7__eu__lab__report\"><tr><th>Test</th><th>07-Jun-2024</th><th>Reference&#xA0;Range</th><th>Unit</th></tr><tr><td>Appearance of Urine</td></tr></table></div>"
        },
        "status": "final",
        "subject": {
          "reference": "urn:uuid:6b323346-c4ae-48bd-bf65-e400ab4fb219",
          "display": "Victor Lagarde"
        },
        "effectiveDateTime": "2024-06-07T04:48:18Z",
        "specimen": {
          "reference": "urn:uuid:04a70d7e-2623-4767-b9c6-a7b7c5c48372"
        }
      }
    },
    {
      "fullUrl": "urn:uuid:18a69889-8deb-4782-91a2-101fc7ff4d4f",
      "resource": {
        "resourceType": "Observation",
        "id": "18a69889-8deb-4782-91a2-101fc7ff4d4f",
        "meta": {
          "profile": [
            "http://hl7.eu/fhir/laboratory/StructureDefinition/Observation-resultslab-eu-lab"
          ]
        },
        "performer": [
          {
            "display": "The Central European Lab"
          }
        ],
        "category": [
          {
            "coding": [
              {
                "system": "http://terminology.hl7.org/CodeSystem/observation-category",
                "code": "laboratory"
              }
            ]
          }
        ],
        "code": {
          "coding": [
            {
              "code": "34533-0",
              "system": "http://loinc.org",
              "display": "Odor of Urine"
            }
          ],
          "text": "Odor of Urine"
        },
        "text": {
          "status": "generated",
          "div": "<div xmlns=\"http://www.w3.org/1999/xhtml\"><table class=\"hl7__eu__lab__report\"><tr><th>Test</th><th>07-Jun-2024</th><th>Reference&#xA0;Range</th><th>Unit</th></tr><tr><td>Odor of Urine</td></tr></table></div>"
        },
        "status": "final",
        "subject": {
          "reference": "urn:uuid:6b323346-c4ae-48bd-bf65-e400ab4fb219",
          "display": "Victor Lagarde"
        },
        "effectiveDateTime": "2024-06-07T04:48:18Z",
        "specimen": {
          "reference": "urn:uuid:04a70d7e-2623-4767-b9c6-a7b7c5c48372"
        }
      }
    },
    {
      "fullUrl": "urn:uuid:46c15cfe-7626-482c-a78a-87a7aaa9294d",
      "resource": {
        "resourceType": "Observation",
        "id": "46c15cfe-7626-482c-a78a-87a7aaa9294d",
        "meta": {
          "profile": [
            "http://hl7.eu/fhir/laboratory/StructureDefinition/Observation-resultslab-eu-lab"
          ]
        },
        "performer": [
          {
            "display": "The Central European Lab"
          }
        ],
        "category": [
          {
            "coding": [
              {
                "system": "http://terminology.hl7.org/CodeSystem/observation-category",
                "code": "laboratory"
              }
            ]
          }
        ],
        "code": {
          "coding": [
            {
              "code": "32167-9",
              "system": "http://loinc.org",
              "display": "Clarity of Urine"
            }
          ],
          "text": "Clarity of Urine"
        },
        "text": {
          "status": "generated",
          "div": "<div xmlns=\"http://www.w3.org/1999/xhtml\"><table class=\"hl7__eu__lab__report\"><tr><th>Test</th><th>07-Jun-2024</th><th>Reference&#xA0;Range</th><th>Unit</th></tr><tr><td>Clarity of Urine</td></tr></table></div>"
        },
        "status": "final",
        "subject": {
          "reference": "urn:uuid:6b323346-c4ae-48bd-bf65-e400ab4fb219",
          "display": "Victor Lagarde"
        },
        "effectiveDateTime": "2024-06-07T04:48:18Z",
        "specimen": {
          "reference": "urn:uuid:04a70d7e-2623-4767-b9c6-a7b7c5c48372"
        }
      }
    },
    {
      "fullUrl": "urn:uuid:59d11058-e253-42f1-bec5-cca1ef808d1f",
      "resource": {
        "resourceType": "Observation",
        "id": "59d11058-e253-42f1-bec5-cca1ef808d1f",
        "meta": {
          "profile": [
            "http://hl7.eu/fhir/laboratory/StructureDefinition/Observation-resultslab-eu-lab"
          ]
        },
        "performer": [
          {
            "display": "The Central European Lab"
          }
        ],
        "category": [
          {
            "coding": [
              {
                "system": "http://terminology.hl7.org/CodeSystem/observation-category",
                "code": "laboratory"
              }
            ]
          }
        ],
        "code": {
          "coding": [
            {
              "code": "5778-6",
              "system": "http://loinc.org",
              "display": "Color of Urine"
            }
          ],
          "text": "Color of Urine"
        },
        "text": {
          "status": "generated",
          "div": "<div xmlns=\"http://www.w3.org/1999/xhtml\"><table class=\"hl7__eu__lab__report\"><tr><th>Test</th><th>07-Jun-2024</th><th>Reference&#xA0;Range</th><th>Unit</th></tr><tr><td>Color of Urine</td></tr></table></div>"
        },
        "status": "final",
        "subject": {
          "reference": "urn:uuid:6b323346-c4ae-48bd-bf65-e400ab4fb219",
          "display": "Victor Lagarde"
        },
        "effectiveDateTime": "2024-06-07T04:48:18Z",
        "specimen": {
          "reference": "urn:uuid:04a70d7e-2623-4767-b9c6-a7b7c5c48372"
        }
      }
    },
    {
      "fullUrl": "urn:uuid:10efc22e-41b0-459a-b3e6-2b2974690ec5",
      "resource": {
        "resourceType": "Observation",
        "id": "10efc22e-41b0-459a-b3e6-2b2974690ec5",
        "meta": {
          "profile": [
            "http://hl7.eu/fhir/laboratory/StructureDefinition/Observation-resultslab-eu-lab"
          ]
        },
        "performer": [
          {
            "display": "The Central European Lab"
          }
        ],
        "category": [
          {
            "coding": [
              {
                "system": "http://terminology.hl7.org/CodeSystem/observation-category",
                "code": "laboratory"
              }
            ]
          }
        ],
        "code": {
          "coding": [
            {
              "code": "5792-7",
              "system": "http://loinc.org",
              "display": "Glucose [Mass/volume] in Urine by Test strip"
            }
          ],
          "text": "Glucose [Mass/volume] in Urine by Test strip"
        },
        "valueQuantity": {
          "system": "http://unitsofmeasure.org",
          "value": 1.4,
          "unit": "mg/dL",
          "code": "mg/dL"
        },
        "referenceRange": [
          {
            "low": {
              "value": 0,
              "code": "mg/dL",
              "system": "http://unitsofmeasure.org"
            }
          },
          {
            "high": {
              "value": 0.8,
              "code": "mg/dL",
              "system": "http://unitsofmeasure.org"
            }
          }
        ],
        "interpretation": [
          {
            "coding": [
              {
                "code": "H",
                "system": "http://terminology.hl7.org/CodeSystem/v3-ObservationInterpretation",
                "display": "High"
              }
            ]
          }
        ],
        "text": {
          "status": "generated",
          "div": "<div xmlns=\"http://www.w3.org/1999/xhtml\"><table class=\"hl7__eu__lab__report\"><tr><th>Test</th><th>07-Jun-2024</th><th>Reference&#xA0;Range</th><th>Unit</th></tr><tr><td>Glucose [Mass/volume] in Urine by Test strip</td><td>1.4</td><td>0 - 0.8</td><td>H</td><td>mg/dL</td></tr></table></div>"
        },
        "status": "final",
        "subject": {
          "reference": "urn:uuid:6b323346-c4ae-48bd-bf65-e400ab4fb219",
          "display": "Victor Lagarde"
        },
        "effectiveDateTime": "2024-06-07T04:48:18Z",
        "specimen": {
          "reference": "urn:uuid:04a70d7e-2623-4767-b9c6-a7b7c5c48372"
        }
      }
    },
    {
      "fullUrl": "urn:uuid:b7257f3d-adbc-4edf-a3c3-88071e00feb1",
      "resource": {
        "resourceType": "Observation",
        "id": "b7257f3d-adbc-4edf-a3c3-88071e00feb1",
        "meta": {
          "profile": [
            "http://hl7.eu/fhir/laboratory/StructureDefinition/Observation-resultslab-eu-lab"
          ]
        },
        "performer": [
          {
            "display": "The Central European Lab"
          }
        ],
        "category": [
          {
            "coding": [
              {
                "system": "http://terminology.hl7.org/CodeSystem/observation-category",
                "code": "laboratory"
              }
            ]
          }
        ],
        "code": {
          "coding": [
            {
              "code": "25428-4",
              "system": "http://loinc.org",
              "display": "Glucose [Presence] in Urine by Test strip"
            }
          ],
          "text": "Glucose [Presence] in Urine by Test strip"
        },
        "text": {
          "status": "generated",
          "div": "<div xmlns=\"http://www.w3.org/1999/xhtml\"><table class=\"hl7__eu__lab__report\"><tr><th>Test</th><th>07-Jun-2024</th><th>Reference&#xA0;Range</th><th>Unit</th></tr><tr><td>Glucose [Presence] in Urine by Test strip</td></tr></table></div>"
        },
        "status": "final",
        "subject": {
          "reference": "urn:uuid:6b323346-c4ae-48bd-bf65-e400ab4fb219",
          "display": "Victor Lagarde"
        },
        "effectiveDateTime": "2024-06-07T04:48:18Z",
        "specimen": {
          "reference": "urn:uuid:04a70d7e-2623-4767-b9c6-a7b7c5c48372"
        }
      }
    },
    {
      "fullUrl": "urn:uuid:cec81e13-e577-489c-84b2-4b820d8fdb7a",
      "resource": {
        "resourceType": "Observation",
        "id": "cec81e13-e577-489c-84b2-4b820d8fdb7a",
        "meta": {
          "profile": [
            "http://hl7.eu/fhir/laboratory/StructureDefinition/Observation-resultslab-eu-lab"
          ]
        },
        "performer": [
          {
            "display": "The Central European Lab"
          }
        ],
        "category": [
          {
            "coding": [
              {
                "system": "http://terminology.hl7.org/CodeSystem/observation-category",
                "code": "laboratory"
              }
            ]
          }
        ],
        "code": {
          "coding": [
            {
              "code": "20505-4",
              "system": "http://loinc.org",
              "display": "Bilirubin.total [Mass/volume] in Urine by Test strip"
            }
          ],
          "text": "Bilirubin.total [Mass/volume] in Urine by Test strip"
        },
        "valueQuantity": {
          "system": "http://unitsofmeasure.org",
          "value": 0.9,
          "unit": "mg/dL",
          "code": "mg/dL"
        },
        "referenceRange": [
          {
            "low": {
              "value": 0,
              "code": "mg/dL",
              "system": "http://unitsofmeasure.org"
            }
          },
          {
            "high": {
              "value": 1.9,
              "code": "mg/dL",
              "system": "http://unitsofmeasure.org"
            }
          }
        ],
        "text": {
          "status": "generated",
          "div": "<div xmlns=\"http://www.w3.org/1999/xhtml\"><table class=\"hl7__eu__lab__report\"><tr><th>Test</th><th>07-Jun-2024</th><th>Reference&#xA0;Range</th><th>Unit</th></tr><tr><td>Bilirubin.total [Mass/volume] in Urine by Test strip</td><td>0.9</td><td>0 - 1.9</td><td></td><td>mg/dL</td></tr></table></div>"
        },
        "status": "final",
        "subject": {
          "reference": "urn:uuid:6b323346-c4ae-48bd-bf65-e400ab4fb219",
          "display": "Victor Lagarde"
        },
        "effectiveDateTime": "2024-06-07T04:48:18Z",
        "specimen": {
          "reference": "urn:uuid:04a70d7e-2623-4767-b9c6-a7b7c5c48372"
        }
      }
    },
    {
      "fullUrl": "urn:uuid:0f8d6b53-6e6c-488d-9d84-ea10fccd7a67",
      "resource": {
        "resourceType": "Observation",
        "id": "0f8d6b53-6e6c-488d-9d84-ea10fccd7a67",
        "meta": {
          "profile": [
            "http://hl7.eu/fhir/laboratory/StructureDefinition/Observation-resultslab-eu-lab"
          ]
        },
        "performer": [
          {
            "display": "The Central European Lab"
          }
        ],
        "category": [
          {
            "coding": [
              {
                "system": "http://terminology.hl7.org/CodeSystem/observation-category",
                "code": "laboratory"
              }
            ]
          }
        ],
        "code": {
          "coding": [
            {
              "code": "5770-3",
              "system": "http://loinc.org",
              "display": "Bilirubin.total [Presence] in Urine by Test strip"
            }
          ],
          "text": "Bilirubin.total [Presence] in Urine by Test strip"
        },
        "text": {
          "status": "generated",
          "div": "<div xmlns=\"http://www.w3.org/1999/xhtml\"><table class=\"hl7__eu__lab__report\"><tr><th>Test</th><th>07-Jun-2024</th><th>Reference&#xA0;Range</th><th>Unit</th></tr><tr><td>Bilirubin.total [Presence] in Urine by Test strip</td></tr></table></div>"
        },
        "status": "final",
        "subject": {
          "reference": "urn:uuid:6b323346-c4ae-48bd-bf65-e400ab4fb219",
          "display": "Victor Lagarde"
        },
        "effectiveDateTime": "2024-06-07T04:48:18Z",
        "specimen": {
          "reference": "urn:uuid:04a70d7e-2623-4767-b9c6-a7b7c5c48372"
        }
      }
    },
    {
      "fullUrl": "urn:uuid:9d42bf5a-4bde-409d-a7c5-811ff8fc80c4",
      "resource": {
        "resourceType": "Observation",
        "id": "9d42bf5a-4bde-409d-a7c5-811ff8fc80c4",
        "meta": {
          "profile": [
            "http://hl7.eu/fhir/laboratory/StructureDefinition/Observation-resultslab-eu-lab"
          ]
        },
        "performer": [
          {
            "display": "The Central European Lab"
          }
        ],
        "category": [
          {
            "coding": [
              {
                "system": "http://terminology.hl7.org/CodeSystem/observation-category",
                "code": "laboratory"
              }
            ]
          }
        ],
        "code": {
          "coding": [
            {
              "code": "5797-6",
              "system": "http://loinc.org",
              "display": "Ketones [Mass/volume] in Urine by Test strip"
            }
          ],
          "text": "Ketones [Mass/volume] in Urine by Test strip"
        },
        "valueQuantity": {
          "system": "http://unitsofmeasure.org",
          "value": 5.5,
          "unit": "mg/dL",
          "code": "mg/dL"
        },
        "referenceRange": [
          {
            "low": {
              "value": 0,
              "code": "mg/dL",
              "system": "http://unitsofmeasure.org"
            }
          },
          {
            "high": {
              "value": 3,
              "code": "mg/dL",
              "system": "http://unitsofmeasure.org"
            }
          }
        ],
        "interpretation": [
          {
            "coding": [
              {
                "code": "H",
                "system": "http://terminology.hl7.org/CodeSystem/v3-ObservationInterpretation",
                "display": "High"
              }
            ]
          }
        ],
        "text": {
          "status": "generated",
          "div": "<div xmlns=\"http://www.w3.org/1999/xhtml\"><table class=\"hl7__eu__lab__report\"><tr><th>Test</th><th>07-Jun-2024</th><th>Reference&#xA0;Range</th><th>Unit</th></tr><tr><td>Ketones [Mass/volume] in Urine by Test strip</td><td>5.5</td><td>0 - 3</td><td>H</td><td>mg/dL</td></tr></table></div>"
        },
        "status": "final",
        "subject": {
          "reference": "urn:uuid:6b323346-c4ae-48bd-bf65-e400ab4fb219",
          "display": "Victor Lagarde"
        },
        "effectiveDateTime": "2024-06-07T04:48:18Z",
        "specimen": {
          "reference": "urn:uuid:04a70d7e-2623-4767-b9c6-a7b7c5c48372"
        }
      }
    },
    {
      "fullUrl": "urn:uuid:26e31b48-a637-4f24-aee2-c733feb6157b",
      "resource": {
        "resourceType": "Observation",
        "id": "26e31b48-a637-4f24-aee2-c733feb6157b",
        "meta": {
          "profile": [
            "http://hl7.eu/fhir/laboratory/StructureDefinition/Observation-resultslab-eu-lab"
          ]
        },
        "performer": [
          {
            "display": "The Central European Lab"
          }
        ],
        "category": [
          {
            "coding": [
              {
                "system": "http://terminology.hl7.org/CodeSystem/observation-category",
                "code": "laboratory"
              }
            ]
          }
        ],
        "code": {
          "coding": [
            {
              "code": "2514-8",
              "system": "http://loinc.org",
              "display": "Ketones [Presence] in Urine by Test strip"
            }
          ],
          "text": "Ketones [Presence] in Urine by Test strip"
        },
        "text": {
          "status": "generated",
          "div": "<div xmlns=\"http://www.w3.org/1999/xhtml\"><table class=\"hl7__eu__lab__report\"><tr><th>Test</th><th>07-Jun-2024</th><th>Reference&#xA0;Range</th><th>Unit</th></tr><tr><td>Ketones [Presence] in Urine by Test strip</td></tr></table></div>"
        },
        "status": "final",
        "subject": {
          "reference": "urn:uuid:6b323346-c4ae-48bd-bf65-e400ab4fb219",
          "display": "Victor Lagarde"
        },
        "effectiveDateTime": "2024-06-07T04:48:18Z",
        "specimen": {
          "reference": "urn:uuid:04a70d7e-2623-4767-b9c6-a7b7c5c48372"
        }
      }
    },
    {
      "fullUrl": "urn:uuid:7009896f-6671-43c8-95a9-e4e3f8d24197",
      "resource": {
        "resourceType": "Observation",
        "id": "7009896f-6671-43c8-95a9-e4e3f8d24197",
        "meta": {
          "profile": [
            "http://hl7.eu/fhir/laboratory/StructureDefinition/Observation-resultslab-eu-lab"
          ]
        },
        "performer": [
          {
            "display": "The Central European Lab"
          }
        ],
        "category": [
          {
            "coding": [
              {
                "system": "http://terminology.hl7.org/CodeSystem/observation-category",
                "code": "laboratory"
              }
            ]
          }
        ],
        "code": {
          "coding": [
            {
              "code": "5811-5",
              "system": "http://loinc.org",
              "display": "Specific gravity of Urine by Test strip"
            }
          ],
          "text": "Specific gravity of Urine by Test strip"
        },
        "valueQuantity": {
          "system": "http://unitsofmeasure.org",
          "value": 1,
          "unit": "{nominal}",
          "code": "{nominal}"
        },
        "referenceRange": [
          {
            "low": {
              "value": 1.01,
              "code": "g/mL",
              "system": "http://unitsofmeasure.org"
            }
          },
          {
            "high": {
              "value": 1.03,
              "code": "g/mL",
              "system": "http://unitsofmeasure.org"
            }
          }
        ],
        "interpretation": [
          {
            "coding": [
              {
                "code": "L",
                "system": "http://terminology.hl7.org/CodeSystem/v3-ObservationInterpretation",
                "display": "Low"
              }
            ]
          }
        ],
        "text": {
          "status": "generated",
          "div": "<div xmlns=\"http://www.w3.org/1999/xhtml\"><table class=\"hl7__eu__lab__report\"><tr><th>Test</th><th>07-Jun-2024</th><th>Reference&#xA0;Range</th><th>Unit</th></tr><tr><td>Specific gravity of Urine by Test strip</td><td>1.0</td><td>1.01 - 1.03</td><td>L</td><td>{nominal}</td></tr></table></div>"
        },
        "status": "final",
        "subject": {
          "reference": "urn:uuid:6b323346-c4ae-48bd-bf65-e400ab4fb219",
          "display": "Victor Lagarde"
        },
        "effectiveDateTime": "2024-06-07T04:48:18Z",
        "specimen": {
          "reference": "urn:uuid:04a70d7e-2623-4767-b9c6-a7b7c5c48372"
        }
      }
    },
    {
      "fullUrl": "urn:uuid:f91f0c67-44a9-42d7-afda-f6cf8aeb39ee",
      "resource": {
        "resourceType": "Observation",
        "id": "f91f0c67-44a9-42d7-afda-f6cf8aeb39ee",
        "meta": {
          "profile": [
            "http://hl7.eu/fhir/laboratory/StructureDefinition/Observation-resultslab-eu-lab"
          ]
        },
        "performer": [
          {
            "display": "The Central European Lab"
          }
        ],
        "category": [
          {
            "coding": [
              {
                "system": "http://terminology.hl7.org/CodeSystem/observation-category",
                "code": "laboratory"
              }
            ]
          }
        ],
        "code": {
          "coding": [
            {
              "code": "5803-2",
              "system": "http://loinc.org",
              "display": "pH of Urine by Test strip"
            }
          ],
          "text": "pH of Urine by Test strip"
        },
        "valueQuantity": {
          "system": "http://unitsofmeasure.org",
          "value": 6.4,
          "unit": "pH",
          "code": "pH"
        },
        "referenceRange": [
          {
            "low": {
              "value": 4.5,
              "code": "pH",
              "system": "http://unitsofmeasure.org"
            }
          },
          {
            "high": {
              "value": 7.5,
              "code": "pH",
              "system": "http://unitsofmeasure.org"
            }
          }
        ],
        "text": {
          "status": "generated",
          "div": "<div xmlns=\"http://www.w3.org/1999/xhtml\"><table class=\"hl7__eu__lab__report\"><tr><th>Test</th><th>07-Jun-2024</th><th>Reference&#xA0;Range</th><th>Unit</th></tr><tr><td>pH of Urine by Test strip</td><td>6.4</td><td>4.5 - 7.5</td><td></td><td>pH</td></tr></table></div>"
        },
        "status": "final",
        "subject": {
          "reference": "urn:uuid:6b323346-c4ae-48bd-bf65-e400ab4fb219",
          "display": "Victor Lagarde"
        },
        "effectiveDateTime": "2024-06-07T04:48:18Z",
        "specimen": {
          "reference": "urn:uuid:04a70d7e-2623-4767-b9c6-a7b7c5c48372"
        }
      }
    },
    {
      "fullUrl": "urn:uuid:b4c2411a-8e66-476d-b784-16c92ba3b719",
      "resource": {
        "resourceType": "Observation",
        "id": "b4c2411a-8e66-476d-b784-16c92ba3b719",
        "meta": {
          "profile": [
            "http://hl7.eu/fhir/laboratory/StructureDefinition/Observation-resultslab-eu-lab"
          ]
        },
        "performer": [
          {
            "display": "The Central European Lab"
          }
        ],
        "category": [
          {
            "coding": [
              {
                "system": "http://terminology.hl7.org/CodeSystem/observation-category",
                "code": "laboratory"
              }
            ]
          }
        ],
        "code": {
          "coding": [
            {
              "code": "5804-0",
              "system": "http://loinc.org",
              "display": "Protein [Mass/volume] in Urine by Test strip"
            }
          ],
          "text": "Protein [Mass/volume] in Urine by Test strip"
        },
        "valueQuantity": {
          "system": "http://unitsofmeasure.org",
          "value": 324.6,
          "unit": "mg/dL",
          "code": "mg/dL"
        },
        "referenceRange": [
          {
            "low": {
              "value": 0,
              "code": "mg/dL",
              "system": "http://unitsofmeasure.org"
            }
          },
          {
            "high": {
              "value": 149,
              "code": "mg/dL",
              "system": "http://unitsofmeasure.org"
            }
          }
        ],
        "interpretation": [
          {
            "coding": [
              {
                "code": "H",
                "system": "http://terminology.hl7.org/CodeSystem/v3-ObservationInterpretation",
                "display": "High"
              }
            ]
          }
        ],
        "text": {
          "status": "generated",
          "div": "<div xmlns=\"http://www.w3.org/1999/xhtml\"><table class=\"hl7__eu__lab__report\"><tr><th>Test</th><th>07-Jun-2024</th><th>Reference&#xA0;Range</th><th>Unit</th></tr><tr><td>Protein [Mass/volume] in Urine by Test strip</td><td>324.6</td><td>0 - 149</td><td>H</td><td>mg/dL</td></tr></table></div>"
        },
        "status": "final",
        "subject": {
          "reference": "urn:uuid:6b323346-c4ae-48bd-bf65-e400ab4fb219",
          "display": "Victor Lagarde"
        },
        "effectiveDateTime": "2024-06-07T04:48:18Z",
        "specimen": {
          "reference": "urn:uuid:04a70d7e-2623-4767-b9c6-a7b7c5c48372"
        }
      }
    },
    {
      "fullUrl": "urn:uuid:6a896cfd-f8c2-49d3-a73c-8bad94cdd2aa",
      "resource": {
        "resourceType": "Observation",
        "id": "6a896cfd-f8c2-49d3-a73c-8bad94cdd2aa",
        "meta": {
          "profile": [
            "http://hl7.eu/fhir/laboratory/StructureDefinition/Observation-resultslab-eu-lab"
          ]
        },
        "performer": [
          {
            "display": "The Central European Lab"
          }
        ],
        "category": [
          {
            "coding": [
              {
                "system": "http://terminology.hl7.org/CodeSystem/observation-category",
                "code": "laboratory"
              }
            ]
          }
        ],
        "code": {
          "coding": [
            {
              "code": "20454-5",
              "system": "http://loinc.org",
              "display": "Protein [Presence] in Urine by Test strip"
            }
          ],
          "text": "Protein [Presence] in Urine by Test strip"
        },
        "text": {
          "status": "generated",
          "div": "<div xmlns=\"http://www.w3.org/1999/xhtml\"><table class=\"hl7__eu__lab__report\"><tr><th>Test</th><th>07-Jun-2024</th><th>Reference&#xA0;Range</th><th>Unit</th></tr><tr><td>Protein [Presence] in Urine by Test strip</td></tr></table></div>"
        },
        "status": "final",
        "subject": {
          "reference": "urn:uuid:6b323346-c4ae-48bd-bf65-e400ab4fb219",
          "display": "Victor Lagarde"
        },
        "effectiveDateTime": "2024-06-07T04:48:18Z",
        "specimen": {
          "reference": "urn:uuid:04a70d7e-2623-4767-b9c6-a7b7c5c48372"
        }
      }
    },
    {
      "fullUrl": "urn:uuid:749551f6-2082-459f-8fd5-db5c099c18a3",
      "resource": {
        "resourceType": "Observation",
        "id": "749551f6-2082-459f-8fd5-db5c099c18a3",
        "meta": {
          "profile": [
            "http://hl7.eu/fhir/laboratory/StructureDefinition/Observation-resultslab-eu-lab"
          ]
        },
        "performer": [
          {
            "display": "The Central European Lab"
          }
        ],
        "category": [
          {
            "coding": [
              {
                "system": "http://terminology.hl7.org/CodeSystem/observation-category",
                "code": "laboratory"
              }
            ]
          }
        ],
        "code": {
          "coding": [
            {
              "code": "5802-4",
              "system": "http://loinc.org",
              "display": "Nitrite [Presence] in Urine by Test strip"
            }
          ],
          "text": "Nitrite [Presence] in Urine by Test strip"
        },
        "text": {
          "status": "generated",
          "div": "<div xmlns=\"http://www.w3.org/1999/xhtml\"><table class=\"hl7__eu__lab__report\"><tr><th>Test</th><th>07-Jun-2024</th><th>Reference&#xA0;Range</th><th>Unit</th></tr><tr><td>Nitrite [Presence] in Urine by Test strip</td></tr></table></div>"
        },
        "status": "final",
        "subject": {
          "reference": "urn:uuid:6b323346-c4ae-48bd-bf65-e400ab4fb219",
          "display": "Victor Lagarde"
        },
        "effectiveDateTime": "2024-06-07T04:48:18Z",
        "specimen": {
          "reference": "urn:uuid:04a70d7e-2623-4767-b9c6-a7b7c5c48372"
        }
      }
    },
    {
      "fullUrl": "urn:uuid:945a5e25-ed2e-454a-ab42-201441fc670f",
      "resource": {
        "resourceType": "Observation",
        "id": "945a5e25-ed2e-454a-ab42-201441fc670f",
        "meta": {
          "profile": [
            "http://hl7.eu/fhir/laboratory/StructureDefinition/Observation-resultslab-eu-lab"
          ]
        },
        "performer": [
          {
            "display": "The Central European Lab"
          }
        ],
        "category": [
          {
            "coding": [
              {
                "system": "http://terminology.hl7.org/CodeSystem/observation-category",
                "code": "laboratory"
              }
            ]
          }
        ],
        "code": {
          "coding": [
            {
              "code": "5794-3",
              "system": "http://loinc.org",
              "display": "Hemoglobin [Presence] in Urine by Test strip"
            }
          ],
          "text": "Hemoglobin [Presence] in Urine by Test strip"
        },
        "text": {
          "status": "generated",
          "div": "<div xmlns=\"http://www.w3.org/1999/xhtml\"><table class=\"hl7__eu__lab__report\"><tr><th>Test</th><th>07-Jun-2024</th><th>Reference&#xA0;Range</th><th>Unit</th></tr><tr><td>Hemoglobin [Presence] in Urine by Test strip</td></tr></table></div>"
        },
        "status": "final",
        "subject": {
          "reference": "urn:uuid:6b323346-c4ae-48bd-bf65-e400ab4fb219",
          "display": "Victor Lagarde"
        },
        "effectiveDateTime": "2024-06-07T04:48:18Z",
        "specimen": {
          "reference": "urn:uuid:04a70d7e-2623-4767-b9c6-a7b7c5c48372"
        }
      }
    },
    {
      "fullUrl": "urn:uuid:1edc9841-76bf-46e6-9bd0-c6408ac657b7",
      "resource": {
        "resourceType": "Observation",
        "id": "1edc9841-76bf-46e6-9bd0-c6408ac657b7",
        "meta": {
          "profile": [
            "http://hl7.eu/fhir/laboratory/StructureDefinition/Observation-resultslab-eu-lab"
          ]
        },
        "performer": [
          {
            "display": "The Central European Lab"
          }
        ],
        "category": [
          {
            "coding": [
              {
                "system": "http://terminology.hl7.org/CodeSystem/observation-category",
                "code": "laboratory"
              }
            ]
          }
        ],
        "code": {
          "coding": [
            {
              "code": "5799-2",
              "system": "http://loinc.org",
              "display": "Leukocyte esterase [Presence] in Urine by Test strip"
            }
          ],
          "text": "Leukocyte esterase [Presence] in Urine by Test strip"
        },
        "text": {
          "status": "generated",
          "div": "<div xmlns=\"http://www.w3.org/1999/xhtml\"><table class=\"hl7__eu__lab__report\"><tr><th>Test</th><th>07-Jun-2024</th><th>Reference&#xA0;Range</th><th>Unit</th></tr><tr><td>Leukocyte esterase [Presence] in Urine by Test strip</td></tr></table></div>"
        },
        "status": "final",
        "subject": {
          "reference": "urn:uuid:6b323346-c4ae-48bd-bf65-e400ab4fb219",
          "display": "Victor Lagarde"
        },
        "effectiveDateTime": "2024-06-07T04:48:18Z",
        "specimen": {
          "reference": "urn:uuid:04a70d7e-2623-4767-b9c6-a7b7c5c48372"
        }
      }
    },
    {
      "fullUrl": "urn:uuid:d8e09343-98ad-45a3-ae08-5f649a4f5c58",
      "resource": {
        "resourceType": "Observation",
        "id": "d8e09343-98ad-45a3-ae08-5f649a4f5c58",
        "meta": {
          "profile": [
            "http://hl7.eu/fhir/laboratory/StructureDefinition/Observation-resultslab-eu-lab"
          ]
        },
        "performer": [
          {
            "display": "The Central European Lab"
          }
        ],
        "category": [
          {
            "coding": [
              {
                "system": "http://terminology.hl7.org/CodeSystem/observation-category",
                "code": "laboratory"
              }
            ]
          }
        ],
        "code": {
          "coding": [
            {
              "code": "4548-4",
              "system": "http://loinc.org",
              "display": "Hemoglobin A1c/Hemoglobin.total in Blood"
            }
          ],
          "text": "Hemoglobin A1c/Hemoglobin.total in Blood"
        },
        "valueQuantity": {
          "system": "http://unitsofmeasure.org",
          "value": 3.1,
          "unit": "%",
          "code": "%"
        },
        "referenceRange": [
          {
            "low": {
              "value": 4.3,
              "code": "%",
              "system": "http://unitsofmeasure.org"
            }
          },
          {
            "high": {
              "value": 6,
              "code": "%",
              "system": "http://unitsofmeasure.org"
            }
          }
        ],
        "interpretation": [
          {
            "coding": [
              {
                "code": "L",
                "system": "http://terminology.hl7.org/CodeSystem/v3-ObservationInterpretation",
                "display": "Low"
              }
            ]
          }
        ],
        "text": {
          "status": "generated",
          "div": "<div xmlns=\"http://www.w3.org/1999/xhtml\"><table class=\"hl7__eu__lab__report\"><tr><th>Test</th><th>07-Jun-2024</th><th>Reference&#xA0;Range</th><th>Unit</th></tr><tr><td>Hemoglobin A1c/Hemoglobin.total in Blood</td><td>3.1</td><td>4.3 - 6</td><td>L</td><td>%</td></tr></table></div>"
        },
        "status": "final",
        "subject": {
          "reference": "urn:uuid:6b323346-c4ae-48bd-bf65-e400ab4fb219",
          "display": "Victor Lagarde"
        },
        "effectiveDateTime": "2024-06-07T04:48:18Z",
        "specimen": {
          "reference": "urn:uuid:ad367913-05ec-4963-b393-cdf9dd9f2b72"
        }
      }
    },
    {
      "fullUrl": "urn:uuid:74cd947b-5ba1-4161-860b-b17c7dd4c96d",
      "resource": {
        "resourceType": "Device",
        "id": "74cd947b-5ba1-4161-860b-b17c7dd4c96d",
        "deviceName": [
          {
            "name": "SYNDERAI Synthetic Generator",
            "type": "manufacturer-name"
          }
        ],
        "version": [
          {
            "value": "5.0"
          }
        ],
        "text": {
          "status": "generated",
          "div": "<div xmlns=\"http://www.w3.org/1999/xhtml\">SYNDERAI Synthetic Generator v5.0</div>"
        },
        "status": "active\"",
        "distinctIdentifier": "synderai-generator-50",
        "manufacturer": "SYNDERAI Project"
      }
    },
    {
      "fullUrl": "urn:uuid:fa594e79-e960-4166-8063-50bb3084dd85",
      "resource": {
        "resourceType": "Provenance",
        "id": "fa594e79-e960-4166-8063-50bb3084dd85",
        "target": [
          {
            "reference": "Patient/6b323346-c4ae-48bd-bf65-e400ab4fb219"
          },
          {
            "reference": "Bundle/d1311dcd-e9c3-4900-aec6-358877d656ed"
          },
          {
            "reference": "Composition/a31bdeac-5610-4a31-a454-c64591010261"
          },
          {
            "reference": "PractitionerRole/784737ca-96c3-4678-b142-6397bb518739"
          },
          {
            "reference": "Practitioner/764ad94d-0b97-41fa-90b3-f3398bdaa410"
          },
          {
            "reference": "PractitionerRole/3aca0a38-8deb-47fc-b28b-1c1eddcdf3cf"
          },
          {
            "reference": "Organization/8eb70bf9-62af-45ab-ad9e-fca24d0b8d23"
          }
        ],
        "activity": {
          "text": "Synthetic Example Data Generation"
        },
        "policy": [
          "https://synderai.net/synderai-synthetic-data-policy"
        ],
        "agent": [
          {
            "type": {
              "text": "author"
            },
            "who": {
              "reference": "Device/74cd947b-5ba1-4161-860b-b17c7dd4c96d"
            }
          }
        ],
        "reason": [
          {
            "text": "Interoperability Testing and Training (non-clinical use)"
          }
        ],
        "text": {
          "status": "generated",
          "div": "<div xmlns=\"http://www.w3.org/1999/xhtml\">Provenance for SYNDERAI Synthetic Example Data Resource</div>"
        },
        "recorded": "2024-06-07T06:48:18Z"
      }
    },
    {
      "fullUrl": "urn:uuid:784737ca-96c3-4678-b142-6397bb518739",
      "resource": {
        "resourceType": "PractitionerRole",
        "id": "784737ca-96c3-4678-b142-6397bb518739",
        "meta": {
          "profile": [
            "http://hl7.eu/fhir/base/StructureDefinition/practitionerRole-eu"
          ]
        },
        "text": {
          "status": "generated",
          "div": "<div xmlns=\"http://www.w3.org/1999/xhtml\">Laboratory Role Id: 784737ca-96c3-4678-b142-6397bb518739</div>"
        },
        "practitioner": {
          "reference": "urn:uuid:764ad94d-0b97-41fa-90b3-f3398bdaa410"
        }
      }
    },
    {
      "fullUrl": "urn:uuid:764ad94d-0b97-41fa-90b3-f3398bdaa410",
      "resource": {
        "resourceType": "Practitioner",
        "id": "764ad94d-0b97-41fa-90b3-f3398bdaa410",
        "meta": {
          "profile": [
            "http://hl7.eu/fhir/base/StructureDefinition/practitioner-eu"
          ]
        },
        "identifier": [
          {
            "assigner": {
              "display": "HL7 Europe"
            },
            "system": "urn:oid:2.16.840.1.113883.2.51.999",
            "value": "eed7fcc4-804f-45dc-831d-007965790908"
          }
        ],
        "name": [
          {
            "prefix": [
              "dr"
            ],
            "given": [
              "Ex"
            ],
            "family": "Ample"
          }
        ],
        "address": [
          {
            "line": [
              "Laboratoire Central Europenne",
              "Boulevard du Jardin Botanique 32"
            ],
            "postalCode": "1000",
            "city": "Brussels",
            "country": "Belgium"
          }
        ],
        "text": {
          "status": "generated",
          "div": "<div xmlns=\"http://www.w3.org/1999/xhtml\">Laboratory: Laboratoire Central Europenne, 1000 Brussels, Belgium</div>"
        }
      }
    }
  ],
  "type": "document",
  "timestamp": "2024-06-07T06:48:18Z"
}
