{
  "resourceType": "Bundle",
  "id": "0a143566-c59e-4382-bc90-92c1cce362ec",
  "meta": {
    "profile": [
      "http://hl7.eu/fhir/laboratory/StructureDefinition/Bundle-eu-lab"
    ]
  },
  "identifier": {
    "assigner": {
      "display": "HL7 Europe"
    },
    "system": "urn:oid:2.16.840.1.113883.2.51.999",
    "value": "52f59722-3af7-4f5c-9655-f6cf5bf578d2"
  },
  "entry": [
    {
      "fullUrl": "urn:uuid:ac1ba09a-f8f6-4b3d-8fd4-61d135c809b1",
      "resource": {
        "resourceType": "Composition",
        "id": "ac1ba09a-f8f6-4b3d-8fd4-61d135c809b1",
        "meta": {
          "profile": [
            "http://hl7.eu/fhir/laboratory/StructureDefinition/Composition-eu-lab"
          ]
        },
        "identifier": {
          "assigner": {
            "display": "HL7 Europe"
          },
          "system": "urn:oid:2.16.840.1.113883.2.51.999",
          "value": "0d59cce5-9c5e-4796-adeb-46a1b9f356e1"
        },
        "author": [
          {
            "reference": "urn:uuid:99181a59-c716-4c36-b317-5821e7274244"
          }
        ],
        "category": [
          {
            "coding": [
              {
                "code": "26436-6",
                "system": "http://loinc.org",
                "display": "Laboratory studies (set)"
              }
            ]
          }
        ],
        "type": {
          "coding": [
            {
              "code": "11502-2",
              "system": "http://loinc.org",
              "display": "Laboratory report"
            }
          ],
          "text": "Laboratory Report"
        },
        "section": [
          {
            "code": {
              "coding": [
                {
                  "code": "26436-6",
                  "system": "http://loinc.org",
                  "display": "Laboratory studies (set)"
                }
              ],
              "text": "Laboratory studies"
            },
            "section": [
              {
                "code": {
                  "coding": [
                    {
                      "code": "$18719-5",
                      "system": "http://loinc.org",
                      "display": "Chemistry studies (set)"
                    }
                  ],
                  "text": "Chemistry"
                },
                "entry": [
                  {
                    "reference": "urn:uuid:30ea3daa-6575-4a3f-989d-f591f344aea4"
                  },
                  {
                    "reference": "urn:uuid:af915935-8d69-4723-a6f0-c906070cbc57"
                  },
                  {
                    "reference": "urn:uuid:2561fdcf-aa37-4a08-b12b-1648538d7c05"
                  },
                  {
                    "reference": "urn:uuid:d8a436b6-37c3-4061-be63-832af27a825c"
                  },
                  {
                    "reference": "urn:uuid:9d1d5e87-8180-40b3-9da0-ede01dba8452"
                  },
                  {
                    "reference": "urn:uuid:28289db9-a41e-434f-9256-fa7d5c392e61"
                  },
                  {
                    "reference": "urn:uuid:96055ddb-a946-483e-86bf-8413bdd01aa6"
                  },
                  {
                    "reference": "urn:uuid:cd691c0a-6777-4c33-8c75-a9c6598288be"
                  },
                  {
                    "reference": "urn:uuid:d878730e-d3b0-4817-8e6a-53d081e4d41a"
                  },
                  {
                    "reference": "urn:uuid:41df79c2-89c3-4dc8-89ec-3869e2f76e78"
                  },
                  {
                    "reference": "urn:uuid:9a4bc747-1e53-453a-a91c-cb69204bde87"
                  },
                  {
                    "reference": "urn:uuid:634dc83d-ce38-409f-893c-b4b9735d0f0a"
                  },
                  {
                    "reference": "urn:uuid:d3280e85-10c8-4d13-be51-579db92bcf17"
                  },
                  {
                    "reference": "urn:uuid:85dc9fe9-06e8-4eba-88c6-6b93957e6130"
                  },
                  {
                    "reference": "urn:uuid:d2d092d4-f118-42dd-ae8e-960881f9e325"
                  },
                  {
                    "reference": "urn:uuid:d4964bf2-7473-4e6d-91d2-2e1f291d8989"
                  },
                  {
                    "reference": "urn:uuid:9e3baf32-ee3e-4c82-a43d-40549a769152"
                  },
                  {
                    "reference": "urn:uuid:159ff75d-d627-434f-a92f-8facc7ce6e7c"
                  },
                  {
                    "reference": "urn:uuid:5ddd8706-8ba7-4db2-a625-235f8ec2c161"
                  }
                ],
                "text": {
                  "status": "generated",
                  "div": "<div xmlns=\"http://www.w3.org/1999/xhtml\"><h3>Chemistry</h3><table class=\"hl7__eu__lab__report\"><thead><tr><th>Test</th><th>23-APR-2024</th><th>Reference&#xA0;Range</th><th>Unit</th></tr></thead><tbody><tr><td>Glucose [Mass/volume] in Blood</td><td>72.7</td><td>70 - 140</td><td>mg/dL</td></tr><tr><td>Urea nitrogen [Mass/volume] in Blood</td><td>15.2</td><td>7 - 20</td><td>mg/dL</td></tr><tr><td>Creatinine [Mass/volume] in Blood</td><td><strong>3.4 H</strong></td><td>0.6 - 1.1</td><td>mg/dL</td></tr><tr><td>Calcium [Mass/volume] in Blood</td><td>8.6</td><td>8.5 - 10.4</td><td>mg/dL</td></tr><tr><td>Sodium [Moles/volume] in Blood</td><td>139.8</td><td>135 - 145</td><td>mmol/L</td></tr><tr><td>Potassium [Moles/volume] in Blood</td><td>4.5</td><td>3.5 - 5.1</td><td>mmol/L</td></tr><tr><td>Chloride [Moles/volume] in Blood</td><td><strong>108.4 H</strong></td><td>98 - 108</td><td>mmol/L</td></tr><tr><td>Carbon dioxide, total [Moles/volume] in Blood</td><td>23.2</td><td>22 - 29</td><td>mmol/L</td></tr><tr><td>Protein [Mass/volume] in Serum or Plasma</td><td>7.7</td><td>6 - 8.3</td><td>g/dL</td></tr><tr><td>Albumin [Mass/volume] in Serum or Plasma</td><td>4.7</td><td>3.4 - 5</td><td>g/dL</td></tr><tr><td>Globulin [Mass/volume] in Serum by calculation</td><td>3.0</td><td>2 - 3.5</td><td>g/L</td></tr><tr><td>Bilirubin.total [Mass/volume] in Serum or Plasma</td><td>0.9</td><td>0.2 - 1.2</td><td>mg/dL</td></tr><tr><td>Alkaline phosphatase [Enzymatic activity/volume] in Serum or Plasma</td><td>45.4</td><td>44 - 104</td><td>U/L</td></tr><tr><td>Alanine aminotransferase [Enzymatic activity/volume] in Serum or Plasma</td><td><strong>57.6 H</strong></td><td>13 - 36</td><td>U/L</td></tr><tr><td>Aspartate aminotransferase [Enzymatic activity/volume] in Serum or Plasma</td><td>10.6</td><td>10 - 40</td><td>U/L</td></tr><tr><td>Cholesterol [Mass/volume] in Serum or Plasma</td><td>154.4</td><td>130 - 200</td><td>mg/dL</td></tr><tr><td>Triglyceride [Mass/volume] in Serum or Plasma</td><td><strong>178.9 H</strong></td><td>35 - 175</td><td>mg/dL</td></tr><tr><td>Cholesterol in LDL [Mass/volume] in Serum or Plasma by Direct assay</td><td>148.1</td><td>0 - 190</td><td>mg/dL</td></tr><tr><td>Cholesterol in HDL [Mass/volume] in Serum or Plasma</td><td>68.8</td><td>50 - 100</td><td>mg/dL</td></tr></tbody></table></div>"
                },
                "title": "Chemistry"
              }
            ],
            "title": "Laboratory Report"
          },
          {
            "text": {
              "status": "generated",
              "div": "<div xmlns=\"http://www.w3.org/1999/xhtml\"><h3>Annotation</h3><table class=\"hl7__eu__lab__report\"><tr><th>Conclusion and Recommendations based on this report and previous findings known to us</th></tr><tr><td>The patient shows significantly elevated creatinine, suggesting impaired renal function, and mildly elevated chloride. ALT is raised, indicating possible liver involvement. Triglycerides are slightly above normal. Other parameters, including glucose, electrolytes, proteins, and liver enzymes, are within normal limits. Recommend clinical correlation for renal and hepatic function and consideration of further nephrological and hepatological evaluation.</td></tr></table></div>"
            },
            "code": {
              "coding": [
                {
                  "system": "http://loinc.org",
                  "code": "48767-8",
                  "display": "Annotation comment"
                }
              ]
            },
            "title": "Annotation comment"
          }
        ],
        "status": "final",
        "subject": {
          "reference": "urn:uuid:8e20f810-9922-4111-8ab1-587459a4c4b1",
          "display": "Eileen Taylor"
        },
        "date": "2024-04-23T07:47:02Z",
        "title": "Laboratory Report",
        "confidentiality": "N"
      }
    },
    {
      "fullUrl": "urn:uuid:65a683b1-4bd9-4404-8f41-67c316445bfa",
      "resource": {
        "resourceType": "DiagnosticReport",
        "id": "65a683b1-4bd9-4404-8f41-67c316445bfa",
        "meta": {
          "profile": [
            "http://hl7.eu/fhir/laboratory/StructureDefinition/DiagnosticReport-eu-lab"
          ]
        },
        "identifier": [
          {
            "assigner": {
              "display": "HL7 Europe"
            },
            "system": "urn:oid:2.16.840.1.113883.2.51.999",
            "value": "02b59db7-ffbb-426d-88f4-a270e6b23073"
          }
        ],
        "extension": [
          {
            "url": "http://hl7.org/fhir/5.0/StructureDefinition/extension-DiagnosticReport.composition",
            "valueReference": {
              "reference": "urn:uuid:0d59cce5-9c5e-4796-adeb-46a1b9f356e1"
            }
          }
        ],
        "category": [
          {
            "coding": [
              {
                "code": "26436-6",
                "system": "http://loinc.org",
                "display": "Laboratory studies (set)"
              }
            ]
          }
        ],
        "specimen": [
          {
            "reference": "urn:uuid:9b84510e-12b9-47d4-b981-c5f415516297"
          },
          {
            "reference": "urn:uuid:e0144e29-2b67-437e-9113-449b3837f9a1"
          },
          {
            "reference": "urn:uuid:3fab3ea0-3dc5-45c2-b253-83a69415652a"
          }
        ],
        "result": [
          {
            "reference": "urn:uuid:30ea3daa-6575-4a3f-989d-f591f344aea4"
          },
          {
            "reference": "urn:uuid:af915935-8d69-4723-a6f0-c906070cbc57"
          },
          {
            "reference": "urn:uuid:2561fdcf-aa37-4a08-b12b-1648538d7c05"
          },
          {
            "reference": "urn:uuid:d8a436b6-37c3-4061-be63-832af27a825c"
          },
          {
            "reference": "urn:uuid:9d1d5e87-8180-40b3-9da0-ede01dba8452"
          },
          {
            "reference": "urn:uuid:28289db9-a41e-434f-9256-fa7d5c392e61"
          },
          {
            "reference": "urn:uuid:96055ddb-a946-483e-86bf-8413bdd01aa6"
          },
          {
            "reference": "urn:uuid:cd691c0a-6777-4c33-8c75-a9c6598288be"
          },
          {
            "reference": "urn:uuid:d878730e-d3b0-4817-8e6a-53d081e4d41a"
          },
          {
            "reference": "urn:uuid:41df79c2-89c3-4dc8-89ec-3869e2f76e78"
          },
          {
            "reference": "urn:uuid:9a4bc747-1e53-453a-a91c-cb69204bde87"
          },
          {
            "reference": "urn:uuid:634dc83d-ce38-409f-893c-b4b9735d0f0a"
          },
          {
            "reference": "urn:uuid:d3280e85-10c8-4d13-be51-579db92bcf17"
          },
          {
            "reference": "urn:uuid:85dc9fe9-06e8-4eba-88c6-6b93957e6130"
          },
          {
            "reference": "urn:uuid:d2d092d4-f118-42dd-ae8e-960881f9e325"
          },
          {
            "reference": "urn:uuid:d4964bf2-7473-4e6d-91d2-2e1f291d8989"
          },
          {
            "reference": "urn:uuid:9e3baf32-ee3e-4c82-a43d-40549a769152"
          },
          {
            "reference": "urn:uuid:159ff75d-d627-434f-a92f-8facc7ce6e7c"
          },
          {
            "reference": "urn:uuid:5ddd8706-8ba7-4db2-a625-235f8ec2c161"
          }
        ],
        "status": "registered",
        "code": {
          "coding": [
            {
              "code": "11502-2",
              "system": "http://loinc.org",
              "display": "Laboratory report"
            }
          ]
        },
        "subject": {
          "reference": "urn:uuid:8e20f810-9922-4111-8ab1-587459a4c4b1",
          "display": "Eileen Taylor"
        }
      }
    },
    {
      "fullUrl": "urn:uuid:8e20f810-9922-4111-8ab1-587459a4c4b1",
      "resource": {
        "resourceType": "Patient",
        "id": "8e20f810-9922-4111-8ab1-587459a4c4b1",
        "meta": {
          "security": [
            {
              "system": "http://terminology.hl7.org/CodeSystem/v3-ActReason",
              "code": "HTEST"
            },
            {
              "system": "http://terminology.hl7.org/CodeSystem/v3-ActReason",
              "code": "TRAIN"
            }
          ],
          "tag": [
            {
              "system": "https://synderai.net/fhir/CodeSystem/tags",
              "code": "synthetic",
              "display": "SYNDERAI Synthetic data"
            }
          ],
          "profile": [
            "http://hl7.eu/fhir/base/StructureDefinition/patient-eu-core"
          ]
        },
        "identifier": [
          {
            "type": {
              "coding": [
                {
                  "code": "PT",
                  "system": "http://terminology.hl7.org/CodeSystem/v2-0203"
                }
              ]
            },
            "system": "http://ec.europa.eu/identifier/eci",
            "value": "6172-576075-7"
          },
          {
            "type": {
              "coding": [
                {
                  "code": "MR",
                  "system": "http://terminology.hl7.org/CodeSystem/v2-0203"
                }
              ]
            },
            "system": "http://local.setting.eu/identifier",
            "value": "f7f175da-cf0d-5686-8800-840d9ab7b47b"
          }
        ],
        "name": [
          {
            "family": "Taylor"
          },
          {
            "given": [
              "Eileen"
            ]
          },
          {
            "text": "Eileen Taylor"
          }
        ],
        "address": [
          {
            "line": [
              "39 Slater harbors"
            ],
            "use": "home",
            "type": "physical",
            "postalCode": "LE17",
            "city": "Smithtown",
            "country": "United Kingdom"
          }
        ],
        "telecom": [
          {
            "system": "phone",
            "value": "+44(0)1614960460"
          }
        ],
        "extension": [
          {
            "url": "http://hl7.org/fhir/StructureDefinition/patient-nationality",
            "valueCodeableConcept": {
              "coding": [
                {
                  "code": "GB",
                  "system": "http://hl7.org/fhir/ValueSet/country"
                }
              ]
            }
          }
        ],
        "text": {
          "status": "generated",
          "div": "<div xmlns=\"http://www.w3.org/1999/xhtml\"><table class=\"hl7__ips\"><tr><td>Eileen Taylor</td><td>female</td><td>11-Dec-1951</td></tr></table></div>"
        },
        "gender": "female",
        "birthDate": "1951-12-11"
      }
    },
    {
      "fullUrl": "urn:uuid:4b225aac-0ff4-48ca-8cee-ee5f028d1634",
      "resource": {
        "resourceType": "ServiceRequest",
        "id": "4b225aac-0ff4-48ca-8cee-ee5f028d1634",
        "meta": {
          "profile": [
            "http://hl7.eu/fhir/laboratory/StructureDefinition/ServiceRequest-eu-lab"
          ]
        },
        "identifier": [
          {
            "system": "http://example.org",
            "value": "fce79fc0-2291-4a17-a5de-681fc4da720e"
          }
        ],
        "specimen": [
          {
            "reference": "urn:uuid:9b84510e-12b9-47d4-b981-c5f415516297"
          },
          {
            "reference": "urn:uuid:e0144e29-2b67-437e-9113-449b3837f9a1"
          },
          {
            "reference": "urn:uuid:3fab3ea0-3dc5-45c2-b253-83a69415652a"
          }
        ],
        "reasonCode": [
          {
            "coding": [
              {
                "code": "203082005",
                "system": "http://snomed.info/sct",
                "display": "Fibromyalgia"
              }
            ]
          },
          {
            "coding": [
              {
                "code": "239873007",
                "system": "http://snomed.info/sct",
                "display": "Osteoarthritis of knee"
              }
            ]
          },
          {
            "coding": [
              {
                "code": "55822004",
                "system": "http://snomed.info/sct",
                "display": "Hyperlipidemia"
              }
            ]
          },
          {
            "coding": [
              {
                "code": "254837009",
                "system": "http://snomed.info/sct",
                "display": "Malignant neoplasm of breast"
              }
            ]
          },
          {
            "coding": [
              {
                "code": "197927001",
                "system": "http://snomed.info/sct",
                "display": "Recurrent urinary tract infection"
              }
            ]
          }
        ],
        "status": "active",
        "intent": "order",
        "code": {
          "coding": [
            {
              "code": "108252007",
              "system": "http://snomed.info/sct",
              "display": "Laboratory procedure"
            }
          ]
        },
        "subject": {
          "reference": "urn:uuid:8e20f810-9922-4111-8ab1-587459a4c4b1",
          "display": "Eileen Taylor"
        },
        "requester": {
          "reference": "urn:uuid:8f0a3001-8289-47b5-9ba8-a11369dc1cc4"
        }
      }
    },
    {
      "fullUrl": "urn:uuid:8f0a3001-8289-47b5-9ba8-a11369dc1cc4",
      "resource": {
        "resourceType": "PractitionerRole",
        "id": "8f0a3001-8289-47b5-9ba8-a11369dc1cc4",
        "meta": {
          "profile": [
            "http://hl7.eu/fhir/base/StructureDefinition/practitionerRole-eu"
          ]
        },
        "text": {
          "status": "generated",
          "div": "<div xmlns=\"http://www.w3.org/1999/xhtml\">Provider Role Id: 8f0a3001-8289-47b5-9ba8-a11369dc1cc4</div>"
        },
        "organization": {
          "reference": "urn:uuid:a3532aea-6a1c-4eeb-b15b-5af5d71b282d"
        }
      }
    },
    {
      "fullUrl": "urn:uuid:a3532aea-6a1c-4eeb-b15b-5af5d71b282d",
      "resource": {
        "resourceType": "Organization",
        "id": "a3532aea-6a1c-4eeb-b15b-5af5d71b282d",
        "meta": {
          "profile": [
            "http://hl7.eu/fhir/base/StructureDefinition/organization-eu"
          ]
        },
        "identifier": [
          {
            "assigner": {
              "display": "HL7 Europe"
            },
            "system": "urn:oid:2.16.840.1.113883.2.51.999",
            "value": "86e0cc0f-2b03-4e30-9778-6b2d3eaf97c5"
          }
        ],
        "address": [
          {
            "city": "Leicester",
            "postalCode": "LE2 7",
            "country": "United Kingdom"
          }
        ],
        "text": {
          "status": "generated",
          "div": "<div xmlns=\"http://www.w3.org/1999/xhtml\">Provider Organization: Leicester Royal Infirmary</div>"
        },
        "name": "Leicester Royal Infirmary"
      }
    },
    {
      "fullUrl": "urn:uuid:9b84510e-12b9-47d4-b981-c5f415516297",
      "resource": {
        "resourceType": "Specimen",
        "id": "9b84510e-12b9-47d4-b981-c5f415516297",
        "meta": {
          "profile": [
            "http://hl7.eu/fhir/laboratory/StructureDefinition/Specimen-eu-lab"
          ]
        },
        "collection": {
          "collectedDateTime": "2024-04-23"
        },
        "text": {
          "status": "generated",
          "div": "<div xmlns=\"http://www.w3.org/1999/xhtml\"><table class=\"hl7__eu__lab__report\"><tr><th>Specimen</th><th>Collection Date</th></tr><tr><td>Whole blood specimen (specimen)</td><td><span class=\"nb\">23-Apr-2024</span></td></tr></table></div>"
        },
        "type": {
          "coding": [
            {
              "code": "258580003",
              "system": "http://snomed.info/sct",
              "display": "Whole blood specimen (specimen)"
            }
          ]
        }
      }
    },
    {
      "fullUrl": "urn:uuid:e0144e29-2b67-437e-9113-449b3837f9a1",
      "resource": {
        "resourceType": "Specimen",
        "id": "e0144e29-2b67-437e-9113-449b3837f9a1",
        "meta": {
          "profile": [
            "http://hl7.eu/fhir/laboratory/StructureDefinition/Specimen-eu-lab"
          ]
        },
        "collection": {
          "collectedDateTime": "2024-04-23"
        },
        "text": {
          "status": "generated",
          "div": "<div xmlns=\"http://www.w3.org/1999/xhtml\"><table class=\"hl7__eu__lab__report\"><tr><th>Specimen</th><th>Collection Date</th></tr><tr><td>Acellular blood (serum or plasma) specimen</td><td><span class=\"nb\">23-Apr-2024</span></td></tr></table></div>"
        },
        "type": {
          "coding": [
            {
              "code": "122592007",
              "system": "http://snomed.info/sct",
              "display": "Acellular blood (serum or plasma) specimen"
            }
          ]
        }
      }
    },
    {
      "fullUrl": "urn:uuid:3fab3ea0-3dc5-45c2-b253-83a69415652a",
      "resource": {
        "resourceType": "Specimen",
        "id": "3fab3ea0-3dc5-45c2-b253-83a69415652a",
        "meta": {
          "profile": [
            "http://hl7.eu/fhir/laboratory/StructureDefinition/Specimen-eu-lab"
          ]
        },
        "collection": {
          "collectedDateTime": "2024-04-23"
        },
        "text": {
          "status": "generated",
          "div": "<div xmlns=\"http://www.w3.org/1999/xhtml\"><table class=\"hl7__eu__lab__report\"><tr><th>Specimen</th><th>Collection Date</th></tr><tr><td>Serum specimen</td><td><span class=\"nb\">23-Apr-2024</span></td></tr></table></div>"
        },
        "type": {
          "coding": [
            {
              "code": "119364003",
              "system": "http://snomed.info/sct",
              "display": "Serum specimen"
            }
          ]
        }
      }
    },
    {
      "fullUrl": "urn:uuid:30ea3daa-6575-4a3f-989d-f591f344aea4",
      "resource": {
        "resourceType": "Observation",
        "id": "30ea3daa-6575-4a3f-989d-f591f344aea4",
        "meta": {
          "profile": [
            "http://hl7.eu/fhir/laboratory/StructureDefinition/Observation-resultslab-eu-lab"
          ]
        },
        "performer": [
          {
            "display": "The Central European Lab"
          }
        ],
        "category": [
          {
            "coding": [
              {
                "system": "http://terminology.hl7.org/CodeSystem/observation-category",
                "code": "laboratory"
              }
            ]
          }
        ],
        "code": {
          "coding": [
            {
              "code": "2339-0",
              "system": "http://loinc.org",
              "display": "Glucose [Mass/volume] in Blood"
            }
          ],
          "text": "Glucose [Mass/volume] in Blood"
        },
        "valueQuantity": {
          "system": "http://unitsofmeasure.org",
          "value": 72.7,
          "unit": "mg/dL",
          "code": "mg/dL"
        },
        "referenceRange": [
          {
            "low": {
              "value": 70,
              "code": "mg/dL",
              "system": "http://unitsofmeasure.org"
            }
          },
          {
            "high": {
              "value": 140,
              "code": "mg/dL",
              "system": "http://unitsofmeasure.org"
            }
          }
        ],
        "text": {
          "status": "generated",
          "div": "<div xmlns=\"http://www.w3.org/1999/xhtml\"><table class=\"hl7__eu__lab__report\"><tr><th>Test</th><th>23-Apr-2024</th><th>Reference&#xA0;Range</th><th>Unit</th></tr><tr><td>Glucose [Mass/volume] in Blood</td><td>72.7</td><td>70 - 140</td><td></td><td>mg/dL</td></tr></table></div>"
        },
        "status": "final",
        "subject": {
          "reference": "urn:uuid:8e20f810-9922-4111-8ab1-587459a4c4b1",
          "display": "Eileen Taylor"
        },
        "effectiveDateTime": "2024-04-23T05:47:02Z",
        "specimen": {
          "reference": "urn:uuid:9b84510e-12b9-47d4-b981-c5f415516297"
        }
      }
    },
    {
      "fullUrl": "urn:uuid:af915935-8d69-4723-a6f0-c906070cbc57",
      "resource": {
        "resourceType": "Observation",
        "id": "af915935-8d69-4723-a6f0-c906070cbc57",
        "meta": {
          "profile": [
            "http://hl7.eu/fhir/laboratory/StructureDefinition/Observation-resultslab-eu-lab"
          ]
        },
        "performer": [
          {
            "display": "The Central European Lab"
          }
        ],
        "category": [
          {
            "coding": [
              {
                "system": "http://terminology.hl7.org/CodeSystem/observation-category",
                "code": "laboratory"
              }
            ]
          }
        ],
        "code": {
          "coding": [
            {
              "code": "6299-2",
              "system": "http://loinc.org",
              "display": "Urea nitrogen [Mass/volume] in Blood"
            }
          ],
          "text": "Urea nitrogen [Mass/volume] in Blood"
        },
        "valueQuantity": {
          "system": "http://unitsofmeasure.org",
          "value": 15.2,
          "unit": "mg/dL",
          "code": "mg/dL"
        },
        "referenceRange": [
          {
            "low": {
              "value": 7,
              "code": "mg/dL",
              "system": "http://unitsofmeasure.org"
            }
          },
          {
            "high": {
              "value": 20,
              "code": "mg/dL",
              "system": "http://unitsofmeasure.org"
            }
          }
        ],
        "text": {
          "status": "generated",
          "div": "<div xmlns=\"http://www.w3.org/1999/xhtml\"><table class=\"hl7__eu__lab__report\"><tr><th>Test</th><th>23-Apr-2024</th><th>Reference&#xA0;Range</th><th>Unit</th></tr><tr><td>Urea nitrogen [Mass/volume] in Blood</td><td>15.2</td><td>7 - 20</td><td></td><td>mg/dL</td></tr></table></div>"
        },
        "status": "final",
        "subject": {
          "reference": "urn:uuid:8e20f810-9922-4111-8ab1-587459a4c4b1",
          "display": "Eileen Taylor"
        },
        "effectiveDateTime": "2024-04-23T05:47:02Z",
        "specimen": {
          "reference": "urn:uuid:9b84510e-12b9-47d4-b981-c5f415516297"
        }
      }
    },
    {
      "fullUrl": "urn:uuid:2561fdcf-aa37-4a08-b12b-1648538d7c05",
      "resource": {
        "resourceType": "Observation",
        "id": "2561fdcf-aa37-4a08-b12b-1648538d7c05",
        "meta": {
          "profile": [
            "http://hl7.eu/fhir/laboratory/StructureDefinition/Observation-resultslab-eu-lab"
          ]
        },
        "performer": [
          {
            "display": "The Central European Lab"
          }
        ],
        "category": [
          {
            "coding": [
              {
                "system": "http://terminology.hl7.org/CodeSystem/observation-category",
                "code": "laboratory"
              }
            ]
          }
        ],
        "code": {
          "coding": [
            {
              "code": "38483-4",
              "system": "http://loinc.org",
              "display": "Creatinine [Mass/volume] in Blood"
            }
          ],
          "text": "Creatinine [Mass/volume] in Blood"
        },
        "valueQuantity": {
          "system": "http://unitsofmeasure.org",
          "value": 3.4,
          "unit": "mg/dL",
          "code": "mg/dL"
        },
        "referenceRange": [
          {
            "low": {
              "value": 0.6,
              "code": "mg/dL",
              "system": "http://unitsofmeasure.org"
            }
          },
          {
            "high": {
              "value": 1.1,
              "code": "mg/dL",
              "system": "http://unitsofmeasure.org"
            }
          }
        ],
        "interpretation": [
          {
            "coding": [
              {
                "code": "H",
                "system": "http://terminology.hl7.org/CodeSystem/v3-ObservationInterpretation",
                "display": "High"
              }
            ]
          }
        ],
        "text": {
          "status": "generated",
          "div": "<div xmlns=\"http://www.w3.org/1999/xhtml\"><table class=\"hl7__eu__lab__report\"><tr><th>Test</th><th>23-Apr-2024</th><th>Reference&#xA0;Range</th><th>Unit</th></tr><tr><td>Creatinine [Mass/volume] in Blood</td><td>3.4</td><td>0.6 - 1.1</td><td>H</td><td>mg/dL</td></tr></table></div>"
        },
        "status": "final",
        "subject": {
          "reference": "urn:uuid:8e20f810-9922-4111-8ab1-587459a4c4b1",
          "display": "Eileen Taylor"
        },
        "effectiveDateTime": "2024-04-23T05:47:02Z",
        "specimen": {
          "reference": "urn:uuid:9b84510e-12b9-47d4-b981-c5f415516297"
        }
      }
    },
    {
      "fullUrl": "urn:uuid:d8a436b6-37c3-4061-be63-832af27a825c",
      "resource": {
        "resourceType": "Observation",
        "id": "d8a436b6-37c3-4061-be63-832af27a825c",
        "meta": {
          "profile": [
            "http://hl7.eu/fhir/laboratory/StructureDefinition/Observation-resultslab-eu-lab"
          ]
        },
        "performer": [
          {
            "display": "The Central European Lab"
          }
        ],
        "category": [
          {
            "coding": [
              {
                "system": "http://terminology.hl7.org/CodeSystem/observation-category",
                "code": "laboratory"
              }
            ]
          }
        ],
        "code": {
          "coding": [
            {
              "code": "49765-1",
              "system": "http://loinc.org",
              "display": "Calcium [Mass/volume] in Blood"
            }
          ],
          "text": "Calcium [Mass/volume] in Blood"
        },
        "valueQuantity": {
          "system": "http://unitsofmeasure.org",
          "value": 8.6,
          "unit": "mg/dL",
          "code": "mg/dL"
        },
        "referenceRange": [
          {
            "low": {
              "value": 8.5,
              "code": "mg/dL",
              "system": "http://unitsofmeasure.org"
            }
          },
          {
            "high": {
              "value": 10.4,
              "code": "mg/dL",
              "system": "http://unitsofmeasure.org"
            }
          }
        ],
        "text": {
          "status": "generated",
          "div": "<div xmlns=\"http://www.w3.org/1999/xhtml\"><table class=\"hl7__eu__lab__report\"><tr><th>Test</th><th>23-Apr-2024</th><th>Reference&#xA0;Range</th><th>Unit</th></tr><tr><td>Calcium [Mass/volume] in Blood</td><td>8.6</td><td>8.5 - 10.4</td><td></td><td>mg/dL</td></tr></table></div>"
        },
        "status": "final",
        "subject": {
          "reference": "urn:uuid:8e20f810-9922-4111-8ab1-587459a4c4b1",
          "display": "Eileen Taylor"
        },
        "effectiveDateTime": "2024-04-23T05:47:02Z",
        "specimen": {
          "reference": "urn:uuid:9b84510e-12b9-47d4-b981-c5f415516297"
        }
      }
    },
    {
      "fullUrl": "urn:uuid:9d1d5e87-8180-40b3-9da0-ede01dba8452",
      "resource": {
        "resourceType": "Observation",
        "id": "9d1d5e87-8180-40b3-9da0-ede01dba8452",
        "meta": {
          "profile": [
            "http://hl7.eu/fhir/laboratory/StructureDefinition/Observation-resultslab-eu-lab"
          ]
        },
        "performer": [
          {
            "display": "The Central European Lab"
          }
        ],
        "category": [
          {
            "coding": [
              {
                "system": "http://terminology.hl7.org/CodeSystem/observation-category",
                "code": "laboratory"
              }
            ]
          }
        ],
        "code": {
          "coding": [
            {
              "code": "2947-0",
              "system": "http://loinc.org",
              "display": "Sodium [Moles/volume] in Blood"
            }
          ],
          "text": "Sodium [Moles/volume] in Blood"
        },
        "valueQuantity": {
          "system": "http://unitsofmeasure.org",
          "value": 139.8,
          "unit": "mmol/L",
          "code": "mmol/L"
        },
        "referenceRange": [
          {
            "low": {
              "value": 135,
              "code": "mmol/L",
              "system": "http://unitsofmeasure.org"
            }
          },
          {
            "high": {
              "value": 145,
              "code": "mmol/L",
              "system": "http://unitsofmeasure.org"
            }
          }
        ],
        "text": {
          "status": "generated",
          "div": "<div xmlns=\"http://www.w3.org/1999/xhtml\"><table class=\"hl7__eu__lab__report\"><tr><th>Test</th><th>23-Apr-2024</th><th>Reference&#xA0;Range</th><th>Unit</th></tr><tr><td>Sodium [Moles/volume] in Blood</td><td>139.8</td><td>135 - 145</td><td></td><td>mmol/L</td></tr></table></div>"
        },
        "status": "final",
        "subject": {
          "reference": "urn:uuid:8e20f810-9922-4111-8ab1-587459a4c4b1",
          "display": "Eileen Taylor"
        },
        "effectiveDateTime": "2024-04-23T05:47:02Z",
        "specimen": {
          "reference": "urn:uuid:9b84510e-12b9-47d4-b981-c5f415516297"
        }
      }
    },
    {
      "fullUrl": "urn:uuid:28289db9-a41e-434f-9256-fa7d5c392e61",
      "resource": {
        "resourceType": "Observation",
        "id": "28289db9-a41e-434f-9256-fa7d5c392e61",
        "meta": {
          "profile": [
            "http://hl7.eu/fhir/laboratory/StructureDefinition/Observation-resultslab-eu-lab"
          ]
        },
        "performer": [
          {
            "display": "The Central European Lab"
          }
        ],
        "category": [
          {
            "coding": [
              {
                "system": "http://terminology.hl7.org/CodeSystem/observation-category",
                "code": "laboratory"
              }
            ]
          }
        ],
        "code": {
          "coding": [
            {
              "code": "6298-4",
              "system": "http://loinc.org",
              "display": "Potassium [Moles/volume] in Blood"
            }
          ],
          "text": "Potassium [Moles/volume] in Blood"
        },
        "valueQuantity": {
          "system": "http://unitsofmeasure.org",
          "value": 4.5,
          "unit": "mmol/L",
          "code": "mmol/L"
        },
        "referenceRange": [
          {
            "low": {
              "value": 3.5,
              "code": "mmol/L",
              "system": "http://unitsofmeasure.org"
            }
          },
          {
            "high": {
              "value": 5.1,
              "code": "mmol/L",
              "system": "http://unitsofmeasure.org"
            }
          }
        ],
        "text": {
          "status": "generated",
          "div": "<div xmlns=\"http://www.w3.org/1999/xhtml\"><table class=\"hl7__eu__lab__report\"><tr><th>Test</th><th>23-Apr-2024</th><th>Reference&#xA0;Range</th><th>Unit</th></tr><tr><td>Potassium [Moles/volume] in Blood</td><td>4.5</td><td>3.5 - 5.1</td><td></td><td>mmol/L</td></tr></table></div>"
        },
        "status": "final",
        "subject": {
          "reference": "urn:uuid:8e20f810-9922-4111-8ab1-587459a4c4b1",
          "display": "Eileen Taylor"
        },
        "effectiveDateTime": "2024-04-23T05:47:02Z",
        "specimen": {
          "reference": "urn:uuid:9b84510e-12b9-47d4-b981-c5f415516297"
        }
      }
    },
    {
      "fullUrl": "urn:uuid:96055ddb-a946-483e-86bf-8413bdd01aa6",
      "resource": {
        "resourceType": "Observation",
        "id": "96055ddb-a946-483e-86bf-8413bdd01aa6",
        "meta": {
          "profile": [
            "http://hl7.eu/fhir/laboratory/StructureDefinition/Observation-resultslab-eu-lab"
          ]
        },
        "performer": [
          {
            "display": "The Central European Lab"
          }
        ],
        "category": [
          {
            "coding": [
              {
                "system": "http://terminology.hl7.org/CodeSystem/observation-category",
                "code": "laboratory"
              }
            ]
          }
        ],
        "code": {
          "coding": [
            {
              "code": "2069-3",
              "system": "http://loinc.org",
              "display": "Chloride [Moles/volume] in Blood"
            }
          ],
          "text": "Chloride [Moles/volume] in Blood"
        },
        "valueQuantity": {
          "system": "http://unitsofmeasure.org",
          "value": 108.4,
          "unit": "mmol/L",
          "code": "mmol/L"
        },
        "referenceRange": [
          {
            "low": {
              "value": 98,
              "code": "mmol/L",
              "system": "http://unitsofmeasure.org"
            }
          },
          {
            "high": {
              "value": 108,
              "code": "mmol/L",
              "system": "http://unitsofmeasure.org"
            }
          }
        ],
        "interpretation": [
          {
            "coding": [
              {
                "code": "H",
                "system": "http://terminology.hl7.org/CodeSystem/v3-ObservationInterpretation",
                "display": "High"
              }
            ]
          }
        ],
        "text": {
          "status": "generated",
          "div": "<div xmlns=\"http://www.w3.org/1999/xhtml\"><table class=\"hl7__eu__lab__report\"><tr><th>Test</th><th>23-Apr-2024</th><th>Reference&#xA0;Range</th><th>Unit</th></tr><tr><td>Chloride [Moles/volume] in Blood</td><td>108.4</td><td>98 - 108</td><td>H</td><td>mmol/L</td></tr></table></div>"
        },
        "status": "final",
        "subject": {
          "reference": "urn:uuid:8e20f810-9922-4111-8ab1-587459a4c4b1",
          "display": "Eileen Taylor"
        },
        "effectiveDateTime": "2024-04-23T05:47:02Z",
        "specimen": {
          "reference": "urn:uuid:9b84510e-12b9-47d4-b981-c5f415516297"
        }
      }
    },
    {
      "fullUrl": "urn:uuid:cd691c0a-6777-4c33-8c75-a9c6598288be",
      "resource": {
        "resourceType": "Observation",
        "id": "cd691c0a-6777-4c33-8c75-a9c6598288be",
        "meta": {
          "profile": [
            "http://hl7.eu/fhir/laboratory/StructureDefinition/Observation-resultslab-eu-lab"
          ]
        },
        "performer": [
          {
            "display": "The Central European Lab"
          }
        ],
        "category": [
          {
            "coding": [
              {
                "system": "http://terminology.hl7.org/CodeSystem/observation-category",
                "code": "laboratory"
              }
            ]
          }
        ],
        "code": {
          "coding": [
            {
              "code": "20565-8",
              "system": "http://loinc.org",
              "display": "Carbon dioxide, total [Moles/volume] in Blood"
            }
          ],
          "text": "Carbon dioxide, total [Moles/volume] in Blood"
        },
        "valueQuantity": {
          "system": "http://unitsofmeasure.org",
          "value": 23.2,
          "unit": "mmol/L",
          "code": "mmol/L"
        },
        "referenceRange": [
          {
            "low": {
              "value": 22,
              "code": "mmol/L",
              "system": "http://unitsofmeasure.org"
            }
          },
          {
            "high": {
              "value": 29,
              "code": "mmol/L",
              "system": "http://unitsofmeasure.org"
            }
          }
        ],
        "text": {
          "status": "generated",
          "div": "<div xmlns=\"http://www.w3.org/1999/xhtml\"><table class=\"hl7__eu__lab__report\"><tr><th>Test</th><th>23-Apr-2024</th><th>Reference&#xA0;Range</th><th>Unit</th></tr><tr><td>Carbon dioxide, total [Moles/volume] in Blood</td><td>23.2</td><td>22 - 29</td><td></td><td>mmol/L</td></tr></table></div>"
        },
        "status": "final",
        "subject": {
          "reference": "urn:uuid:8e20f810-9922-4111-8ab1-587459a4c4b1",
          "display": "Eileen Taylor"
        },
        "effectiveDateTime": "2024-04-23T05:47:02Z",
        "specimen": {
          "reference": "urn:uuid:9b84510e-12b9-47d4-b981-c5f415516297"
        }
      }
    },
    {
      "fullUrl": "urn:uuid:d878730e-d3b0-4817-8e6a-53d081e4d41a",
      "resource": {
        "resourceType": "Observation",
        "id": "d878730e-d3b0-4817-8e6a-53d081e4d41a",
        "meta": {
          "profile": [
            "http://hl7.eu/fhir/laboratory/StructureDefinition/Observation-resultslab-eu-lab"
          ]
        },
        "performer": [
          {
            "display": "The Central European Lab"
          }
        ],
        "category": [
          {
            "coding": [
              {
                "system": "http://terminology.hl7.org/CodeSystem/observation-category",
                "code": "laboratory"
              }
            ]
          }
        ],
        "code": {
          "coding": [
            {
              "code": "2885-2",
              "system": "http://loinc.org",
              "display": "Protein [Mass/volume] in Serum or Plasma"
            }
          ],
          "text": "Protein [Mass/volume] in Serum or Plasma"
        },
        "valueQuantity": {
          "system": "http://unitsofmeasure.org",
          "value": 7.7,
          "unit": "g/dL",
          "code": "g/dL"
        },
        "referenceRange": [
          {
            "low": {
              "value": 6,
              "code": "g/dL",
              "system": "http://unitsofmeasure.org"
            }
          },
          {
            "high": {
              "value": 8.3,
              "code": "g/dL",
              "system": "http://unitsofmeasure.org"
            }
          }
        ],
        "text": {
          "status": "generated",
          "div": "<div xmlns=\"http://www.w3.org/1999/xhtml\"><table class=\"hl7__eu__lab__report\"><tr><th>Test</th><th>23-Apr-2024</th><th>Reference&#xA0;Range</th><th>Unit</th></tr><tr><td>Protein [Mass/volume] in Serum or Plasma</td><td>7.7</td><td>6 - 8.3</td><td></td><td>g/dL</td></tr></table></div>"
        },
        "status": "final",
        "subject": {
          "reference": "urn:uuid:8e20f810-9922-4111-8ab1-587459a4c4b1",
          "display": "Eileen Taylor"
        },
        "effectiveDateTime": "2024-04-23T05:47:02Z",
        "specimen": {
          "reference": "urn:uuid:e0144e29-2b67-437e-9113-449b3837f9a1"
        }
      }
    },
    {
      "fullUrl": "urn:uuid:41df79c2-89c3-4dc8-89ec-3869e2f76e78",
      "resource": {
        "resourceType": "Observation",
        "id": "41df79c2-89c3-4dc8-89ec-3869e2f76e78",
        "meta": {
          "profile": [
            "http://hl7.eu/fhir/laboratory/StructureDefinition/Observation-resultslab-eu-lab"
          ]
        },
        "performer": [
          {
            "display": "The Central European Lab"
          }
        ],
        "category": [
          {
            "coding": [
              {
                "system": "http://terminology.hl7.org/CodeSystem/observation-category",
                "code": "laboratory"
              }
            ]
          }
        ],
        "code": {
          "coding": [
            {
              "code": "1751-7",
              "system": "http://loinc.org",
              "display": "Albumin [Mass/volume] in Serum or Plasma"
            }
          ],
          "text": "Albumin [Mass/volume] in Serum or Plasma"
        },
        "valueQuantity": {
          "system": "http://unitsofmeasure.org",
          "value": 4.7,
          "unit": "g/dL",
          "code": "g/dL"
        },
        "referenceRange": [
          {
            "low": {
              "value": 3.4,
              "code": "g/dL",
              "system": "http://unitsofmeasure.org"
            }
          },
          {
            "high": {
              "value": 5,
              "code": "g/dL",
              "system": "http://unitsofmeasure.org"
            }
          }
        ],
        "text": {
          "status": "generated",
          "div": "<div xmlns=\"http://www.w3.org/1999/xhtml\"><table class=\"hl7__eu__lab__report\"><tr><th>Test</th><th>23-Apr-2024</th><th>Reference&#xA0;Range</th><th>Unit</th></tr><tr><td>Albumin [Mass/volume] in Serum or Plasma</td><td>4.7</td><td>3.4 - 5</td><td></td><td>g/dL</td></tr></table></div>"
        },
        "status": "final",
        "subject": {
          "reference": "urn:uuid:8e20f810-9922-4111-8ab1-587459a4c4b1",
          "display": "Eileen Taylor"
        },
        "effectiveDateTime": "2024-04-23T05:47:02Z",
        "specimen": {
          "reference": "urn:uuid:e0144e29-2b67-437e-9113-449b3837f9a1"
        }
      }
    },
    {
      "fullUrl": "urn:uuid:9a4bc747-1e53-453a-a91c-cb69204bde87",
      "resource": {
        "resourceType": "Observation",
        "id": "9a4bc747-1e53-453a-a91c-cb69204bde87",
        "meta": {
          "profile": [
            "http://hl7.eu/fhir/laboratory/StructureDefinition/Observation-resultslab-eu-lab"
          ]
        },
        "performer": [
          {
            "display": "The Central European Lab"
          }
        ],
        "category": [
          {
            "coding": [
              {
                "system": "http://terminology.hl7.org/CodeSystem/observation-category",
                "code": "laboratory"
              }
            ]
          }
        ],
        "code": {
          "coding": [
            {
              "code": "10834-0",
              "system": "http://loinc.org",
              "display": "Globulin [Mass/volume] in Serum by calculation"
            }
          ],
          "text": "Globulin [Mass/volume] in Serum by calculation"
        },
        "valueQuantity": {
          "system": "http://unitsofmeasure.org",
          "value": 3,
          "unit": "g/L",
          "code": "g/L"
        },
        "referenceRange": [
          {
            "low": {
              "value": 2,
              "code": "g/L",
              "system": "http://unitsofmeasure.org"
            }
          },
          {
            "high": {
              "value": 3.5,
              "code": "g/L",
              "system": "http://unitsofmeasure.org"
            }
          }
        ],
        "text": {
          "status": "generated",
          "div": "<div xmlns=\"http://www.w3.org/1999/xhtml\"><table class=\"hl7__eu__lab__report\"><tr><th>Test</th><th>23-Apr-2024</th><th>Reference&#xA0;Range</th><th>Unit</th></tr><tr><td>Globulin [Mass/volume] in Serum by calculation</td><td>3.0</td><td>2 - 3.5</td><td></td><td>g/L</td></tr></table></div>"
        },
        "status": "final",
        "subject": {
          "reference": "urn:uuid:8e20f810-9922-4111-8ab1-587459a4c4b1",
          "display": "Eileen Taylor"
        },
        "effectiveDateTime": "2024-04-23T05:47:02Z",
        "specimen": {
          "reference": "urn:uuid:3fab3ea0-3dc5-45c2-b253-83a69415652a"
        }
      }
    },
    {
      "fullUrl": "urn:uuid:634dc83d-ce38-409f-893c-b4b9735d0f0a",
      "resource": {
        "resourceType": "Observation",
        "id": "634dc83d-ce38-409f-893c-b4b9735d0f0a",
        "meta": {
          "profile": [
            "http://hl7.eu/fhir/laboratory/StructureDefinition/Observation-resultslab-eu-lab"
          ]
        },
        "performer": [
          {
            "display": "The Central European Lab"
          }
        ],
        "category": [
          {
            "coding": [
              {
                "system": "http://terminology.hl7.org/CodeSystem/observation-category",
                "code": "laboratory"
              }
            ]
          }
        ],
        "code": {
          "coding": [
            {
              "code": "1975-2",
              "system": "http://loinc.org",
              "display": "Bilirubin.total [Mass/volume] in Serum or Plasma"
            }
          ],
          "text": "Bilirubin.total [Mass/volume] in Serum or Plasma"
        },
        "valueQuantity": {
          "system": "http://unitsofmeasure.org",
          "value": 0.9,
          "unit": "mg/dL",
          "code": "mg/dL"
        },
        "referenceRange": [
          {
            "low": {
              "value": 0.2,
              "code": "mg/dL",
              "system": "http://unitsofmeasure.org"
            }
          },
          {
            "high": {
              "value": 1.2,
              "code": "mg/dL",
              "system": "http://unitsofmeasure.org"
            }
          }
        ],
        "text": {
          "status": "generated",
          "div": "<div xmlns=\"http://www.w3.org/1999/xhtml\"><table class=\"hl7__eu__lab__report\"><tr><th>Test</th><th>23-Apr-2024</th><th>Reference&#xA0;Range</th><th>Unit</th></tr><tr><td>Bilirubin.total [Mass/volume] in Serum or Plasma</td><td>0.9</td><td>0.2 - 1.2</td><td></td><td>mg/dL</td></tr></table></div>"
        },
        "status": "final",
        "subject": {
          "reference": "urn:uuid:8e20f810-9922-4111-8ab1-587459a4c4b1",
          "display": "Eileen Taylor"
        },
        "effectiveDateTime": "2024-04-23T05:47:02Z",
        "specimen": {
          "reference": "urn:uuid:e0144e29-2b67-437e-9113-449b3837f9a1"
        }
      }
    },
    {
      "fullUrl": "urn:uuid:d3280e85-10c8-4d13-be51-579db92bcf17",
      "resource": {
        "resourceType": "Observation",
        "id": "d3280e85-10c8-4d13-be51-579db92bcf17",
        "meta": {
          "profile": [
            "http://hl7.eu/fhir/laboratory/StructureDefinition/Observation-resultslab-eu-lab"
          ]
        },
        "performer": [
          {
            "display": "The Central European Lab"
          }
        ],
        "category": [
          {
            "coding": [
              {
                "system": "http://terminology.hl7.org/CodeSystem/observation-category",
                "code": "laboratory"
              }
            ]
          }
        ],
        "code": {
          "coding": [
            {
              "code": "6768-6",
              "system": "http://loinc.org",
              "display": "Alkaline phosphatase [Enzymatic activity/volume] in Serum or Plasma"
            }
          ],
          "text": "Alkaline phosphatase [Enzymatic activity/volume] in Serum or Plasma"
        },
        "valueQuantity": {
          "system": "http://unitsofmeasure.org",
          "value": 45.4,
          "unit": "U/L",
          "code": "U/L"
        },
        "referenceRange": [
          {
            "low": {
              "value": 44,
              "code": "U/L",
              "system": "http://unitsofmeasure.org"
            }
          },
          {
            "high": {
              "value": 104,
              "code": "U/L",
              "system": "http://unitsofmeasure.org"
            }
          }
        ],
        "text": {
          "status": "generated",
          "div": "<div xmlns=\"http://www.w3.org/1999/xhtml\"><table class=\"hl7__eu__lab__report\"><tr><th>Test</th><th>23-Apr-2024</th><th>Reference&#xA0;Range</th><th>Unit</th></tr><tr><td>Alkaline phosphatase [Enzymatic activity/volume] in Serum or Plasma</td><td>45.4</td><td>44 - 104</td><td></td><td>U/L</td></tr></table></div>"
        },
        "status": "final",
        "subject": {
          "reference": "urn:uuid:8e20f810-9922-4111-8ab1-587459a4c4b1",
          "display": "Eileen Taylor"
        },
        "effectiveDateTime": "2024-04-23T05:47:02Z",
        "specimen": {
          "reference": "urn:uuid:e0144e29-2b67-437e-9113-449b3837f9a1"
        }
      }
    },
    {
      "fullUrl": "urn:uuid:85dc9fe9-06e8-4eba-88c6-6b93957e6130",
      "resource": {
        "resourceType": "Observation",
        "id": "85dc9fe9-06e8-4eba-88c6-6b93957e6130",
        "meta": {
          "profile": [
            "http://hl7.eu/fhir/laboratory/StructureDefinition/Observation-resultslab-eu-lab"
          ]
        },
        "performer": [
          {
            "display": "The Central European Lab"
          }
        ],
        "category": [
          {
            "coding": [
              {
                "system": "http://terminology.hl7.org/CodeSystem/observation-category",
                "code": "laboratory"
              }
            ]
          }
        ],
        "code": {
          "coding": [
            {
              "code": "1742-6",
              "system": "http://loinc.org",
              "display": "Alanine aminotransferase [Enzymatic activity/volume] in Serum or Plasma"
            }
          ],
          "text": "Alanine aminotransferase [Enzymatic activity/volume] in Serum or Plasma"
        },
        "valueQuantity": {
          "system": "http://unitsofmeasure.org",
          "value": 57.6,
          "unit": "U/L",
          "code": "U/L"
        },
        "referenceRange": [
          {
            "low": {
              "value": 13,
              "code": "U/L",
              "system": "http://unitsofmeasure.org"
            }
          },
          {
            "high": {
              "value": 36,
              "code": "U/L",
              "system": "http://unitsofmeasure.org"
            }
          }
        ],
        "interpretation": [
          {
            "coding": [
              {
                "code": "H",
                "system": "http://terminology.hl7.org/CodeSystem/v3-ObservationInterpretation",
                "display": "High"
              }
            ]
          }
        ],
        "text": {
          "status": "generated",
          "div": "<div xmlns=\"http://www.w3.org/1999/xhtml\"><table class=\"hl7__eu__lab__report\"><tr><th>Test</th><th>23-Apr-2024</th><th>Reference&#xA0;Range</th><th>Unit</th></tr><tr><td>Alanine aminotransferase [Enzymatic activity/volume] in Serum or Plasma</td><td>57.6</td><td>13 - 36</td><td>H</td><td>U/L</td></tr></table></div>"
        },
        "status": "final",
        "subject": {
          "reference": "urn:uuid:8e20f810-9922-4111-8ab1-587459a4c4b1",
          "display": "Eileen Taylor"
        },
        "effectiveDateTime": "2024-04-23T05:47:02Z",
        "specimen": {
          "reference": "urn:uuid:e0144e29-2b67-437e-9113-449b3837f9a1"
        }
      }
    },
    {
      "fullUrl": "urn:uuid:d2d092d4-f118-42dd-ae8e-960881f9e325",
      "resource": {
        "resourceType": "Observation",
        "id": "d2d092d4-f118-42dd-ae8e-960881f9e325",
        "meta": {
          "profile": [
            "http://hl7.eu/fhir/laboratory/StructureDefinition/Observation-resultslab-eu-lab"
          ]
        },
        "performer": [
          {
            "display": "The Central European Lab"
          }
        ],
        "category": [
          {
            "coding": [
              {
                "system": "http://terminology.hl7.org/CodeSystem/observation-category",
                "code": "laboratory"
              }
            ]
          }
        ],
        "code": {
          "coding": [
            {
              "code": "1920-8",
              "system": "http://loinc.org",
              "display": "Aspartate aminotransferase [Enzymatic activity/volume] in Serum or Plasma"
            }
          ],
          "text": "Aspartate aminotransferase [Enzymatic activity/volume] in Serum or Plasma"
        },
        "valueQuantity": {
          "system": "http://unitsofmeasure.org",
          "value": 10.6,
          "unit": "U/L",
          "code": "U/L"
        },
        "referenceRange": [
          {
            "low": {
              "value": 10,
              "code": "U/L",
              "system": "http://unitsofmeasure.org"
            }
          },
          {
            "high": {
              "value": 40,
              "code": "U/L",
              "system": "http://unitsofmeasure.org"
            }
          }
        ],
        "text": {
          "status": "generated",
          "div": "<div xmlns=\"http://www.w3.org/1999/xhtml\"><table class=\"hl7__eu__lab__report\"><tr><th>Test</th><th>23-Apr-2024</th><th>Reference&#xA0;Range</th><th>Unit</th></tr><tr><td>Aspartate aminotransferase [Enzymatic activity/volume] in Serum or Plasma</td><td>10.6</td><td>10 - 40</td><td></td><td>U/L</td></tr></table></div>"
        },
        "status": "final",
        "subject": {
          "reference": "urn:uuid:8e20f810-9922-4111-8ab1-587459a4c4b1",
          "display": "Eileen Taylor"
        },
        "effectiveDateTime": "2024-04-23T05:47:02Z",
        "specimen": {
          "reference": "urn:uuid:e0144e29-2b67-437e-9113-449b3837f9a1"
        }
      }
    },
    {
      "fullUrl": "urn:uuid:d4964bf2-7473-4e6d-91d2-2e1f291d8989",
      "resource": {
        "resourceType": "Observation",
        "id": "d4964bf2-7473-4e6d-91d2-2e1f291d8989",
        "meta": {
          "profile": [
            "http://hl7.eu/fhir/laboratory/StructureDefinition/Observation-resultslab-eu-lab"
          ]
        },
        "performer": [
          {
            "display": "The Central European Lab"
          }
        ],
        "category": [
          {
            "coding": [
              {
                "system": "http://terminology.hl7.org/CodeSystem/observation-category",
                "code": "laboratory"
              }
            ]
          }
        ],
        "code": {
          "coding": [
            {
              "code": "2093-3",
              "system": "http://loinc.org",
              "display": "Cholesterol [Mass/volume] in Serum or Plasma"
            }
          ],
          "text": "Cholesterol [Mass/volume] in Serum or Plasma"
        },
        "valueQuantity": {
          "system": "http://unitsofmeasure.org",
          "value": 154.4,
          "unit": "mg/dL",
          "code": "mg/dL"
        },
        "referenceRange": [
          {
            "low": {
              "value": 130,
              "code": "mg/dL",
              "system": "http://unitsofmeasure.org"
            }
          },
          {
            "high": {
              "value": 200,
              "code": "mg/dL",
              "system": "http://unitsofmeasure.org"
            }
          }
        ],
        "text": {
          "status": "generated",
          "div": "<div xmlns=\"http://www.w3.org/1999/xhtml\"><table class=\"hl7__eu__lab__report\"><tr><th>Test</th><th>23-Apr-2024</th><th>Reference&#xA0;Range</th><th>Unit</th></tr><tr><td>Cholesterol [Mass/volume] in Serum or Plasma</td><td>154.4</td><td>130 - 200</td><td></td><td>mg/dL</td></tr></table></div>"
        },
        "status": "final",
        "subject": {
          "reference": "urn:uuid:8e20f810-9922-4111-8ab1-587459a4c4b1",
          "display": "Eileen Taylor"
        },
        "effectiveDateTime": "2024-04-23T05:47:02Z",
        "specimen": {
          "reference": "urn:uuid:e0144e29-2b67-437e-9113-449b3837f9a1"
        }
      }
    },
    {
      "fullUrl": "urn:uuid:9e3baf32-ee3e-4c82-a43d-40549a769152",
      "resource": {
        "resourceType": "Observation",
        "id": "9e3baf32-ee3e-4c82-a43d-40549a769152",
        "meta": {
          "profile": [
            "http://hl7.eu/fhir/laboratory/StructureDefinition/Observation-resultslab-eu-lab"
          ]
        },
        "performer": [
          {
            "display": "The Central European Lab"
          }
        ],
        "category": [
          {
            "coding": [
              {
                "system": "http://terminology.hl7.org/CodeSystem/observation-category",
                "code": "laboratory"
              }
            ]
          }
        ],
        "code": {
          "coding": [
            {
              "code": "2571-8",
              "system": "http://loinc.org",
              "display": "Triglyceride [Mass/volume] in Serum or Plasma"
            }
          ],
          "text": "Triglyceride [Mass/volume] in Serum or Plasma"
        },
        "valueQuantity": {
          "system": "http://unitsofmeasure.org",
          "value": 178.9,
          "unit": "mg/dL",
          "code": "mg/dL"
        },
        "referenceRange": [
          {
            "low": {
              "value": 35,
              "code": "mg/dL",
              "system": "http://unitsofmeasure.org"
            }
          },
          {
            "high": {
              "value": 175,
              "code": "mg/dL",
              "system": "http://unitsofmeasure.org"
            }
          }
        ],
        "interpretation": [
          {
            "coding": [
              {
                "code": "H",
                "system": "http://terminology.hl7.org/CodeSystem/v3-ObservationInterpretation",
                "display": "High"
              }
            ]
          }
        ],
        "text": {
          "status": "generated",
          "div": "<div xmlns=\"http://www.w3.org/1999/xhtml\"><table class=\"hl7__eu__lab__report\"><tr><th>Test</th><th>23-Apr-2024</th><th>Reference&#xA0;Range</th><th>Unit</th></tr><tr><td>Triglyceride [Mass/volume] in Serum or Plasma</td><td>178.9</td><td>35 - 175</td><td>H</td><td>mg/dL</td></tr></table></div>"
        },
        "status": "final",
        "subject": {
          "reference": "urn:uuid:8e20f810-9922-4111-8ab1-587459a4c4b1",
          "display": "Eileen Taylor"
        },
        "effectiveDateTime": "2024-04-23T05:47:02Z",
        "specimen": {
          "reference": "urn:uuid:e0144e29-2b67-437e-9113-449b3837f9a1"
        }
      }
    },
    {
      "fullUrl": "urn:uuid:159ff75d-d627-434f-a92f-8facc7ce6e7c",
      "resource": {
        "resourceType": "Observation",
        "id": "159ff75d-d627-434f-a92f-8facc7ce6e7c",
        "meta": {
          "profile": [
            "http://hl7.eu/fhir/laboratory/StructureDefinition/Observation-resultslab-eu-lab"
          ]
        },
        "performer": [
          {
            "display": "The Central European Lab"
          }
        ],
        "category": [
          {
            "coding": [
              {
                "system": "http://terminology.hl7.org/CodeSystem/observation-category",
                "code": "laboratory"
              }
            ]
          }
        ],
        "code": {
          "coding": [
            {
              "code": "18262-6",
              "system": "http://loinc.org",
              "display": "Cholesterol in LDL [Mass/volume] in Serum or Plasma by Direct assay"
            }
          ],
          "text": "Cholesterol in LDL [Mass/volume] in Serum or Plasma by Direct assay"
        },
        "valueQuantity": {
          "system": "http://unitsofmeasure.org",
          "value": 148.1,
          "unit": "mg/dL",
          "code": "mg/dL"
        },
        "referenceRange": [
          {
            "low": {
              "value": 0,
              "code": "mg/dL",
              "system": "http://unitsofmeasure.org"
            }
          },
          {
            "high": {
              "value": 190,
              "code": "mg/dL",
              "system": "http://unitsofmeasure.org"
            }
          }
        ],
        "text": {
          "status": "generated",
          "div": "<div xmlns=\"http://www.w3.org/1999/xhtml\"><table class=\"hl7__eu__lab__report\"><tr><th>Test</th><th>23-Apr-2024</th><th>Reference&#xA0;Range</th><th>Unit</th></tr><tr><td>Cholesterol in LDL [Mass/volume] in Serum or Plasma by Direct assay</td><td>148.1</td><td>0 - 190</td><td></td><td>mg/dL</td></tr></table></div>"
        },
        "status": "final",
        "subject": {
          "reference": "urn:uuid:8e20f810-9922-4111-8ab1-587459a4c4b1",
          "display": "Eileen Taylor"
        },
        "effectiveDateTime": "2024-04-23T05:47:02Z",
        "specimen": {
          "reference": "urn:uuid:e0144e29-2b67-437e-9113-449b3837f9a1"
        }
      }
    },
    {
      "fullUrl": "urn:uuid:5ddd8706-8ba7-4db2-a625-235f8ec2c161",
      "resource": {
        "resourceType": "Observation",
        "id": "5ddd8706-8ba7-4db2-a625-235f8ec2c161",
        "meta": {
          "profile": [
            "http://hl7.eu/fhir/laboratory/StructureDefinition/Observation-resultslab-eu-lab"
          ]
        },
        "performer": [
          {
            "display": "The Central European Lab"
          }
        ],
        "category": [
          {
            "coding": [
              {
                "system": "http://terminology.hl7.org/CodeSystem/observation-category",
                "code": "laboratory"
              }
            ]
          }
        ],
        "code": {
          "coding": [
            {
              "code": "2085-9",
              "system": "http://loinc.org",
              "display": "Cholesterol in HDL [Mass/volume] in Serum or Plasma"
            }
          ],
          "text": "Cholesterol in HDL [Mass/volume] in Serum or Plasma"
        },
        "valueQuantity": {
          "system": "http://unitsofmeasure.org",
          "value": 68.8,
          "unit": "mg/dL",
          "code": "mg/dL"
        },
        "referenceRange": [
          {
            "low": {
              "value": 50,
              "code": "mg/dL",
              "system": "http://unitsofmeasure.org"
            }
          },
          {
            "high": {
              "value": 100,
              "code": "mg/dL",
              "system": "http://unitsofmeasure.org"
            }
          }
        ],
        "text": {
          "status": "generated",
          "div": "<div xmlns=\"http://www.w3.org/1999/xhtml\"><table class=\"hl7__eu__lab__report\"><tr><th>Test</th><th>23-Apr-2024</th><th>Reference&#xA0;Range</th><th>Unit</th></tr><tr><td>Cholesterol in HDL [Mass/volume] in Serum or Plasma</td><td>68.8</td><td>50 - 100</td><td></td><td>mg/dL</td></tr></table></div>"
        },
        "status": "final",
        "subject": {
          "reference": "urn:uuid:8e20f810-9922-4111-8ab1-587459a4c4b1",
          "display": "Eileen Taylor"
        },
        "effectiveDateTime": "2024-04-23T05:47:02Z",
        "specimen": {
          "reference": "urn:uuid:e0144e29-2b67-437e-9113-449b3837f9a1"
        }
      }
    },
    {
      "fullUrl": "urn:uuid:59de0f14-9270-43a8-9928-fa037b3844fe",
      "resource": {
        "resourceType": "Device",
        "id": "59de0f14-9270-43a8-9928-fa037b3844fe",
        "deviceName": [
          {
            "name": "SYNDERAI Synthetic Generator",
            "type": "manufacturer-name"
          }
        ],
        "version": [
          {
            "value": "5.0"
          }
        ],
        "text": {
          "status": "generated",
          "div": "<div xmlns=\"http://www.w3.org/1999/xhtml\">SYNDERAI Synthetic Generator v5.0</div>"
        },
        "status": "active\"",
        "distinctIdentifier": "synderai-generator-50",
        "manufacturer": "SYNDERAI Project"
      }
    },
    {
      "fullUrl": "urn:uuid:c756e8bf-4fb4-4ace-8af9-7d66fccb4652",
      "resource": {
        "resourceType": "Provenance",
        "id": "c756e8bf-4fb4-4ace-8af9-7d66fccb4652",
        "target": [
          {
            "reference": "Patient/8e20f810-9922-4111-8ab1-587459a4c4b1"
          },
          {
            "reference": "Bundle/0a143566-c59e-4382-bc90-92c1cce362ec"
          },
          {
            "reference": "Composition/ac1ba09a-f8f6-4b3d-8fd4-61d135c809b1"
          },
          {
            "reference": "PractitionerRole/99181a59-c716-4c36-b317-5821e7274244"
          },
          {
            "reference": "Practitioner/714a5113-2865-4d23-89d9-b9a3eeb01831"
          },
          {
            "reference": "PractitionerRole/8f0a3001-8289-47b5-9ba8-a11369dc1cc4"
          },
          {
            "reference": "Organization/a3532aea-6a1c-4eeb-b15b-5af5d71b282d"
          }
        ],
        "activity": {
          "text": "Synthetic Example Data Generation"
        },
        "policy": [
          "https://synderai.net/synderai-synthetic-data-policy"
        ],
        "agent": [
          {
            "type": {
              "text": "author"
            },
            "who": {
              "reference": "Device/59de0f14-9270-43a8-9928-fa037b3844fe"
            }
          }
        ],
        "reason": [
          {
            "text": "Interoperability Testing and Training (non-clinical use)"
          }
        ],
        "text": {
          "status": "generated",
          "div": "<div xmlns=\"http://www.w3.org/1999/xhtml\">Provenance for SYNDERAI Synthetic Example Data Resource</div>"
        },
        "recorded": "2024-04-23T07:47:02Z"
      }
    },
    {
      "fullUrl": "urn:uuid:99181a59-c716-4c36-b317-5821e7274244",
      "resource": {
        "resourceType": "PractitionerRole",
        "id": "99181a59-c716-4c36-b317-5821e7274244",
        "meta": {
          "profile": [
            "http://hl7.eu/fhir/base/StructureDefinition/practitionerRole-eu"
          ]
        },
        "text": {
          "status": "generated",
          "div": "<div xmlns=\"http://www.w3.org/1999/xhtml\">Laboratory Role Id: 99181a59-c716-4c36-b317-5821e7274244</div>"
        },
        "practitioner": {
          "reference": "urn:uuid:714a5113-2865-4d23-89d9-b9a3eeb01831"
        }
      }
    },
    {
      "fullUrl": "urn:uuid:714a5113-2865-4d23-89d9-b9a3eeb01831",
      "resource": {
        "resourceType": "Practitioner",
        "id": "714a5113-2865-4d23-89d9-b9a3eeb01831",
        "meta": {
          "profile": [
            "http://hl7.eu/fhir/base/StructureDefinition/practitioner-eu"
          ]
        },
        "identifier": [
          {
            "assigner": {
              "display": "HL7 Europe"
            },
            "system": "urn:oid:2.16.840.1.113883.2.51.999",
            "value": "6bb25d74-cbae-44fa-ac27-8a8558d4aa07"
          }
        ],
        "name": [
          {
            "prefix": [
              "dr"
            ],
            "given": [
              "Ex"
            ],
            "family": "Ample"
          }
        ],
        "address": [
          {
            "line": [
              "Laboratoire Central Europenne",
              "Boulevard du Jardin Botanique 32"
            ],
            "postalCode": "1000",
            "city": "Brussels",
            "country": "Belgium"
          }
        ],
        "text": {
          "status": "generated",
          "div": "<div xmlns=\"http://www.w3.org/1999/xhtml\">Laboratory: Laboratoire Central Europenne, 1000 Brussels, Belgium</div>"
        }
      }
    }
  ],
  "type": "document",
  "timestamp": "2024-04-23T07:47:02Z"
}
