{
  "resourceType": "Bundle",
  "id": "f2dea13d-5382-4a2b-9447-fd86c98cb608",
  "meta": {
    "profile": [
      "http://hl7.eu/fhir/laboratory/StructureDefinition/Bundle-eu-lab"
    ]
  },
  "identifier": {
    "assigner": {
      "display": "HL7 Europe"
    },
    "system": "urn:oid:2.16.840.1.113883.2.51.999",
    "value": "286d61b4-8519-42ff-a0e2-a65da43c305b"
  },
  "entry": [
    {
      "fullUrl": "urn:uuid:3d2d1e97-0a89-4fc6-aa63-d520d1260913",
      "resource": {
        "resourceType": "Composition",
        "id": "3d2d1e97-0a89-4fc6-aa63-d520d1260913",
        "meta": {
          "profile": [
            "http://hl7.eu/fhir/laboratory/StructureDefinition/Composition-eu-lab"
          ]
        },
        "identifier": {
          "assigner": {
            "display": "HL7 Europe"
          },
          "system": "urn:oid:2.16.840.1.113883.2.51.999",
          "value": "bf666d14-4eca-4ae5-9ca7-f0f328b96549"
        },
        "author": [
          {
            "reference": "urn:uuid:496cc2bd-053e-4fa8-8b0b-a78412e7e301"
          }
        ],
        "category": [
          {
            "coding": [
              {
                "code": "26436-6",
                "system": "http://loinc.org",
                "display": "Laboratory studies (set)"
              }
            ]
          }
        ],
        "type": {
          "coding": [
            {
              "code": "11502-2",
              "system": "http://loinc.org",
              "display": "Laboratory report"
            }
          ],
          "text": "Laboratory Report"
        },
        "section": [
          {
            "code": {
              "coding": [
                {
                  "code": "26436-6",
                  "system": "http://loinc.org",
                  "display": "Laboratory studies (set)"
                }
              ],
              "text": "Laboratory studies"
            },
            "section": [
              {
                "code": {
                  "coding": [
                    {
                      "code": "$18719-5",
                      "system": "http://loinc.org",
                      "display": "Chemistry studies (set)"
                    }
                  ],
                  "text": "Chemistry"
                },
                "entry": [
                  {
                    "reference": "urn:uuid:785496d6-e2bb-43c5-a40b-9c22cc6c92c3"
                  },
                  {
                    "reference": "urn:uuid:47624f17-b151-4417-9cb0-20bc09db5896"
                  },
                  {
                    "reference": "urn:uuid:84a87c82-0623-439b-a7b3-0a17a295f3f1"
                  },
                  {
                    "reference": "urn:uuid:e12aee46-70e1-4dd1-b903-dce51314d870"
                  },
                  {
                    "reference": "urn:uuid:cc29a073-e879-4608-a842-c25390bd00c1"
                  },
                  {
                    "reference": "urn:uuid:357c2a40-a449-464d-817a-01f313f5e124"
                  },
                  {
                    "reference": "urn:uuid:f8d71e96-b91e-48f1-b4d2-e6c84e85c9dd"
                  },
                  {
                    "reference": "urn:uuid:59d84f17-0b2d-46e4-b327-e4e559ced42c"
                  },
                  {
                    "reference": "urn:uuid:e9718c62-cf51-47f1-bdf8-11ca3a2fa66d"
                  },
                  {
                    "reference": "urn:uuid:ce6122ce-0806-458a-a69a-5921441c1000"
                  },
                  {
                    "reference": "urn:uuid:5c5d4219-8a6e-4a6c-97fb-436ea613e201"
                  },
                  {
                    "reference": "urn:uuid:3901a9bd-abc2-4f45-a41b-ed4c19fb8cb5"
                  },
                  {
                    "reference": "urn:uuid:e22ff846-3b8b-40ec-836e-54a12e3d3836"
                  },
                  {
                    "reference": "urn:uuid:f07ba829-1b99-4c54-8483-c4b7f9c7015d"
                  },
                  {
                    "reference": "urn:uuid:cdbda857-5e1b-4bc5-a12c-0b233b5717d0"
                  },
                  {
                    "reference": "urn:uuid:10ed4175-1fde-4abd-ad79-b22a49dd3f31"
                  },
                  {
                    "reference": "urn:uuid:dc0e4c56-0ed7-4013-9a12-a44173de52c4"
                  },
                  {
                    "reference": "urn:uuid:18d67574-61bc-45f5-92ce-7c2cea5fdd51"
                  }
                ],
                "text": {
                  "status": "generated",
                  "div": "<div xmlns=\"http://www.w3.org/1999/xhtml\"><h3>Chemistry</h3><table class=\"hl7__eu__lab__report\"><thead><tr><th>Test</th><th>16-NOV-2022</th><th>Reference&#xA0;Range</th><th>Unit</th></tr></thead><tbody><tr><td>Glucose [Mass/volume] in Serum or Plasma</td><td>75.6</td><td>70 - 140</td><td>mg/dL</td></tr><tr><td>Urea nitrogen [Mass/volume] in Serum or Plasma</td><td>8.8</td><td>7 - 20</td><td>mg/dL</td></tr><tr><td>Creatinine [Mass/volume] in Serum or Plasma</td><td><strong>2.1 H</strong></td><td>0.9 - 1.3</td><td>mg/dL</td></tr><tr><td>Calcium [Mass/volume] in Serum or Plasma</td><td>9.9</td><td>8.5 - 10.5</td><td>mg/dL</td></tr><tr><td>Sodium [Moles/volume] in Serum or Plasma</td><td>138.8</td><td>135 - 145</td><td>mmol/L</td></tr><tr><td>Potassium [Moles/volume] in Serum or Plasma</td><td>4.7</td><td>3.5 - 5</td><td>mmol/L</td></tr><tr><td>Chloride [Moles/volume] in Serum or Plasma</td><td>103.6</td><td>98 - 108</td><td>mmol/L</td></tr><tr><td>Carbon dioxide, total [Moles/volume] in Serum or Plasma</td><td><strong>20.4 L</strong></td><td>22 - 29</td><td>mmol/L</td></tr><tr><td>Ketones [Presence] in Urine by Test strip</td><td>Urine ketone test = ++</td><td></td><td></td></tr><tr><td>Hemoglobin A1c/Hemoglobin.total in Blood</td><td><strong>2.9 L</strong></td><td>4.3 - 6.4</td><td>%</td></tr><tr><td>Glucose [Mass/volume] in Blood</td><td>75.6</td><td>70 - 140</td><td>mg/dL</td></tr><tr><td>Urea nitrogen [Mass/volume] in Blood</td><td>8.8</td><td>7 - 20</td><td>mg/dL</td></tr><tr><td>Creatinine [Mass/volume] in Blood</td><td><strong>8.1 H</strong></td><td>0.6 - 1.3</td><td>mg/dL</td></tr><tr><td>Calcium [Mass/volume] in Blood</td><td>9.9</td><td>8.5 - 10.5</td><td>mg/dL</td></tr><tr><td>Sodium [Moles/volume] in Blood</td><td>138.8</td><td>135 - 145</td><td>mmol/L</td></tr><tr><td>Potassium [Moles/volume] in Blood</td><td>4.7</td><td>3.5 - 5.3</td><td>mmol/L</td></tr><tr><td>Chloride [Moles/volume] in Blood</td><td>103.6</td><td>98 - 110</td><td>mmol/L</td></tr><tr><td>Carbon dioxide, total [Moles/volume] in Blood</td><td><strong>20.4 L</strong></td><td>22 - 29</td><td>mmol/L</td></tr></tbody></table></div>"
                },
                "title": "Chemistry"
              },
              {
                "code": {
                  "coding": [
                    {
                      "code": "$18729-4",
                      "system": "http://loinc.org",
                      "display": "Urinalysis studies (set)"
                    }
                  ],
                  "text": "Urinalysis"
                },
                "entry": [
                  {
                    "reference": "urn:uuid:42e26a50-8675-404c-9c18-b2cac9b92055"
                  },
                  {
                    "reference": "urn:uuid:dc5f163c-0e4b-49e7-8183-654bfc1e9ce1"
                  },
                  {
                    "reference": "urn:uuid:5885a54b-f81f-4cbf-a056-7dea5c7c5cf7"
                  },
                  {
                    "reference": "urn:uuid:63c2daf5-de3c-4631-897e-a7421efa26e3"
                  },
                  {
                    "reference": "urn:uuid:7f30e010-6691-4998-a930-810d8e4d748c"
                  },
                  {
                    "reference": "urn:uuid:4e584ac3-909a-4590-9a4f-5e26ea04ce68"
                  },
                  {
                    "reference": "urn:uuid:a776f814-cb41-496b-a9a7-4af4f91bfa2a"
                  },
                  {
                    "reference": "urn:uuid:defda001-767d-4f91-ab3e-dd6fe8ea3158"
                  },
                  {
                    "reference": "urn:uuid:f3781df6-45ad-4a1a-9bc0-49b58a71f30b"
                  },
                  {
                    "reference": "urn:uuid:65958c9c-7386-4cc4-a314-321e0ad38b4f"
                  },
                  {
                    "reference": "urn:uuid:338d57d1-eca5-474e-b098-4ac9e1dc5ca3"
                  },
                  {
                    "reference": "urn:uuid:bf0312d0-d690-4a64-b98f-ed4eea67802a"
                  }
                ],
                "text": {
                  "status": "generated",
                  "div": "<div xmlns=\"http://www.w3.org/1999/xhtml\"><h3>Urinalysis</h3><table class=\"hl7__eu__lab__report\"><thead><tr><th>Test</th><th>16-NOV-2022</th><th>Reference&#xA0;Range</th><th>Unit</th></tr></thead><tbody><tr><td>Glucose [Mass/volume] in Urine by Test strip</td><td><strong>1.3 H</strong></td><td>0 - 0.8</td><td>mg/dL</td></tr><tr><td>Glucose [Presence] in Urine by Test strip</td><td>++</td><td></td><td></td></tr><tr><td>Bilirubin.total [Mass/volume] in Urine by Test strip</td><td>0.9</td><td>0.2 - 1</td><td>mg/dL</td></tr><tr><td>Bilirubin.total [Presence] in Urine by Test strip</td><td>Finding of bilirubin in urine</td><td></td><td></td></tr><tr><td>Ketones [Mass/volume] in Urine by Test strip</td><td><strong>5.6 H</strong></td><td>0 - 5</td><td>mg/dL</td></tr><tr><td>Specific gravity of Urine by Test strip</td><td><strong>1.0 L</strong></td><td>1.005 - 1.03</td><td>{nominal}</td></tr><tr><td>pH of Urine by Test strip</td><td>5.3</td><td>4.6 - 7</td><td>pH</td></tr><tr><td>Protein [Mass/volume] in Urine by Test strip</td><td><strong>384.5 H</strong></td><td>0 - 150</td><td>mg/dL</td></tr><tr><td>Protein [Presence] in Urine by Test strip</td><td>Urine protein test = ++</td><td></td><td></td></tr><tr><td>Nitrite [Presence] in Urine by Test strip</td><td>Urine nitrite negative</td><td></td><td></td></tr><tr><td>Hemoglobin [Presence] in Urine by Test strip</td><td>Urine blood test = negative</td><td></td><td></td></tr><tr><td>Leukocyte esterase [Presence] in Urine by Test strip</td><td>Urine leukocyte test negative</td><td></td><td></td></tr></tbody></table></div>"
                },
                "title": "Urinalysis"
              },
              {
                "code": {
                  "coding": [
                    {
                      "code": "$LP7846-1",
                      "system": "http://loinc.org",
                      "display": "Specimen information"
                    }
                  ],
                  "text": "Specimen information"
                },
                "entry": [
                  {
                    "reference": "urn:uuid:2e405fa6-de5b-4e10-af35-3139b5534689"
                  },
                  {
                    "reference": "urn:uuid:6a27c35c-848c-42b4-a87e-912a6ca9b273"
                  },
                  {
                    "reference": "urn:uuid:12056357-ec4e-49d5-8d6c-ff50e857978a"
                  },
                  {
                    "reference": "urn:uuid:87776c6a-daa7-4c36-980e-db5b31908f46"
                  }
                ],
                "text": {
                  "status": "generated",
                  "div": "<div xmlns=\"http://www.w3.org/1999/xhtml\"><h3>Specimen information</h3><table class=\"hl7__eu__lab__report\"><thead><tr><th>Test</th><th>16-NOV-2022</th><th>Specimen</th><th></th></tr></thead><tbody><tr><td>Appearance of Urine</td><td>Cloudy urine</td><td>Urine</td><td></td></tr><tr><td>Odor of Urine</td><td>Urine smell ammoniacal</td><td>Urine</td><td></td></tr><tr><td>Clarity of Urine</td><td>Translucent</td><td>Urine</td><td></td></tr><tr><td>Color of Urine</td><td>Brown color</td><td>Urine</td><td></td></tr></tbody></table></div>"
                },
                "title": "Specimen information"
              }
            ],
            "title": "Laboratory Report"
          },
          {
            "text": {
              "status": "generated",
              "div": "<div xmlns=\"http://www.w3.org/1999/xhtml\"><h3>Annotation</h3><table class=\"hl7__eu__lab__report\"><tr><th>Conclusion and Recommendations based on this report and previous findings known to us</th></tr><tr><td>The patient shows markedly elevated creatinine, low total CO₂, and significant proteinuria, suggesting impaired renal function with possible metabolic acidosis. Urinalysis reveals glucosuria, ketonuria, and proteinuria despite normal blood glucose and low HbA1c, which may indicate renal glycosuria or tubular dysfunction. Cloudy, brown urine with ammoniacal odor may suggest underlying urinary tract pathology. Prompt nephrology evaluation is recommended.</td></tr></table></div>"
            },
            "code": {
              "coding": [
                {
                  "system": "http://loinc.org",
                  "code": "48767-8",
                  "display": "Annotation comment"
                }
              ]
            },
            "title": "Annotation comment"
          }
        ],
        "status": "final",
        "subject": {
          "reference": "urn:uuid:154915b5-05df-4fe8-84bb-9928bd0cd863",
          "display": "Θεμιστοκλής Λιναρδάκη"
        },
        "date": "2022-11-16T07:16:00Z",
        "title": "Laboratory Report",
        "confidentiality": "N"
      }
    },
    {
      "fullUrl": "urn:uuid:6f39a4ff-5923-4d8f-8926-9897da2caf48",
      "resource": {
        "resourceType": "DiagnosticReport",
        "id": "6f39a4ff-5923-4d8f-8926-9897da2caf48",
        "meta": {
          "profile": [
            "http://hl7.eu/fhir/laboratory/StructureDefinition/DiagnosticReport-eu-lab"
          ]
        },
        "identifier": [
          {
            "assigner": {
              "display": "HL7 Europe"
            },
            "system": "urn:oid:2.16.840.1.113883.2.51.999",
            "value": "58157313-398d-4466-bb9f-7a5efd49a25d"
          }
        ],
        "extension": [
          {
            "url": "http://hl7.org/fhir/5.0/StructureDefinition/extension-DiagnosticReport.composition",
            "valueReference": {
              "reference": "urn:uuid:bf666d14-4eca-4ae5-9ca7-f0f328b96549"
            }
          }
        ],
        "category": [
          {
            "coding": [
              {
                "code": "26436-6",
                "system": "http://loinc.org",
                "display": "Laboratory studies (set)"
              }
            ]
          }
        ],
        "specimen": [
          {
            "reference": "urn:uuid:77cce79e-caeb-48b3-a9e6-39cfe78eaa6d"
          },
          {
            "reference": "urn:uuid:c5811d8d-c548-469e-ad12-7c59008c239a"
          },
          {
            "reference": "urn:uuid:b4852790-a070-48ec-9002-ef3a54983b34"
          }
        ],
        "result": [
          {
            "reference": "urn:uuid:785496d6-e2bb-43c5-a40b-9c22cc6c92c3"
          },
          {
            "reference": "urn:uuid:47624f17-b151-4417-9cb0-20bc09db5896"
          },
          {
            "reference": "urn:uuid:84a87c82-0623-439b-a7b3-0a17a295f3f1"
          },
          {
            "reference": "urn:uuid:e12aee46-70e1-4dd1-b903-dce51314d870"
          },
          {
            "reference": "urn:uuid:cc29a073-e879-4608-a842-c25390bd00c1"
          },
          {
            "reference": "urn:uuid:357c2a40-a449-464d-817a-01f313f5e124"
          },
          {
            "reference": "urn:uuid:f8d71e96-b91e-48f1-b4d2-e6c84e85c9dd"
          },
          {
            "reference": "urn:uuid:59d84f17-0b2d-46e4-b327-e4e559ced42c"
          },
          {
            "reference": "urn:uuid:2e405fa6-de5b-4e10-af35-3139b5534689"
          },
          {
            "reference": "urn:uuid:6a27c35c-848c-42b4-a87e-912a6ca9b273"
          },
          {
            "reference": "urn:uuid:12056357-ec4e-49d5-8d6c-ff50e857978a"
          },
          {
            "reference": "urn:uuid:87776c6a-daa7-4c36-980e-db5b31908f46"
          },
          {
            "reference": "urn:uuid:42e26a50-8675-404c-9c18-b2cac9b92055"
          },
          {
            "reference": "urn:uuid:dc5f163c-0e4b-49e7-8183-654bfc1e9ce1"
          },
          {
            "reference": "urn:uuid:5885a54b-f81f-4cbf-a056-7dea5c7c5cf7"
          },
          {
            "reference": "urn:uuid:63c2daf5-de3c-4631-897e-a7421efa26e3"
          },
          {
            "reference": "urn:uuid:7f30e010-6691-4998-a930-810d8e4d748c"
          },
          {
            "reference": "urn:uuid:e9718c62-cf51-47f1-bdf8-11ca3a2fa66d"
          },
          {
            "reference": "urn:uuid:4e584ac3-909a-4590-9a4f-5e26ea04ce68"
          },
          {
            "reference": "urn:uuid:a776f814-cb41-496b-a9a7-4af4f91bfa2a"
          },
          {
            "reference": "urn:uuid:defda001-767d-4f91-ab3e-dd6fe8ea3158"
          },
          {
            "reference": "urn:uuid:f3781df6-45ad-4a1a-9bc0-49b58a71f30b"
          },
          {
            "reference": "urn:uuid:65958c9c-7386-4cc4-a314-321e0ad38b4f"
          },
          {
            "reference": "urn:uuid:338d57d1-eca5-474e-b098-4ac9e1dc5ca3"
          },
          {
            "reference": "urn:uuid:bf0312d0-d690-4a64-b98f-ed4eea67802a"
          },
          {
            "reference": "urn:uuid:ce6122ce-0806-458a-a69a-5921441c1000"
          },
          {
            "reference": "urn:uuid:5c5d4219-8a6e-4a6c-97fb-436ea613e201"
          },
          {
            "reference": "urn:uuid:3901a9bd-abc2-4f45-a41b-ed4c19fb8cb5"
          },
          {
            "reference": "urn:uuid:e22ff846-3b8b-40ec-836e-54a12e3d3836"
          },
          {
            "reference": "urn:uuid:f07ba829-1b99-4c54-8483-c4b7f9c7015d"
          },
          {
            "reference": "urn:uuid:cdbda857-5e1b-4bc5-a12c-0b233b5717d0"
          },
          {
            "reference": "urn:uuid:10ed4175-1fde-4abd-ad79-b22a49dd3f31"
          },
          {
            "reference": "urn:uuid:dc0e4c56-0ed7-4013-9a12-a44173de52c4"
          },
          {
            "reference": "urn:uuid:18d67574-61bc-45f5-92ce-7c2cea5fdd51"
          }
        ],
        "status": "registered",
        "code": {
          "coding": [
            {
              "code": "11502-2",
              "system": "http://loinc.org",
              "display": "Laboratory report"
            }
          ]
        },
        "subject": {
          "reference": "urn:uuid:154915b5-05df-4fe8-84bb-9928bd0cd863",
          "display": "Θεμιστοκλής Λιναρδάκη"
        }
      }
    },
    {
      "fullUrl": "urn:uuid:154915b5-05df-4fe8-84bb-9928bd0cd863",
      "resource": {
        "resourceType": "Patient",
        "id": "154915b5-05df-4fe8-84bb-9928bd0cd863",
        "meta": {
          "security": [
            {
              "system": "http://terminology.hl7.org/CodeSystem/v3-ActReason",
              "code": "HTEST"
            },
            {
              "system": "http://terminology.hl7.org/CodeSystem/v3-ActReason",
              "code": "TRAIN"
            }
          ],
          "tag": [
            {
              "system": "https://synderai.net/fhir/CodeSystem/tags",
              "code": "synthetic",
              "display": "SYNDERAI Synthetic data"
            }
          ],
          "profile": [
            "http://hl7.eu/fhir/base/StructureDefinition/patient-eu-core"
          ]
        },
        "identifier": [
          {
            "type": {
              "coding": [
                {
                  "code": "PT",
                  "system": "http://terminology.hl7.org/CodeSystem/v2-0203"
                }
              ]
            },
            "system": "http://ec.europa.eu/identifier/eci",
            "value": "5962-476889-7"
          },
          {
            "type": {
              "coding": [
                {
                  "code": "MR",
                  "system": "http://terminology.hl7.org/CodeSystem/v2-0203"
                }
              ]
            },
            "system": "http://local.setting.eu/identifier",
            "value": "925e2603-2ef9-6bdf-1330-2ebf526636c4"
          }
        ],
        "name": [
          {
            "family": "Λιναρδάκη"
          },
          {
            "given": [
              "Θεμιστοκλής"
            ]
          },
          {
            "text": "Θεμιστοκλής Λιναρδάκη"
          }
        ],
        "address": [
          {
            "line": [
              "Αμαρύνθου 54-58"
            ],
            "use": "home",
            "type": "physical",
            "postalCode": "262 21",
            "city": "Πάτρα",
            "country": "Greece"
          }
        ],
        "telecom": [
          {
            "system": "phone",
            "value": "+302226364480"
          }
        ],
        "extension": [
          {
            "url": "http://hl7.org/fhir/StructureDefinition/patient-nationality",
            "valueCodeableConcept": {
              "coding": [
                {
                  "code": "GR",
                  "system": "http://hl7.org/fhir/ValueSet/country"
                }
              ]
            }
          }
        ],
        "text": {
          "status": "generated",
          "div": "<div xmlns=\"http://www.w3.org/1999/xhtml\"><table class=\"hl7__ips\"><tr><td>Θεμιστοκλής Λιναρδάκη</td><td>male</td><td>21-Jan-1974</td></tr></table></div>"
        },
        "gender": "male",
        "birthDate": "1974-01-21"
      }
    },
    {
      "fullUrl": "urn:uuid:18ae6587-c82d-47b8-9b3c-fafd8f553230",
      "resource": {
        "resourceType": "ServiceRequest",
        "id": "18ae6587-c82d-47b8-9b3c-fafd8f553230",
        "meta": {
          "profile": [
            "http://hl7.eu/fhir/laboratory/StructureDefinition/ServiceRequest-eu-lab"
          ]
        },
        "identifier": [
          {
            "system": "http://example.org",
            "value": "c652f92f-193d-47a2-8e60-2ac9749b7eaa"
          }
        ],
        "specimen": [
          {
            "reference": "urn:uuid:77cce79e-caeb-48b3-a9e6-39cfe78eaa6d"
          },
          {
            "reference": "urn:uuid:c5811d8d-c548-469e-ad12-7c59008c239a"
          },
          {
            "reference": "urn:uuid:b4852790-a070-48ec-9002-ef3a54983b34"
          }
        ],
        "reasonCode": [
          {
            "coding": [
              {
                "code": "237602007",
                "system": "http://snomed.info/sct",
                "display": "Metabolic syndrome X"
              }
            ]
          },
          {
            "coding": [
              {
                "code": "433144002",
                "system": "http://snomed.info/sct",
                "display": "Chronic kidney disease stage 3"
              }
            ]
          },
          {
            "coding": [
              {
                "code": "157141000119108",
                "system": "http://snomed.info/sct",
                "display": "Proteinuria due to type 2 diabetes mellitus"
              }
            ]
          },
          {
            "coding": [
              {
                "code": "431856006",
                "system": "http://snomed.info/sct",
                "display": "Chronic kidney disease stage 2"
              }
            ]
          },
          {
            "coding": [
              {
                "code": "90781000119102",
                "system": "http://snomed.info/sct",
                "display": "Microalbuminuria due to type 2 diabetes mellitus"
              }
            ]
          },
          {
            "coding": [
              {
                "code": "127013003",
                "system": "http://snomed.info/sct",
                "display": "Disorder of kidney due to diabetes mellitus"
              }
            ]
          },
          {
            "coding": [
              {
                "code": "431855005",
                "system": "http://snomed.info/sct",
                "display": "Chronic kidney disease stage 1"
              }
            ]
          },
          {
            "coding": [
              {
                "code": "59621000",
                "system": "http://snomed.info/sct",
                "display": "Essential hypertension"
              }
            ]
          },
          {
            "coding": [
              {
                "code": "15777000",
                "system": "http://snomed.info/sct",
                "display": "Prediabetes"
              }
            ]
          },
          {
            "coding": [
              {
                "code": "271737000",
                "system": "http://snomed.info/sct",
                "display": "Anemia"
              }
            ]
          }
        ],
        "status": "active",
        "intent": "order",
        "code": {
          "coding": [
            {
              "code": "108252007",
              "system": "http://snomed.info/sct",
              "display": "Laboratory procedure"
            }
          ]
        },
        "subject": {
          "reference": "urn:uuid:154915b5-05df-4fe8-84bb-9928bd0cd863",
          "display": "Θεμιστοκλής Λιναρδάκη"
        },
        "requester": {
          "reference": "urn:uuid:1868bc2c-177d-431b-a99b-e24342c19f67"
        }
      }
    },
    {
      "fullUrl": "urn:uuid:1868bc2c-177d-431b-a99b-e24342c19f67",
      "resource": {
        "resourceType": "PractitionerRole",
        "id": "1868bc2c-177d-431b-a99b-e24342c19f67",
        "meta": {
          "profile": [
            "http://hl7.eu/fhir/base/StructureDefinition/practitionerRole-eu"
          ]
        },
        "text": {
          "status": "generated",
          "div": "<div xmlns=\"http://www.w3.org/1999/xhtml\">Provider Role Id: 1868bc2c-177d-431b-a99b-e24342c19f67</div>"
        },
        "organization": {
          "reference": "urn:uuid:a6ba3d2c-de67-4adf-8999-6818afebc5a8"
        }
      }
    },
    {
      "fullUrl": "urn:uuid:a6ba3d2c-de67-4adf-8999-6818afebc5a8",
      "resource": {
        "resourceType": "Organization",
        "id": "a6ba3d2c-de67-4adf-8999-6818afebc5a8",
        "meta": {
          "profile": [
            "http://hl7.eu/fhir/base/StructureDefinition/organization-eu"
          ]
        },
        "identifier": [
          {
            "assigner": {
              "display": "HL7 Europe"
            },
            "system": "urn:oid:2.16.840.1.113883.2.51.999",
            "value": "9fea5311-281e-43ee-842a-2fe35d006930"
          }
        ],
        "address": [
          {
            "line": [
              "211 Odós Filellinon"
            ],
            "city": "Patras",
            "postalCode": "262 21",
            "country": "Greece"
          }
        ],
        "text": {
          "status": "generated",
          "div": "<div xmlns=\"http://www.w3.org/1999/xhtml\">Provider Organization: Dr. Dimitris Economou</div>"
        },
        "name": "Dr. Dimitris Economou"
      }
    },
    {
      "fullUrl": "urn:uuid:77cce79e-caeb-48b3-a9e6-39cfe78eaa6d",
      "resource": {
        "resourceType": "Specimen",
        "id": "77cce79e-caeb-48b3-a9e6-39cfe78eaa6d",
        "meta": {
          "profile": [
            "http://hl7.eu/fhir/laboratory/StructureDefinition/Specimen-eu-lab"
          ]
        },
        "collection": {
          "collectedDateTime": "2022-11-16"
        },
        "text": {
          "status": "generated",
          "div": "<div xmlns=\"http://www.w3.org/1999/xhtml\"><table class=\"hl7__eu__lab__report\"><tr><th>Specimen</th><th>Collection Date</th></tr><tr><td>Acellular blood (serum or plasma) specimen</td><td><span class=\"nb\">16-Nov-2022</span></td></tr></table></div>"
        },
        "type": {
          "coding": [
            {
              "code": "122592007",
              "system": "http://snomed.info/sct",
              "display": "Acellular blood (serum or plasma) specimen"
            }
          ]
        }
      }
    },
    {
      "fullUrl": "urn:uuid:c5811d8d-c548-469e-ad12-7c59008c239a",
      "resource": {
        "resourceType": "Specimen",
        "id": "c5811d8d-c548-469e-ad12-7c59008c239a",
        "meta": {
          "profile": [
            "http://hl7.eu/fhir/laboratory/StructureDefinition/Specimen-eu-lab"
          ]
        },
        "collection": {
          "collectedDateTime": "2022-11-16"
        },
        "text": {
          "status": "generated",
          "div": "<div xmlns=\"http://www.w3.org/1999/xhtml\"><table class=\"hl7__eu__lab__report\"><tr><th>Specimen</th><th>Collection Date</th></tr><tr><td>Urine specimen</td><td><span class=\"nb\">16-Nov-2022</span></td></tr></table></div>"
        },
        "type": {
          "coding": [
            {
              "code": "122575003",
              "system": "http://snomed.info/sct",
              "display": "Urine specimen"
            }
          ]
        }
      }
    },
    {
      "fullUrl": "urn:uuid:b4852790-a070-48ec-9002-ef3a54983b34",
      "resource": {
        "resourceType": "Specimen",
        "id": "b4852790-a070-48ec-9002-ef3a54983b34",
        "meta": {
          "profile": [
            "http://hl7.eu/fhir/laboratory/StructureDefinition/Specimen-eu-lab"
          ]
        },
        "collection": {
          "collectedDateTime": "2022-11-16"
        },
        "text": {
          "status": "generated",
          "div": "<div xmlns=\"http://www.w3.org/1999/xhtml\"><table class=\"hl7__eu__lab__report\"><tr><th>Specimen</th><th>Collection Date</th></tr><tr><td>Whole blood specimen (specimen)</td><td><span class=\"nb\">16-Nov-2022</span></td></tr></table></div>"
        },
        "type": {
          "coding": [
            {
              "code": "258580003",
              "system": "http://snomed.info/sct",
              "display": "Whole blood specimen (specimen)"
            }
          ]
        }
      }
    },
    {
      "fullUrl": "urn:uuid:785496d6-e2bb-43c5-a40b-9c22cc6c92c3",
      "resource": {
        "resourceType": "Observation",
        "id": "785496d6-e2bb-43c5-a40b-9c22cc6c92c3",
        "meta": {
          "profile": [
            "http://hl7.eu/fhir/laboratory/StructureDefinition/Observation-resultslab-eu-lab"
          ]
        },
        "performer": [
          {
            "display": "The Central European Lab"
          }
        ],
        "category": [
          {
            "coding": [
              {
                "system": "http://terminology.hl7.org/CodeSystem/observation-category",
                "code": "laboratory"
              }
            ]
          }
        ],
        "code": {
          "coding": [
            {
              "code": "2345-7",
              "system": "http://loinc.org",
              "display": "Glucose [Mass/volume] in Serum or Plasma"
            }
          ],
          "text": "Glucose [Mass/volume] in Serum or Plasma"
        },
        "valueQuantity": {
          "system": "http://unitsofmeasure.org",
          "value": 75.6,
          "unit": "mg/dL",
          "code": "mg/dL"
        },
        "referenceRange": [
          {
            "low": {
              "value": 70,
              "code": "mg/dL",
              "system": "http://unitsofmeasure.org"
            }
          },
          {
            "high": {
              "value": 140,
              "code": "mg/dL",
              "system": "http://unitsofmeasure.org"
            }
          }
        ],
        "text": {
          "status": "generated",
          "div": "<div xmlns=\"http://www.w3.org/1999/xhtml\"><table class=\"hl7__eu__lab__report\"><tr><th>Test</th><th>16-Nov-2022</th><th>Reference&#xA0;Range</th><th>Unit</th></tr><tr><td>Glucose [Mass/volume] in Serum or Plasma</td><td>75.6</td><td>70 - 140</td><td></td><td>mg/dL</td></tr></table></div>"
        },
        "status": "final",
        "subject": {
          "reference": "urn:uuid:154915b5-05df-4fe8-84bb-9928bd0cd863",
          "display": "Θεμιστοκλής Λιναρδάκη"
        },
        "effectiveDateTime": "2022-11-16T06:16:00Z",
        "specimen": {
          "reference": "urn:uuid:77cce79e-caeb-48b3-a9e6-39cfe78eaa6d"
        }
      }
    },
    {
      "fullUrl": "urn:uuid:47624f17-b151-4417-9cb0-20bc09db5896",
      "resource": {
        "resourceType": "Observation",
        "id": "47624f17-b151-4417-9cb0-20bc09db5896",
        "meta": {
          "profile": [
            "http://hl7.eu/fhir/laboratory/StructureDefinition/Observation-resultslab-eu-lab"
          ]
        },
        "performer": [
          {
            "display": "The Central European Lab"
          }
        ],
        "category": [
          {
            "coding": [
              {
                "system": "http://terminology.hl7.org/CodeSystem/observation-category",
                "code": "laboratory"
              }
            ]
          }
        ],
        "code": {
          "coding": [
            {
              "code": "3094-0",
              "system": "http://loinc.org",
              "display": "Urea nitrogen [Mass/volume] in Serum or Plasma"
            }
          ],
          "text": "Urea nitrogen [Mass/volume] in Serum or Plasma"
        },
        "valueQuantity": {
          "system": "http://unitsofmeasure.org",
          "value": 8.8,
          "unit": "mg/dL",
          "code": "mg/dL"
        },
        "referenceRange": [
          {
            "low": {
              "value": 7,
              "code": "mg/dL",
              "system": "http://unitsofmeasure.org"
            }
          },
          {
            "high": {
              "value": 20,
              "code": "mg/dL",
              "system": "http://unitsofmeasure.org"
            }
          }
        ],
        "text": {
          "status": "generated",
          "div": "<div xmlns=\"http://www.w3.org/1999/xhtml\"><table class=\"hl7__eu__lab__report\"><tr><th>Test</th><th>16-Nov-2022</th><th>Reference&#xA0;Range</th><th>Unit</th></tr><tr><td>Urea nitrogen [Mass/volume] in Serum or Plasma</td><td>8.8</td><td>7 - 20</td><td></td><td>mg/dL</td></tr></table></div>"
        },
        "status": "final",
        "subject": {
          "reference": "urn:uuid:154915b5-05df-4fe8-84bb-9928bd0cd863",
          "display": "Θεμιστοκλής Λιναρδάκη"
        },
        "effectiveDateTime": "2022-11-16T06:16:00Z",
        "specimen": {
          "reference": "urn:uuid:77cce79e-caeb-48b3-a9e6-39cfe78eaa6d"
        }
      }
    },
    {
      "fullUrl": "urn:uuid:84a87c82-0623-439b-a7b3-0a17a295f3f1",
      "resource": {
        "resourceType": "Observation",
        "id": "84a87c82-0623-439b-a7b3-0a17a295f3f1",
        "meta": {
          "profile": [
            "http://hl7.eu/fhir/laboratory/StructureDefinition/Observation-resultslab-eu-lab"
          ]
        },
        "performer": [
          {
            "display": "The Central European Lab"
          }
        ],
        "category": [
          {
            "coding": [
              {
                "system": "http://terminology.hl7.org/CodeSystem/observation-category",
                "code": "laboratory"
              }
            ]
          }
        ],
        "code": {
          "coding": [
            {
              "code": "2160-0",
              "system": "http://loinc.org",
              "display": "Creatinine [Mass/volume] in Serum or Plasma"
            }
          ],
          "text": "Creatinine [Mass/volume] in Serum or Plasma"
        },
        "valueQuantity": {
          "system": "http://unitsofmeasure.org",
          "value": 2.1,
          "unit": "mg/dL",
          "code": "mg/dL"
        },
        "referenceRange": [
          {
            "low": {
              "value": 0.9,
              "code": "mg/dL",
              "system": "http://unitsofmeasure.org"
            }
          },
          {
            "high": {
              "value": 1.3,
              "code": "mg/dL",
              "system": "http://unitsofmeasure.org"
            }
          }
        ],
        "interpretation": [
          {
            "coding": [
              {
                "code": "H",
                "system": "http://terminology.hl7.org/CodeSystem/v3-ObservationInterpretation",
                "display": "High"
              }
            ]
          }
        ],
        "text": {
          "status": "generated",
          "div": "<div xmlns=\"http://www.w3.org/1999/xhtml\"><table class=\"hl7__eu__lab__report\"><tr><th>Test</th><th>16-Nov-2022</th><th>Reference&#xA0;Range</th><th>Unit</th></tr><tr><td>Creatinine [Mass/volume] in Serum or Plasma</td><td>2.1</td><td>0.9 - 1.3</td><td>H</td><td>mg/dL</td></tr></table></div>"
        },
        "status": "final",
        "subject": {
          "reference": "urn:uuid:154915b5-05df-4fe8-84bb-9928bd0cd863",
          "display": "Θεμιστοκλής Λιναρδάκη"
        },
        "effectiveDateTime": "2022-11-16T06:16:00Z",
        "specimen": {
          "reference": "urn:uuid:77cce79e-caeb-48b3-a9e6-39cfe78eaa6d"
        }
      }
    },
    {
      "fullUrl": "urn:uuid:e12aee46-70e1-4dd1-b903-dce51314d870",
      "resource": {
        "resourceType": "Observation",
        "id": "e12aee46-70e1-4dd1-b903-dce51314d870",
        "meta": {
          "profile": [
            "http://hl7.eu/fhir/laboratory/StructureDefinition/Observation-resultslab-eu-lab"
          ]
        },
        "performer": [
          {
            "display": "The Central European Lab"
          }
        ],
        "category": [
          {
            "coding": [
              {
                "system": "http://terminology.hl7.org/CodeSystem/observation-category",
                "code": "laboratory"
              }
            ]
          }
        ],
        "code": {
          "coding": [
            {
              "code": "17861-6",
              "system": "http://loinc.org",
              "display": "Calcium [Mass/volume] in Serum or Plasma"
            }
          ],
          "text": "Calcium [Mass/volume] in Serum or Plasma"
        },
        "valueQuantity": {
          "system": "http://unitsofmeasure.org",
          "value": 9.9,
          "unit": "mg/dL",
          "code": "mg/dL"
        },
        "referenceRange": [
          {
            "low": {
              "value": 8.5,
              "code": "mg/dL",
              "system": "http://unitsofmeasure.org"
            }
          },
          {
            "high": {
              "value": 10.5,
              "code": "mg/dL",
              "system": "http://unitsofmeasure.org"
            }
          }
        ],
        "text": {
          "status": "generated",
          "div": "<div xmlns=\"http://www.w3.org/1999/xhtml\"><table class=\"hl7__eu__lab__report\"><tr><th>Test</th><th>16-Nov-2022</th><th>Reference&#xA0;Range</th><th>Unit</th></tr><tr><td>Calcium [Mass/volume] in Serum or Plasma</td><td>9.9</td><td>8.5 - 10.5</td><td></td><td>mg/dL</td></tr></table></div>"
        },
        "status": "final",
        "subject": {
          "reference": "urn:uuid:154915b5-05df-4fe8-84bb-9928bd0cd863",
          "display": "Θεμιστοκλής Λιναρδάκη"
        },
        "effectiveDateTime": "2022-11-16T06:16:00Z",
        "specimen": {
          "reference": "urn:uuid:77cce79e-caeb-48b3-a9e6-39cfe78eaa6d"
        }
      }
    },
    {
      "fullUrl": "urn:uuid:cc29a073-e879-4608-a842-c25390bd00c1",
      "resource": {
        "resourceType": "Observation",
        "id": "cc29a073-e879-4608-a842-c25390bd00c1",
        "meta": {
          "profile": [
            "http://hl7.eu/fhir/laboratory/StructureDefinition/Observation-resultslab-eu-lab"
          ]
        },
        "performer": [
          {
            "display": "The Central European Lab"
          }
        ],
        "category": [
          {
            "coding": [
              {
                "system": "http://terminology.hl7.org/CodeSystem/observation-category",
                "code": "laboratory"
              }
            ]
          }
        ],
        "code": {
          "coding": [
            {
              "code": "2951-2",
              "system": "http://loinc.org",
              "display": "Sodium [Moles/volume] in Serum or Plasma"
            }
          ],
          "text": "Sodium [Moles/volume] in Serum or Plasma"
        },
        "valueQuantity": {
          "system": "http://unitsofmeasure.org",
          "value": 138.8,
          "unit": "mmol/L",
          "code": "mmol/L"
        },
        "referenceRange": [
          {
            "low": {
              "value": 135,
              "code": "mmol/L",
              "system": "http://unitsofmeasure.org"
            }
          },
          {
            "high": {
              "value": 145,
              "code": "mmol/L",
              "system": "http://unitsofmeasure.org"
            }
          }
        ],
        "text": {
          "status": "generated",
          "div": "<div xmlns=\"http://www.w3.org/1999/xhtml\"><table class=\"hl7__eu__lab__report\"><tr><th>Test</th><th>16-Nov-2022</th><th>Reference&#xA0;Range</th><th>Unit</th></tr><tr><td>Sodium [Moles/volume] in Serum or Plasma</td><td>138.8</td><td>135 - 145</td><td></td><td>mmol/L</td></tr></table></div>"
        },
        "status": "final",
        "subject": {
          "reference": "urn:uuid:154915b5-05df-4fe8-84bb-9928bd0cd863",
          "display": "Θεμιστοκλής Λιναρδάκη"
        },
        "effectiveDateTime": "2022-11-16T06:16:00Z",
        "specimen": {
          "reference": "urn:uuid:77cce79e-caeb-48b3-a9e6-39cfe78eaa6d"
        }
      }
    },
    {
      "fullUrl": "urn:uuid:357c2a40-a449-464d-817a-01f313f5e124",
      "resource": {
        "resourceType": "Observation",
        "id": "357c2a40-a449-464d-817a-01f313f5e124",
        "meta": {
          "profile": [
            "http://hl7.eu/fhir/laboratory/StructureDefinition/Observation-resultslab-eu-lab"
          ]
        },
        "performer": [
          {
            "display": "The Central European Lab"
          }
        ],
        "category": [
          {
            "coding": [
              {
                "system": "http://terminology.hl7.org/CodeSystem/observation-category",
                "code": "laboratory"
              }
            ]
          }
        ],
        "code": {
          "coding": [
            {
              "code": "2823-3",
              "system": "http://loinc.org",
              "display": "Potassium [Moles/volume] in Serum or Plasma"
            }
          ],
          "text": "Potassium [Moles/volume] in Serum or Plasma"
        },
        "valueQuantity": {
          "system": "http://unitsofmeasure.org",
          "value": 4.7,
          "unit": "mmol/L",
          "code": "mmol/L"
        },
        "referenceRange": [
          {
            "low": {
              "value": 3.5,
              "code": "mmol/L",
              "system": "http://unitsofmeasure.org"
            }
          },
          {
            "high": {
              "value": 5,
              "code": "mmol/L",
              "system": "http://unitsofmeasure.org"
            }
          }
        ],
        "text": {
          "status": "generated",
          "div": "<div xmlns=\"http://www.w3.org/1999/xhtml\"><table class=\"hl7__eu__lab__report\"><tr><th>Test</th><th>16-Nov-2022</th><th>Reference&#xA0;Range</th><th>Unit</th></tr><tr><td>Potassium [Moles/volume] in Serum or Plasma</td><td>4.7</td><td>3.5 - 5</td><td></td><td>mmol/L</td></tr></table></div>"
        },
        "status": "final",
        "subject": {
          "reference": "urn:uuid:154915b5-05df-4fe8-84bb-9928bd0cd863",
          "display": "Θεμιστοκλής Λιναρδάκη"
        },
        "effectiveDateTime": "2022-11-16T06:16:00Z",
        "specimen": {
          "reference": "urn:uuid:77cce79e-caeb-48b3-a9e6-39cfe78eaa6d"
        }
      }
    },
    {
      "fullUrl": "urn:uuid:f8d71e96-b91e-48f1-b4d2-e6c84e85c9dd",
      "resource": {
        "resourceType": "Observation",
        "id": "f8d71e96-b91e-48f1-b4d2-e6c84e85c9dd",
        "meta": {
          "profile": [
            "http://hl7.eu/fhir/laboratory/StructureDefinition/Observation-resultslab-eu-lab"
          ]
        },
        "performer": [
          {
            "display": "The Central European Lab"
          }
        ],
        "category": [
          {
            "coding": [
              {
                "system": "http://terminology.hl7.org/CodeSystem/observation-category",
                "code": "laboratory"
              }
            ]
          }
        ],
        "code": {
          "coding": [
            {
              "code": "2075-0",
              "system": "http://loinc.org",
              "display": "Chloride [Moles/volume] in Serum or Plasma"
            }
          ],
          "text": "Chloride [Moles/volume] in Serum or Plasma"
        },
        "valueQuantity": {
          "system": "http://unitsofmeasure.org",
          "value": 103.6,
          "unit": "mmol/L",
          "code": "mmol/L"
        },
        "referenceRange": [
          {
            "low": {
              "value": 98,
              "code": "mmol/L",
              "system": "http://unitsofmeasure.org"
            }
          },
          {
            "high": {
              "value": 108,
              "code": "mmol/L",
              "system": "http://unitsofmeasure.org"
            }
          }
        ],
        "text": {
          "status": "generated",
          "div": "<div xmlns=\"http://www.w3.org/1999/xhtml\"><table class=\"hl7__eu__lab__report\"><tr><th>Test</th><th>16-Nov-2022</th><th>Reference&#xA0;Range</th><th>Unit</th></tr><tr><td>Chloride [Moles/volume] in Serum or Plasma</td><td>103.6</td><td>98 - 108</td><td></td><td>mmol/L</td></tr></table></div>"
        },
        "status": "final",
        "subject": {
          "reference": "urn:uuid:154915b5-05df-4fe8-84bb-9928bd0cd863",
          "display": "Θεμιστοκλής Λιναρδάκη"
        },
        "effectiveDateTime": "2022-11-16T06:16:00Z",
        "specimen": {
          "reference": "urn:uuid:77cce79e-caeb-48b3-a9e6-39cfe78eaa6d"
        }
      }
    },
    {
      "fullUrl": "urn:uuid:59d84f17-0b2d-46e4-b327-e4e559ced42c",
      "resource": {
        "resourceType": "Observation",
        "id": "59d84f17-0b2d-46e4-b327-e4e559ced42c",
        "meta": {
          "profile": [
            "http://hl7.eu/fhir/laboratory/StructureDefinition/Observation-resultslab-eu-lab"
          ]
        },
        "performer": [
          {
            "display": "The Central European Lab"
          }
        ],
        "category": [
          {
            "coding": [
              {
                "system": "http://terminology.hl7.org/CodeSystem/observation-category",
                "code": "laboratory"
              }
            ]
          }
        ],
        "code": {
          "coding": [
            {
              "code": "2028-9",
              "system": "http://loinc.org",
              "display": "Carbon dioxide, total [Moles/volume] in Serum or Plasma"
            }
          ],
          "text": "Carbon dioxide, total [Moles/volume] in Serum or Plasma"
        },
        "valueQuantity": {
          "system": "http://unitsofmeasure.org",
          "value": 20.4,
          "unit": "mmol/L",
          "code": "mmol/L"
        },
        "referenceRange": [
          {
            "low": {
              "value": 22,
              "code": "mmol/L",
              "system": "http://unitsofmeasure.org"
            }
          },
          {
            "high": {
              "value": 29,
              "code": "mmol/L",
              "system": "http://unitsofmeasure.org"
            }
          }
        ],
        "interpretation": [
          {
            "coding": [
              {
                "code": "L",
                "system": "http://terminology.hl7.org/CodeSystem/v3-ObservationInterpretation",
                "display": "Low"
              }
            ]
          }
        ],
        "text": {
          "status": "generated",
          "div": "<div xmlns=\"http://www.w3.org/1999/xhtml\"><table class=\"hl7__eu__lab__report\"><tr><th>Test</th><th>16-Nov-2022</th><th>Reference&#xA0;Range</th><th>Unit</th></tr><tr><td>Carbon dioxide, total [Moles/volume] in Serum or Plasma</td><td>20.4</td><td>22 - 29</td><td>L</td><td>mmol/L</td></tr></table></div>"
        },
        "status": "final",
        "subject": {
          "reference": "urn:uuid:154915b5-05df-4fe8-84bb-9928bd0cd863",
          "display": "Θεμιστοκλής Λιναρδάκη"
        },
        "effectiveDateTime": "2022-11-16T06:16:00Z",
        "specimen": {
          "reference": "urn:uuid:77cce79e-caeb-48b3-a9e6-39cfe78eaa6d"
        }
      }
    },
    {
      "fullUrl": "urn:uuid:2e405fa6-de5b-4e10-af35-3139b5534689",
      "resource": {
        "resourceType": "Observation",
        "id": "2e405fa6-de5b-4e10-af35-3139b5534689",
        "meta": {
          "profile": [
            "http://hl7.eu/fhir/laboratory/StructureDefinition/Observation-resultslab-eu-lab"
          ]
        },
        "performer": [
          {
            "display": "The Central European Lab"
          }
        ],
        "category": [
          {
            "coding": [
              {
                "system": "http://terminology.hl7.org/CodeSystem/observation-category",
                "code": "laboratory"
              }
            ]
          }
        ],
        "code": {
          "coding": [
            {
              "code": "5767-9",
              "system": "http://loinc.org",
              "display": "Appearance of Urine"
            }
          ],
          "text": "Appearance of Urine"
        },
        "text": {
          "status": "generated",
          "div": "<div xmlns=\"http://www.w3.org/1999/xhtml\"><table class=\"hl7__eu__lab__report\"><tr><th>Test</th><th>16-Nov-2022</th><th>Reference&#xA0;Range</th><th>Unit</th></tr><tr><td>Appearance of Urine</td></tr></table></div>"
        },
        "status": "final",
        "subject": {
          "reference": "urn:uuid:154915b5-05df-4fe8-84bb-9928bd0cd863",
          "display": "Θεμιστοκλής Λιναρδάκη"
        },
        "effectiveDateTime": "2022-11-16T06:16:00Z",
        "specimen": {
          "reference": "urn:uuid:c5811d8d-c548-469e-ad12-7c59008c239a"
        }
      }
    },
    {
      "fullUrl": "urn:uuid:6a27c35c-848c-42b4-a87e-912a6ca9b273",
      "resource": {
        "resourceType": "Observation",
        "id": "6a27c35c-848c-42b4-a87e-912a6ca9b273",
        "meta": {
          "profile": [
            "http://hl7.eu/fhir/laboratory/StructureDefinition/Observation-resultslab-eu-lab"
          ]
        },
        "performer": [
          {
            "display": "The Central European Lab"
          }
        ],
        "category": [
          {
            "coding": [
              {
                "system": "http://terminology.hl7.org/CodeSystem/observation-category",
                "code": "laboratory"
              }
            ]
          }
        ],
        "code": {
          "coding": [
            {
              "code": "34533-0",
              "system": "http://loinc.org",
              "display": "Odor of Urine"
            }
          ],
          "text": "Odor of Urine"
        },
        "text": {
          "status": "generated",
          "div": "<div xmlns=\"http://www.w3.org/1999/xhtml\"><table class=\"hl7__eu__lab__report\"><tr><th>Test</th><th>16-Nov-2022</th><th>Reference&#xA0;Range</th><th>Unit</th></tr><tr><td>Odor of Urine</td></tr></table></div>"
        },
        "status": "final",
        "subject": {
          "reference": "urn:uuid:154915b5-05df-4fe8-84bb-9928bd0cd863",
          "display": "Θεμιστοκλής Λιναρδάκη"
        },
        "effectiveDateTime": "2022-11-16T06:16:00Z",
        "specimen": {
          "reference": "urn:uuid:c5811d8d-c548-469e-ad12-7c59008c239a"
        }
      }
    },
    {
      "fullUrl": "urn:uuid:12056357-ec4e-49d5-8d6c-ff50e857978a",
      "resource": {
        "resourceType": "Observation",
        "id": "12056357-ec4e-49d5-8d6c-ff50e857978a",
        "meta": {
          "profile": [
            "http://hl7.eu/fhir/laboratory/StructureDefinition/Observation-resultslab-eu-lab"
          ]
        },
        "performer": [
          {
            "display": "The Central European Lab"
          }
        ],
        "category": [
          {
            "coding": [
              {
                "system": "http://terminology.hl7.org/CodeSystem/observation-category",
                "code": "laboratory"
              }
            ]
          }
        ],
        "code": {
          "coding": [
            {
              "code": "32167-9",
              "system": "http://loinc.org",
              "display": "Clarity of Urine"
            }
          ],
          "text": "Clarity of Urine"
        },
        "text": {
          "status": "generated",
          "div": "<div xmlns=\"http://www.w3.org/1999/xhtml\"><table class=\"hl7__eu__lab__report\"><tr><th>Test</th><th>16-Nov-2022</th><th>Reference&#xA0;Range</th><th>Unit</th></tr><tr><td>Clarity of Urine</td></tr></table></div>"
        },
        "status": "final",
        "subject": {
          "reference": "urn:uuid:154915b5-05df-4fe8-84bb-9928bd0cd863",
          "display": "Θεμιστοκλής Λιναρδάκη"
        },
        "effectiveDateTime": "2022-11-16T06:16:00Z",
        "specimen": {
          "reference": "urn:uuid:c5811d8d-c548-469e-ad12-7c59008c239a"
        }
      }
    },
    {
      "fullUrl": "urn:uuid:87776c6a-daa7-4c36-980e-db5b31908f46",
      "resource": {
        "resourceType": "Observation",
        "id": "87776c6a-daa7-4c36-980e-db5b31908f46",
        "meta": {
          "profile": [
            "http://hl7.eu/fhir/laboratory/StructureDefinition/Observation-resultslab-eu-lab"
          ]
        },
        "performer": [
          {
            "display": "The Central European Lab"
          }
        ],
        "category": [
          {
            "coding": [
              {
                "system": "http://terminology.hl7.org/CodeSystem/observation-category",
                "code": "laboratory"
              }
            ]
          }
        ],
        "code": {
          "coding": [
            {
              "code": "5778-6",
              "system": "http://loinc.org",
              "display": "Color of Urine"
            }
          ],
          "text": "Color of Urine"
        },
        "text": {
          "status": "generated",
          "div": "<div xmlns=\"http://www.w3.org/1999/xhtml\"><table class=\"hl7__eu__lab__report\"><tr><th>Test</th><th>16-Nov-2022</th><th>Reference&#xA0;Range</th><th>Unit</th></tr><tr><td>Color of Urine</td></tr></table></div>"
        },
        "status": "final",
        "subject": {
          "reference": "urn:uuid:154915b5-05df-4fe8-84bb-9928bd0cd863",
          "display": "Θεμιστοκλής Λιναρδάκη"
        },
        "effectiveDateTime": "2022-11-16T06:16:00Z",
        "specimen": {
          "reference": "urn:uuid:c5811d8d-c548-469e-ad12-7c59008c239a"
        }
      }
    },
    {
      "fullUrl": "urn:uuid:42e26a50-8675-404c-9c18-b2cac9b92055",
      "resource": {
        "resourceType": "Observation",
        "id": "42e26a50-8675-404c-9c18-b2cac9b92055",
        "meta": {
          "profile": [
            "http://hl7.eu/fhir/laboratory/StructureDefinition/Observation-resultslab-eu-lab"
          ]
        },
        "performer": [
          {
            "display": "The Central European Lab"
          }
        ],
        "category": [
          {
            "coding": [
              {
                "system": "http://terminology.hl7.org/CodeSystem/observation-category",
                "code": "laboratory"
              }
            ]
          }
        ],
        "code": {
          "coding": [
            {
              "code": "5792-7",
              "system": "http://loinc.org",
              "display": "Glucose [Mass/volume] in Urine by Test strip"
            }
          ],
          "text": "Glucose [Mass/volume] in Urine by Test strip"
        },
        "valueQuantity": {
          "system": "http://unitsofmeasure.org",
          "value": 1.3,
          "unit": "mg/dL",
          "code": "mg/dL"
        },
        "referenceRange": [
          {
            "low": {
              "value": 0,
              "code": "mg/dL",
              "system": "http://unitsofmeasure.org"
            }
          },
          {
            "high": {
              "value": 0.8,
              "code": "mg/dL",
              "system": "http://unitsofmeasure.org"
            }
          }
        ],
        "interpretation": [
          {
            "coding": [
              {
                "code": "H",
                "system": "http://terminology.hl7.org/CodeSystem/v3-ObservationInterpretation",
                "display": "High"
              }
            ]
          }
        ],
        "text": {
          "status": "generated",
          "div": "<div xmlns=\"http://www.w3.org/1999/xhtml\"><table class=\"hl7__eu__lab__report\"><tr><th>Test</th><th>16-Nov-2022</th><th>Reference&#xA0;Range</th><th>Unit</th></tr><tr><td>Glucose [Mass/volume] in Urine by Test strip</td><td>1.3</td><td>0 - 0.8</td><td>H</td><td>mg/dL</td></tr></table></div>"
        },
        "status": "final",
        "subject": {
          "reference": "urn:uuid:154915b5-05df-4fe8-84bb-9928bd0cd863",
          "display": "Θεμιστοκλής Λιναρδάκη"
        },
        "effectiveDateTime": "2022-11-16T06:16:00Z",
        "specimen": {
          "reference": "urn:uuid:c5811d8d-c548-469e-ad12-7c59008c239a"
        }
      }
    },
    {
      "fullUrl": "urn:uuid:dc5f163c-0e4b-49e7-8183-654bfc1e9ce1",
      "resource": {
        "resourceType": "Observation",
        "id": "dc5f163c-0e4b-49e7-8183-654bfc1e9ce1",
        "meta": {
          "profile": [
            "http://hl7.eu/fhir/laboratory/StructureDefinition/Observation-resultslab-eu-lab"
          ]
        },
        "performer": [
          {
            "display": "The Central European Lab"
          }
        ],
        "category": [
          {
            "coding": [
              {
                "system": "http://terminology.hl7.org/CodeSystem/observation-category",
                "code": "laboratory"
              }
            ]
          }
        ],
        "code": {
          "coding": [
            {
              "code": "25428-4",
              "system": "http://loinc.org",
              "display": "Glucose [Presence] in Urine by Test strip"
            }
          ],
          "text": "Glucose [Presence] in Urine by Test strip"
        },
        "text": {
          "status": "generated",
          "div": "<div xmlns=\"http://www.w3.org/1999/xhtml\"><table class=\"hl7__eu__lab__report\"><tr><th>Test</th><th>16-Nov-2022</th><th>Reference&#xA0;Range</th><th>Unit</th></tr><tr><td>Glucose [Presence] in Urine by Test strip</td></tr></table></div>"
        },
        "status": "final",
        "subject": {
          "reference": "urn:uuid:154915b5-05df-4fe8-84bb-9928bd0cd863",
          "display": "Θεμιστοκλής Λιναρδάκη"
        },
        "effectiveDateTime": "2022-11-16T06:16:00Z",
        "specimen": {
          "reference": "urn:uuid:c5811d8d-c548-469e-ad12-7c59008c239a"
        }
      }
    },
    {
      "fullUrl": "urn:uuid:5885a54b-f81f-4cbf-a056-7dea5c7c5cf7",
      "resource": {
        "resourceType": "Observation",
        "id": "5885a54b-f81f-4cbf-a056-7dea5c7c5cf7",
        "meta": {
          "profile": [
            "http://hl7.eu/fhir/laboratory/StructureDefinition/Observation-resultslab-eu-lab"
          ]
        },
        "performer": [
          {
            "display": "The Central European Lab"
          }
        ],
        "category": [
          {
            "coding": [
              {
                "system": "http://terminology.hl7.org/CodeSystem/observation-category",
                "code": "laboratory"
              }
            ]
          }
        ],
        "code": {
          "coding": [
            {
              "code": "20505-4",
              "system": "http://loinc.org",
              "display": "Bilirubin.total [Mass/volume] in Urine by Test strip"
            }
          ],
          "text": "Bilirubin.total [Mass/volume] in Urine by Test strip"
        },
        "valueQuantity": {
          "system": "http://unitsofmeasure.org",
          "value": 0.9,
          "unit": "mg/dL",
          "code": "mg/dL"
        },
        "referenceRange": [
          {
            "low": {
              "value": 0.2,
              "code": "mg/dL",
              "system": "http://unitsofmeasure.org"
            }
          },
          {
            "high": {
              "value": 1,
              "code": "mg/dL",
              "system": "http://unitsofmeasure.org"
            }
          }
        ],
        "text": {
          "status": "generated",
          "div": "<div xmlns=\"http://www.w3.org/1999/xhtml\"><table class=\"hl7__eu__lab__report\"><tr><th>Test</th><th>16-Nov-2022</th><th>Reference&#xA0;Range</th><th>Unit</th></tr><tr><td>Bilirubin.total [Mass/volume] in Urine by Test strip</td><td>0.9</td><td>0.2 - 1</td><td></td><td>mg/dL</td></tr></table></div>"
        },
        "status": "final",
        "subject": {
          "reference": "urn:uuid:154915b5-05df-4fe8-84bb-9928bd0cd863",
          "display": "Θεμιστοκλής Λιναρδάκη"
        },
        "effectiveDateTime": "2022-11-16T06:16:00Z",
        "specimen": {
          "reference": "urn:uuid:c5811d8d-c548-469e-ad12-7c59008c239a"
        }
      }
    },
    {
      "fullUrl": "urn:uuid:63c2daf5-de3c-4631-897e-a7421efa26e3",
      "resource": {
        "resourceType": "Observation",
        "id": "63c2daf5-de3c-4631-897e-a7421efa26e3",
        "meta": {
          "profile": [
            "http://hl7.eu/fhir/laboratory/StructureDefinition/Observation-resultslab-eu-lab"
          ]
        },
        "performer": [
          {
            "display": "The Central European Lab"
          }
        ],
        "category": [
          {
            "coding": [
              {
                "system": "http://terminology.hl7.org/CodeSystem/observation-category",
                "code": "laboratory"
              }
            ]
          }
        ],
        "code": {
          "coding": [
            {
              "code": "5770-3",
              "system": "http://loinc.org",
              "display": "Bilirubin.total [Presence] in Urine by Test strip"
            }
          ],
          "text": "Bilirubin.total [Presence] in Urine by Test strip"
        },
        "text": {
          "status": "generated",
          "div": "<div xmlns=\"http://www.w3.org/1999/xhtml\"><table class=\"hl7__eu__lab__report\"><tr><th>Test</th><th>16-Nov-2022</th><th>Reference&#xA0;Range</th><th>Unit</th></tr><tr><td>Bilirubin.total [Presence] in Urine by Test strip</td></tr></table></div>"
        },
        "status": "final",
        "subject": {
          "reference": "urn:uuid:154915b5-05df-4fe8-84bb-9928bd0cd863",
          "display": "Θεμιστοκλής Λιναρδάκη"
        },
        "effectiveDateTime": "2022-11-16T06:16:00Z",
        "specimen": {
          "reference": "urn:uuid:c5811d8d-c548-469e-ad12-7c59008c239a"
        }
      }
    },
    {
      "fullUrl": "urn:uuid:7f30e010-6691-4998-a930-810d8e4d748c",
      "resource": {
        "resourceType": "Observation",
        "id": "7f30e010-6691-4998-a930-810d8e4d748c",
        "meta": {
          "profile": [
            "http://hl7.eu/fhir/laboratory/StructureDefinition/Observation-resultslab-eu-lab"
          ]
        },
        "performer": [
          {
            "display": "The Central European Lab"
          }
        ],
        "category": [
          {
            "coding": [
              {
                "system": "http://terminology.hl7.org/CodeSystem/observation-category",
                "code": "laboratory"
              }
            ]
          }
        ],
        "code": {
          "coding": [
            {
              "code": "5797-6",
              "system": "http://loinc.org",
              "display": "Ketones [Mass/volume] in Urine by Test strip"
            }
          ],
          "text": "Ketones [Mass/volume] in Urine by Test strip"
        },
        "valueQuantity": {
          "system": "http://unitsofmeasure.org",
          "value": 5.6,
          "unit": "mg/dL",
          "code": "mg/dL"
        },
        "referenceRange": [
          {
            "low": {
              "value": 0,
              "code": "mg/dL",
              "system": "http://unitsofmeasure.org"
            }
          },
          {
            "high": {
              "value": 5,
              "code": "mg/dL",
              "system": "http://unitsofmeasure.org"
            }
          }
        ],
        "interpretation": [
          {
            "coding": [
              {
                "code": "H",
                "system": "http://terminology.hl7.org/CodeSystem/v3-ObservationInterpretation",
                "display": "High"
              }
            ]
          }
        ],
        "text": {
          "status": "generated",
          "div": "<div xmlns=\"http://www.w3.org/1999/xhtml\"><table class=\"hl7__eu__lab__report\"><tr><th>Test</th><th>16-Nov-2022</th><th>Reference&#xA0;Range</th><th>Unit</th></tr><tr><td>Ketones [Mass/volume] in Urine by Test strip</td><td>5.6</td><td>0 - 5</td><td>H</td><td>mg/dL</td></tr></table></div>"
        },
        "status": "final",
        "subject": {
          "reference": "urn:uuid:154915b5-05df-4fe8-84bb-9928bd0cd863",
          "display": "Θεμιστοκλής Λιναρδάκη"
        },
        "effectiveDateTime": "2022-11-16T06:16:00Z",
        "specimen": {
          "reference": "urn:uuid:c5811d8d-c548-469e-ad12-7c59008c239a"
        }
      }
    },
    {
      "fullUrl": "urn:uuid:e9718c62-cf51-47f1-bdf8-11ca3a2fa66d",
      "resource": {
        "resourceType": "Observation",
        "id": "e9718c62-cf51-47f1-bdf8-11ca3a2fa66d",
        "meta": {
          "profile": [
            "http://hl7.eu/fhir/laboratory/StructureDefinition/Observation-resultslab-eu-lab"
          ]
        },
        "performer": [
          {
            "display": "The Central European Lab"
          }
        ],
        "category": [
          {
            "coding": [
              {
                "system": "http://terminology.hl7.org/CodeSystem/observation-category",
                "code": "laboratory"
              }
            ]
          }
        ],
        "code": {
          "coding": [
            {
              "code": "2514-8",
              "system": "http://loinc.org",
              "display": "Ketones [Presence] in Urine by Test strip"
            }
          ],
          "text": "Ketones [Presence] in Urine by Test strip"
        },
        "text": {
          "status": "generated",
          "div": "<div xmlns=\"http://www.w3.org/1999/xhtml\"><table class=\"hl7__eu__lab__report\"><tr><th>Test</th><th>16-Nov-2022</th><th>Reference&#xA0;Range</th><th>Unit</th></tr><tr><td>Ketones [Presence] in Urine by Test strip</td></tr></table></div>"
        },
        "status": "final",
        "subject": {
          "reference": "urn:uuid:154915b5-05df-4fe8-84bb-9928bd0cd863",
          "display": "Θεμιστοκλής Λιναρδάκη"
        },
        "effectiveDateTime": "2022-11-16T06:16:00Z",
        "specimen": {
          "reference": "urn:uuid:c5811d8d-c548-469e-ad12-7c59008c239a"
        }
      }
    },
    {
      "fullUrl": "urn:uuid:4e584ac3-909a-4590-9a4f-5e26ea04ce68",
      "resource": {
        "resourceType": "Observation",
        "id": "4e584ac3-909a-4590-9a4f-5e26ea04ce68",
        "meta": {
          "profile": [
            "http://hl7.eu/fhir/laboratory/StructureDefinition/Observation-resultslab-eu-lab"
          ]
        },
        "performer": [
          {
            "display": "The Central European Lab"
          }
        ],
        "category": [
          {
            "coding": [
              {
                "system": "http://terminology.hl7.org/CodeSystem/observation-category",
                "code": "laboratory"
              }
            ]
          }
        ],
        "code": {
          "coding": [
            {
              "code": "5811-5",
              "system": "http://loinc.org",
              "display": "Specific gravity of Urine by Test strip"
            }
          ],
          "text": "Specific gravity of Urine by Test strip"
        },
        "valueQuantity": {
          "system": "http://unitsofmeasure.org",
          "value": 1,
          "unit": "{nominal}",
          "code": "{nominal}"
        },
        "referenceRange": [
          {
            "low": {
              "value": 1.005,
              "code": "g/mL",
              "system": "http://unitsofmeasure.org"
            }
          },
          {
            "high": {
              "value": 1.03,
              "code": "g/mL",
              "system": "http://unitsofmeasure.org"
            }
          }
        ],
        "interpretation": [
          {
            "coding": [
              {
                "code": "L",
                "system": "http://terminology.hl7.org/CodeSystem/v3-ObservationInterpretation",
                "display": "Low"
              }
            ]
          }
        ],
        "text": {
          "status": "generated",
          "div": "<div xmlns=\"http://www.w3.org/1999/xhtml\"><table class=\"hl7__eu__lab__report\"><tr><th>Test</th><th>16-Nov-2022</th><th>Reference&#xA0;Range</th><th>Unit</th></tr><tr><td>Specific gravity of Urine by Test strip</td><td>1.0</td><td>1.005 - 1.03</td><td>L</td><td>{nominal}</td></tr></table></div>"
        },
        "status": "final",
        "subject": {
          "reference": "urn:uuid:154915b5-05df-4fe8-84bb-9928bd0cd863",
          "display": "Θεμιστοκλής Λιναρδάκη"
        },
        "effectiveDateTime": "2022-11-16T06:16:00Z",
        "specimen": {
          "reference": "urn:uuid:c5811d8d-c548-469e-ad12-7c59008c239a"
        }
      }
    },
    {
      "fullUrl": "urn:uuid:a776f814-cb41-496b-a9a7-4af4f91bfa2a",
      "resource": {
        "resourceType": "Observation",
        "id": "a776f814-cb41-496b-a9a7-4af4f91bfa2a",
        "meta": {
          "profile": [
            "http://hl7.eu/fhir/laboratory/StructureDefinition/Observation-resultslab-eu-lab"
          ]
        },
        "performer": [
          {
            "display": "The Central European Lab"
          }
        ],
        "category": [
          {
            "coding": [
              {
                "system": "http://terminology.hl7.org/CodeSystem/observation-category",
                "code": "laboratory"
              }
            ]
          }
        ],
        "code": {
          "coding": [
            {
              "code": "5803-2",
              "system": "http://loinc.org",
              "display": "pH of Urine by Test strip"
            }
          ],
          "text": "pH of Urine by Test strip"
        },
        "valueQuantity": {
          "system": "http://unitsofmeasure.org",
          "value": 5.3,
          "unit": "pH",
          "code": "pH"
        },
        "referenceRange": [
          {
            "low": {
              "value": 4.6,
              "code": "pH",
              "system": "http://unitsofmeasure.org"
            }
          },
          {
            "high": {
              "value": 7,
              "code": "pH",
              "system": "http://unitsofmeasure.org"
            }
          }
        ],
        "text": {
          "status": "generated",
          "div": "<div xmlns=\"http://www.w3.org/1999/xhtml\"><table class=\"hl7__eu__lab__report\"><tr><th>Test</th><th>16-Nov-2022</th><th>Reference&#xA0;Range</th><th>Unit</th></tr><tr><td>pH of Urine by Test strip</td><td>5.3</td><td>4.6 - 7</td><td></td><td>pH</td></tr></table></div>"
        },
        "status": "final",
        "subject": {
          "reference": "urn:uuid:154915b5-05df-4fe8-84bb-9928bd0cd863",
          "display": "Θεμιστοκλής Λιναρδάκη"
        },
        "effectiveDateTime": "2022-11-16T06:16:00Z",
        "specimen": {
          "reference": "urn:uuid:c5811d8d-c548-469e-ad12-7c59008c239a"
        }
      }
    },
    {
      "fullUrl": "urn:uuid:defda001-767d-4f91-ab3e-dd6fe8ea3158",
      "resource": {
        "resourceType": "Observation",
        "id": "defda001-767d-4f91-ab3e-dd6fe8ea3158",
        "meta": {
          "profile": [
            "http://hl7.eu/fhir/laboratory/StructureDefinition/Observation-resultslab-eu-lab"
          ]
        },
        "performer": [
          {
            "display": "The Central European Lab"
          }
        ],
        "category": [
          {
            "coding": [
              {
                "system": "http://terminology.hl7.org/CodeSystem/observation-category",
                "code": "laboratory"
              }
            ]
          }
        ],
        "code": {
          "coding": [
            {
              "code": "5804-0",
              "system": "http://loinc.org",
              "display": "Protein [Mass/volume] in Urine by Test strip"
            }
          ],
          "text": "Protein [Mass/volume] in Urine by Test strip"
        },
        "valueQuantity": {
          "system": "http://unitsofmeasure.org",
          "value": 384.5,
          "unit": "mg/dL",
          "code": "mg/dL"
        },
        "referenceRange": [
          {
            "low": {
              "value": 0,
              "code": "mg/dL",
              "system": "http://unitsofmeasure.org"
            }
          },
          {
            "high": {
              "value": 150,
              "code": "mg/dL",
              "system": "http://unitsofmeasure.org"
            }
          }
        ],
        "interpretation": [
          {
            "coding": [
              {
                "code": "H",
                "system": "http://terminology.hl7.org/CodeSystem/v3-ObservationInterpretation",
                "display": "High"
              }
            ]
          }
        ],
        "text": {
          "status": "generated",
          "div": "<div xmlns=\"http://www.w3.org/1999/xhtml\"><table class=\"hl7__eu__lab__report\"><tr><th>Test</th><th>16-Nov-2022</th><th>Reference&#xA0;Range</th><th>Unit</th></tr><tr><td>Protein [Mass/volume] in Urine by Test strip</td><td>384.5</td><td>0 - 150</td><td>H</td><td>mg/dL</td></tr></table></div>"
        },
        "status": "final",
        "subject": {
          "reference": "urn:uuid:154915b5-05df-4fe8-84bb-9928bd0cd863",
          "display": "Θεμιστοκλής Λιναρδάκη"
        },
        "effectiveDateTime": "2022-11-16T06:16:00Z",
        "specimen": {
          "reference": "urn:uuid:c5811d8d-c548-469e-ad12-7c59008c239a"
        }
      }
    },
    {
      "fullUrl": "urn:uuid:f3781df6-45ad-4a1a-9bc0-49b58a71f30b",
      "resource": {
        "resourceType": "Observation",
        "id": "f3781df6-45ad-4a1a-9bc0-49b58a71f30b",
        "meta": {
          "profile": [
            "http://hl7.eu/fhir/laboratory/StructureDefinition/Observation-resultslab-eu-lab"
          ]
        },
        "performer": [
          {
            "display": "The Central European Lab"
          }
        ],
        "category": [
          {
            "coding": [
              {
                "system": "http://terminology.hl7.org/CodeSystem/observation-category",
                "code": "laboratory"
              }
            ]
          }
        ],
        "code": {
          "coding": [
            {
              "code": "20454-5",
              "system": "http://loinc.org",
              "display": "Protein [Presence] in Urine by Test strip"
            }
          ],
          "text": "Protein [Presence] in Urine by Test strip"
        },
        "text": {
          "status": "generated",
          "div": "<div xmlns=\"http://www.w3.org/1999/xhtml\"><table class=\"hl7__eu__lab__report\"><tr><th>Test</th><th>16-Nov-2022</th><th>Reference&#xA0;Range</th><th>Unit</th></tr><tr><td>Protein [Presence] in Urine by Test strip</td></tr></table></div>"
        },
        "status": "final",
        "subject": {
          "reference": "urn:uuid:154915b5-05df-4fe8-84bb-9928bd0cd863",
          "display": "Θεμιστοκλής Λιναρδάκη"
        },
        "effectiveDateTime": "2022-11-16T06:16:00Z",
        "specimen": {
          "reference": "urn:uuid:c5811d8d-c548-469e-ad12-7c59008c239a"
        }
      }
    },
    {
      "fullUrl": "urn:uuid:65958c9c-7386-4cc4-a314-321e0ad38b4f",
      "resource": {
        "resourceType": "Observation",
        "id": "65958c9c-7386-4cc4-a314-321e0ad38b4f",
        "meta": {
          "profile": [
            "http://hl7.eu/fhir/laboratory/StructureDefinition/Observation-resultslab-eu-lab"
          ]
        },
        "performer": [
          {
            "display": "The Central European Lab"
          }
        ],
        "category": [
          {
            "coding": [
              {
                "system": "http://terminology.hl7.org/CodeSystem/observation-category",
                "code": "laboratory"
              }
            ]
          }
        ],
        "code": {
          "coding": [
            {
              "code": "5802-4",
              "system": "http://loinc.org",
              "display": "Nitrite [Presence] in Urine by Test strip"
            }
          ],
          "text": "Nitrite [Presence] in Urine by Test strip"
        },
        "text": {
          "status": "generated",
          "div": "<div xmlns=\"http://www.w3.org/1999/xhtml\"><table class=\"hl7__eu__lab__report\"><tr><th>Test</th><th>16-Nov-2022</th><th>Reference&#xA0;Range</th><th>Unit</th></tr><tr><td>Nitrite [Presence] in Urine by Test strip</td></tr></table></div>"
        },
        "status": "final",
        "subject": {
          "reference": "urn:uuid:154915b5-05df-4fe8-84bb-9928bd0cd863",
          "display": "Θεμιστοκλής Λιναρδάκη"
        },
        "effectiveDateTime": "2022-11-16T06:16:00Z",
        "specimen": {
          "reference": "urn:uuid:c5811d8d-c548-469e-ad12-7c59008c239a"
        }
      }
    },
    {
      "fullUrl": "urn:uuid:338d57d1-eca5-474e-b098-4ac9e1dc5ca3",
      "resource": {
        "resourceType": "Observation",
        "id": "338d57d1-eca5-474e-b098-4ac9e1dc5ca3",
        "meta": {
          "profile": [
            "http://hl7.eu/fhir/laboratory/StructureDefinition/Observation-resultslab-eu-lab"
          ]
        },
        "performer": [
          {
            "display": "The Central European Lab"
          }
        ],
        "category": [
          {
            "coding": [
              {
                "system": "http://terminology.hl7.org/CodeSystem/observation-category",
                "code": "laboratory"
              }
            ]
          }
        ],
        "code": {
          "coding": [
            {
              "code": "5794-3",
              "system": "http://loinc.org",
              "display": "Hemoglobin [Presence] in Urine by Test strip"
            }
          ],
          "text": "Hemoglobin [Presence] in Urine by Test strip"
        },
        "text": {
          "status": "generated",
          "div": "<div xmlns=\"http://www.w3.org/1999/xhtml\"><table class=\"hl7__eu__lab__report\"><tr><th>Test</th><th>16-Nov-2022</th><th>Reference&#xA0;Range</th><th>Unit</th></tr><tr><td>Hemoglobin [Presence] in Urine by Test strip</td></tr></table></div>"
        },
        "status": "final",
        "subject": {
          "reference": "urn:uuid:154915b5-05df-4fe8-84bb-9928bd0cd863",
          "display": "Θεμιστοκλής Λιναρδάκη"
        },
        "effectiveDateTime": "2022-11-16T06:16:00Z",
        "specimen": {
          "reference": "urn:uuid:c5811d8d-c548-469e-ad12-7c59008c239a"
        }
      }
    },
    {
      "fullUrl": "urn:uuid:bf0312d0-d690-4a64-b98f-ed4eea67802a",
      "resource": {
        "resourceType": "Observation",
        "id": "bf0312d0-d690-4a64-b98f-ed4eea67802a",
        "meta": {
          "profile": [
            "http://hl7.eu/fhir/laboratory/StructureDefinition/Observation-resultslab-eu-lab"
          ]
        },
        "performer": [
          {
            "display": "The Central European Lab"
          }
        ],
        "category": [
          {
            "coding": [
              {
                "system": "http://terminology.hl7.org/CodeSystem/observation-category",
                "code": "laboratory"
              }
            ]
          }
        ],
        "code": {
          "coding": [
            {
              "code": "5799-2",
              "system": "http://loinc.org",
              "display": "Leukocyte esterase [Presence] in Urine by Test strip"
            }
          ],
          "text": "Leukocyte esterase [Presence] in Urine by Test strip"
        },
        "text": {
          "status": "generated",
          "div": "<div xmlns=\"http://www.w3.org/1999/xhtml\"><table class=\"hl7__eu__lab__report\"><tr><th>Test</th><th>16-Nov-2022</th><th>Reference&#xA0;Range</th><th>Unit</th></tr><tr><td>Leukocyte esterase [Presence] in Urine by Test strip</td></tr></table></div>"
        },
        "status": "final",
        "subject": {
          "reference": "urn:uuid:154915b5-05df-4fe8-84bb-9928bd0cd863",
          "display": "Θεμιστοκλής Λιναρδάκη"
        },
        "effectiveDateTime": "2022-11-16T06:16:00Z",
        "specimen": {
          "reference": "urn:uuid:c5811d8d-c548-469e-ad12-7c59008c239a"
        }
      }
    },
    {
      "fullUrl": "urn:uuid:ce6122ce-0806-458a-a69a-5921441c1000",
      "resource": {
        "resourceType": "Observation",
        "id": "ce6122ce-0806-458a-a69a-5921441c1000",
        "meta": {
          "profile": [
            "http://hl7.eu/fhir/laboratory/StructureDefinition/Observation-resultslab-eu-lab"
          ]
        },
        "performer": [
          {
            "display": "The Central European Lab"
          }
        ],
        "category": [
          {
            "coding": [
              {
                "system": "http://terminology.hl7.org/CodeSystem/observation-category",
                "code": "laboratory"
              }
            ]
          }
        ],
        "code": {
          "coding": [
            {
              "code": "4548-4",
              "system": "http://loinc.org",
              "display": "Hemoglobin A1c/Hemoglobin.total in Blood"
            }
          ],
          "text": "Hemoglobin A1c/Hemoglobin.total in Blood"
        },
        "valueQuantity": {
          "system": "http://unitsofmeasure.org",
          "value": 2.9,
          "unit": "%",
          "code": "%"
        },
        "referenceRange": [
          {
            "low": {
              "value": 4.3,
              "code": "%",
              "system": "http://unitsofmeasure.org"
            }
          },
          {
            "high": {
              "value": 6.4,
              "code": "%",
              "system": "http://unitsofmeasure.org"
            }
          }
        ],
        "interpretation": [
          {
            "coding": [
              {
                "code": "L",
                "system": "http://terminology.hl7.org/CodeSystem/v3-ObservationInterpretation",
                "display": "Low"
              }
            ]
          }
        ],
        "text": {
          "status": "generated",
          "div": "<div xmlns=\"http://www.w3.org/1999/xhtml\"><table class=\"hl7__eu__lab__report\"><tr><th>Test</th><th>16-Nov-2022</th><th>Reference&#xA0;Range</th><th>Unit</th></tr><tr><td>Hemoglobin A1c/Hemoglobin.total in Blood</td><td>2.9</td><td>4.3 - 6.4</td><td>L</td><td>%</td></tr></table></div>"
        },
        "status": "final",
        "subject": {
          "reference": "urn:uuid:154915b5-05df-4fe8-84bb-9928bd0cd863",
          "display": "Θεμιστοκλής Λιναρδάκη"
        },
        "effectiveDateTime": "2022-11-16T06:16:00Z",
        "specimen": {
          "reference": "urn:uuid:b4852790-a070-48ec-9002-ef3a54983b34"
        }
      }
    },
    {
      "fullUrl": "urn:uuid:5c5d4219-8a6e-4a6c-97fb-436ea613e201",
      "resource": {
        "resourceType": "Observation",
        "id": "5c5d4219-8a6e-4a6c-97fb-436ea613e201",
        "meta": {
          "profile": [
            "http://hl7.eu/fhir/laboratory/StructureDefinition/Observation-resultslab-eu-lab"
          ]
        },
        "performer": [
          {
            "display": "The Central European Lab"
          }
        ],
        "category": [
          {
            "coding": [
              {
                "system": "http://terminology.hl7.org/CodeSystem/observation-category",
                "code": "laboratory"
              }
            ]
          }
        ],
        "code": {
          "coding": [
            {
              "code": "2339-0",
              "system": "http://loinc.org",
              "display": "Glucose [Mass/volume] in Blood"
            }
          ],
          "text": "Glucose [Mass/volume] in Blood"
        },
        "valueQuantity": {
          "system": "http://unitsofmeasure.org",
          "value": 75.6,
          "unit": "mg/dL",
          "code": "mg/dL"
        },
        "referenceRange": [
          {
            "low": {
              "value": 70,
              "code": "mg/dL",
              "system": "http://unitsofmeasure.org"
            }
          },
          {
            "high": {
              "value": 140,
              "code": "mg/dL",
              "system": "http://unitsofmeasure.org"
            }
          }
        ],
        "text": {
          "status": "generated",
          "div": "<div xmlns=\"http://www.w3.org/1999/xhtml\"><table class=\"hl7__eu__lab__report\"><tr><th>Test</th><th>16-Nov-2022</th><th>Reference&#xA0;Range</th><th>Unit</th></tr><tr><td>Glucose [Mass/volume] in Blood</td><td>75.6</td><td>70 - 140</td><td></td><td>mg/dL</td></tr></table></div>"
        },
        "status": "final",
        "subject": {
          "reference": "urn:uuid:154915b5-05df-4fe8-84bb-9928bd0cd863",
          "display": "Θεμιστοκλής Λιναρδάκη"
        },
        "effectiveDateTime": "2022-11-16T06:16:00Z",
        "specimen": {
          "reference": "urn:uuid:b4852790-a070-48ec-9002-ef3a54983b34"
        }
      }
    },
    {
      "fullUrl": "urn:uuid:3901a9bd-abc2-4f45-a41b-ed4c19fb8cb5",
      "resource": {
        "resourceType": "Observation",
        "id": "3901a9bd-abc2-4f45-a41b-ed4c19fb8cb5",
        "meta": {
          "profile": [
            "http://hl7.eu/fhir/laboratory/StructureDefinition/Observation-resultslab-eu-lab"
          ]
        },
        "performer": [
          {
            "display": "The Central European Lab"
          }
        ],
        "category": [
          {
            "coding": [
              {
                "system": "http://terminology.hl7.org/CodeSystem/observation-category",
                "code": "laboratory"
              }
            ]
          }
        ],
        "code": {
          "coding": [
            {
              "code": "6299-2",
              "system": "http://loinc.org",
              "display": "Urea nitrogen [Mass/volume] in Blood"
            }
          ],
          "text": "Urea nitrogen [Mass/volume] in Blood"
        },
        "valueQuantity": {
          "system": "http://unitsofmeasure.org",
          "value": 8.8,
          "unit": "mg/dL",
          "code": "mg/dL"
        },
        "referenceRange": [
          {
            "low": {
              "value": 7,
              "code": "mg/dL",
              "system": "http://unitsofmeasure.org"
            }
          },
          {
            "high": {
              "value": 20,
              "code": "mg/dL",
              "system": "http://unitsofmeasure.org"
            }
          }
        ],
        "text": {
          "status": "generated",
          "div": "<div xmlns=\"http://www.w3.org/1999/xhtml\"><table class=\"hl7__eu__lab__report\"><tr><th>Test</th><th>16-Nov-2022</th><th>Reference&#xA0;Range</th><th>Unit</th></tr><tr><td>Urea nitrogen [Mass/volume] in Blood</td><td>8.8</td><td>7 - 20</td><td></td><td>mg/dL</td></tr></table></div>"
        },
        "status": "final",
        "subject": {
          "reference": "urn:uuid:154915b5-05df-4fe8-84bb-9928bd0cd863",
          "display": "Θεμιστοκλής Λιναρδάκη"
        },
        "effectiveDateTime": "2022-11-16T06:16:00Z",
        "specimen": {
          "reference": "urn:uuid:b4852790-a070-48ec-9002-ef3a54983b34"
        }
      }
    },
    {
      "fullUrl": "urn:uuid:e22ff846-3b8b-40ec-836e-54a12e3d3836",
      "resource": {
        "resourceType": "Observation",
        "id": "e22ff846-3b8b-40ec-836e-54a12e3d3836",
        "meta": {
          "profile": [
            "http://hl7.eu/fhir/laboratory/StructureDefinition/Observation-resultslab-eu-lab"
          ]
        },
        "performer": [
          {
            "display": "The Central European Lab"
          }
        ],
        "category": [
          {
            "coding": [
              {
                "system": "http://terminology.hl7.org/CodeSystem/observation-category",
                "code": "laboratory"
              }
            ]
          }
        ],
        "code": {
          "coding": [
            {
              "code": "38483-4",
              "system": "http://loinc.org",
              "display": "Creatinine [Mass/volume] in Blood"
            }
          ],
          "text": "Creatinine [Mass/volume] in Blood"
        },
        "valueQuantity": {
          "system": "http://unitsofmeasure.org",
          "value": 8.1,
          "unit": "mg/dL",
          "code": "mg/dL"
        },
        "referenceRange": [
          {
            "low": {
              "value": 0.6,
              "code": "mg/dL",
              "system": "http://unitsofmeasure.org"
            }
          },
          {
            "high": {
              "value": 1.3,
              "code": "mg/dL",
              "system": "http://unitsofmeasure.org"
            }
          }
        ],
        "interpretation": [
          {
            "coding": [
              {
                "code": "H",
                "system": "http://terminology.hl7.org/CodeSystem/v3-ObservationInterpretation",
                "display": "High"
              }
            ]
          }
        ],
        "text": {
          "status": "generated",
          "div": "<div xmlns=\"http://www.w3.org/1999/xhtml\"><table class=\"hl7__eu__lab__report\"><tr><th>Test</th><th>16-Nov-2022</th><th>Reference&#xA0;Range</th><th>Unit</th></tr><tr><td>Creatinine [Mass/volume] in Blood</td><td>8.1</td><td>0.6 - 1.3</td><td>H</td><td>mg/dL</td></tr></table></div>"
        },
        "status": "final",
        "subject": {
          "reference": "urn:uuid:154915b5-05df-4fe8-84bb-9928bd0cd863",
          "display": "Θεμιστοκλής Λιναρδάκη"
        },
        "effectiveDateTime": "2022-11-16T06:16:00Z",
        "specimen": {
          "reference": "urn:uuid:b4852790-a070-48ec-9002-ef3a54983b34"
        }
      }
    },
    {
      "fullUrl": "urn:uuid:f07ba829-1b99-4c54-8483-c4b7f9c7015d",
      "resource": {
        "resourceType": "Observation",
        "id": "f07ba829-1b99-4c54-8483-c4b7f9c7015d",
        "meta": {
          "profile": [
            "http://hl7.eu/fhir/laboratory/StructureDefinition/Observation-resultslab-eu-lab"
          ]
        },
        "performer": [
          {
            "display": "The Central European Lab"
          }
        ],
        "category": [
          {
            "coding": [
              {
                "system": "http://terminology.hl7.org/CodeSystem/observation-category",
                "code": "laboratory"
              }
            ]
          }
        ],
        "code": {
          "coding": [
            {
              "code": "49765-1",
              "system": "http://loinc.org",
              "display": "Calcium [Mass/volume] in Blood"
            }
          ],
          "text": "Calcium [Mass/volume] in Blood"
        },
        "valueQuantity": {
          "system": "http://unitsofmeasure.org",
          "value": 9.9,
          "unit": "mg/dL",
          "code": "mg/dL"
        },
        "referenceRange": [
          {
            "low": {
              "value": 8.5,
              "code": "mg/dL",
              "system": "http://unitsofmeasure.org"
            }
          },
          {
            "high": {
              "value": 10.5,
              "code": "mg/dL",
              "system": "http://unitsofmeasure.org"
            }
          }
        ],
        "text": {
          "status": "generated",
          "div": "<div xmlns=\"http://www.w3.org/1999/xhtml\"><table class=\"hl7__eu__lab__report\"><tr><th>Test</th><th>16-Nov-2022</th><th>Reference&#xA0;Range</th><th>Unit</th></tr><tr><td>Calcium [Mass/volume] in Blood</td><td>9.9</td><td>8.5 - 10.5</td><td></td><td>mg/dL</td></tr></table></div>"
        },
        "status": "final",
        "subject": {
          "reference": "urn:uuid:154915b5-05df-4fe8-84bb-9928bd0cd863",
          "display": "Θεμιστοκλής Λιναρδάκη"
        },
        "effectiveDateTime": "2022-11-16T06:16:00Z",
        "specimen": {
          "reference": "urn:uuid:b4852790-a070-48ec-9002-ef3a54983b34"
        }
      }
    },
    {
      "fullUrl": "urn:uuid:cdbda857-5e1b-4bc5-a12c-0b233b5717d0",
      "resource": {
        "resourceType": "Observation",
        "id": "cdbda857-5e1b-4bc5-a12c-0b233b5717d0",
        "meta": {
          "profile": [
            "http://hl7.eu/fhir/laboratory/StructureDefinition/Observation-resultslab-eu-lab"
          ]
        },
        "performer": [
          {
            "display": "The Central European Lab"
          }
        ],
        "category": [
          {
            "coding": [
              {
                "system": "http://terminology.hl7.org/CodeSystem/observation-category",
                "code": "laboratory"
              }
            ]
          }
        ],
        "code": {
          "coding": [
            {
              "code": "2947-0",
              "system": "http://loinc.org",
              "display": "Sodium [Moles/volume] in Blood"
            }
          ],
          "text": "Sodium [Moles/volume] in Blood"
        },
        "valueQuantity": {
          "system": "http://unitsofmeasure.org",
          "value": 138.8,
          "unit": "mmol/L",
          "code": "mmol/L"
        },
        "referenceRange": [
          {
            "low": {
              "value": 135,
              "code": "mmol/L",
              "system": "http://unitsofmeasure.org"
            }
          },
          {
            "high": {
              "value": 145,
              "code": "mmol/L",
              "system": "http://unitsofmeasure.org"
            }
          }
        ],
        "text": {
          "status": "generated",
          "div": "<div xmlns=\"http://www.w3.org/1999/xhtml\"><table class=\"hl7__eu__lab__report\"><tr><th>Test</th><th>16-Nov-2022</th><th>Reference&#xA0;Range</th><th>Unit</th></tr><tr><td>Sodium [Moles/volume] in Blood</td><td>138.8</td><td>135 - 145</td><td></td><td>mmol/L</td></tr></table></div>"
        },
        "status": "final",
        "subject": {
          "reference": "urn:uuid:154915b5-05df-4fe8-84bb-9928bd0cd863",
          "display": "Θεμιστοκλής Λιναρδάκη"
        },
        "effectiveDateTime": "2022-11-16T06:16:00Z",
        "specimen": {
          "reference": "urn:uuid:b4852790-a070-48ec-9002-ef3a54983b34"
        }
      }
    },
    {
      "fullUrl": "urn:uuid:10ed4175-1fde-4abd-ad79-b22a49dd3f31",
      "resource": {
        "resourceType": "Observation",
        "id": "10ed4175-1fde-4abd-ad79-b22a49dd3f31",
        "meta": {
          "profile": [
            "http://hl7.eu/fhir/laboratory/StructureDefinition/Observation-resultslab-eu-lab"
          ]
        },
        "performer": [
          {
            "display": "The Central European Lab"
          }
        ],
        "category": [
          {
            "coding": [
              {
                "system": "http://terminology.hl7.org/CodeSystem/observation-category",
                "code": "laboratory"
              }
            ]
          }
        ],
        "code": {
          "coding": [
            {
              "code": "6298-4",
              "system": "http://loinc.org",
              "display": "Potassium [Moles/volume] in Blood"
            }
          ],
          "text": "Potassium [Moles/volume] in Blood"
        },
        "valueQuantity": {
          "system": "http://unitsofmeasure.org",
          "value": 4.7,
          "unit": "mmol/L",
          "code": "mmol/L"
        },
        "referenceRange": [
          {
            "low": {
              "value": 3.5,
              "code": "mmol/L",
              "system": "http://unitsofmeasure.org"
            }
          },
          {
            "high": {
              "value": 5.3,
              "code": "mmol/L",
              "system": "http://unitsofmeasure.org"
            }
          }
        ],
        "text": {
          "status": "generated",
          "div": "<div xmlns=\"http://www.w3.org/1999/xhtml\"><table class=\"hl7__eu__lab__report\"><tr><th>Test</th><th>16-Nov-2022</th><th>Reference&#xA0;Range</th><th>Unit</th></tr><tr><td>Potassium [Moles/volume] in Blood</td><td>4.7</td><td>3.5 - 5.3</td><td></td><td>mmol/L</td></tr></table></div>"
        },
        "status": "final",
        "subject": {
          "reference": "urn:uuid:154915b5-05df-4fe8-84bb-9928bd0cd863",
          "display": "Θεμιστοκλής Λιναρδάκη"
        },
        "effectiveDateTime": "2022-11-16T06:16:00Z",
        "specimen": {
          "reference": "urn:uuid:b4852790-a070-48ec-9002-ef3a54983b34"
        }
      }
    },
    {
      "fullUrl": "urn:uuid:dc0e4c56-0ed7-4013-9a12-a44173de52c4",
      "resource": {
        "resourceType": "Observation",
        "id": "dc0e4c56-0ed7-4013-9a12-a44173de52c4",
        "meta": {
          "profile": [
            "http://hl7.eu/fhir/laboratory/StructureDefinition/Observation-resultslab-eu-lab"
          ]
        },
        "performer": [
          {
            "display": "The Central European Lab"
          }
        ],
        "category": [
          {
            "coding": [
              {
                "system": "http://terminology.hl7.org/CodeSystem/observation-category",
                "code": "laboratory"
              }
            ]
          }
        ],
        "code": {
          "coding": [
            {
              "code": "2069-3",
              "system": "http://loinc.org",
              "display": "Chloride [Moles/volume] in Blood"
            }
          ],
          "text": "Chloride [Moles/volume] in Blood"
        },
        "valueQuantity": {
          "system": "http://unitsofmeasure.org",
          "value": 103.6,
          "unit": "mmol/L",
          "code": "mmol/L"
        },
        "referenceRange": [
          {
            "low": {
              "value": 98,
              "code": "mmol/L",
              "system": "http://unitsofmeasure.org"
            }
          },
          {
            "high": {
              "value": 110,
              "code": "mmol/L",
              "system": "http://unitsofmeasure.org"
            }
          }
        ],
        "text": {
          "status": "generated",
          "div": "<div xmlns=\"http://www.w3.org/1999/xhtml\"><table class=\"hl7__eu__lab__report\"><tr><th>Test</th><th>16-Nov-2022</th><th>Reference&#xA0;Range</th><th>Unit</th></tr><tr><td>Chloride [Moles/volume] in Blood</td><td>103.6</td><td>98 - 110</td><td></td><td>mmol/L</td></tr></table></div>"
        },
        "status": "final",
        "subject": {
          "reference": "urn:uuid:154915b5-05df-4fe8-84bb-9928bd0cd863",
          "display": "Θεμιστοκλής Λιναρδάκη"
        },
        "effectiveDateTime": "2022-11-16T06:16:00Z",
        "specimen": {
          "reference": "urn:uuid:b4852790-a070-48ec-9002-ef3a54983b34"
        }
      }
    },
    {
      "fullUrl": "urn:uuid:18d67574-61bc-45f5-92ce-7c2cea5fdd51",
      "resource": {
        "resourceType": "Observation",
        "id": "18d67574-61bc-45f5-92ce-7c2cea5fdd51",
        "meta": {
          "profile": [
            "http://hl7.eu/fhir/laboratory/StructureDefinition/Observation-resultslab-eu-lab"
          ]
        },
        "performer": [
          {
            "display": "The Central European Lab"
          }
        ],
        "category": [
          {
            "coding": [
              {
                "system": "http://terminology.hl7.org/CodeSystem/observation-category",
                "code": "laboratory"
              }
            ]
          }
        ],
        "code": {
          "coding": [
            {
              "code": "20565-8",
              "system": "http://loinc.org",
              "display": "Carbon dioxide, total [Moles/volume] in Blood"
            }
          ],
          "text": "Carbon dioxide, total [Moles/volume] in Blood"
        },
        "valueQuantity": {
          "system": "http://unitsofmeasure.org",
          "value": 20.4,
          "unit": "mmol/L",
          "code": "mmol/L"
        },
        "referenceRange": [
          {
            "low": {
              "value": 22,
              "code": "mmol/L",
              "system": "http://unitsofmeasure.org"
            }
          },
          {
            "high": {
              "value": 29,
              "code": "mmol/L",
              "system": "http://unitsofmeasure.org"
            }
          }
        ],
        "interpretation": [
          {
            "coding": [
              {
                "code": "L",
                "system": "http://terminology.hl7.org/CodeSystem/v3-ObservationInterpretation",
                "display": "Low"
              }
            ]
          }
        ],
        "text": {
          "status": "generated",
          "div": "<div xmlns=\"http://www.w3.org/1999/xhtml\"><table class=\"hl7__eu__lab__report\"><tr><th>Test</th><th>16-Nov-2022</th><th>Reference&#xA0;Range</th><th>Unit</th></tr><tr><td>Carbon dioxide, total [Moles/volume] in Blood</td><td>20.4</td><td>22 - 29</td><td>L</td><td>mmol/L</td></tr></table></div>"
        },
        "status": "final",
        "subject": {
          "reference": "urn:uuid:154915b5-05df-4fe8-84bb-9928bd0cd863",
          "display": "Θεμιστοκλής Λιναρδάκη"
        },
        "effectiveDateTime": "2022-11-16T06:16:00Z",
        "specimen": {
          "reference": "urn:uuid:b4852790-a070-48ec-9002-ef3a54983b34"
        }
      }
    },
    {
      "fullUrl": "urn:uuid:ace885f9-c3ba-4cb5-a68c-fe37d0511ab0",
      "resource": {
        "resourceType": "Device",
        "id": "ace885f9-c3ba-4cb5-a68c-fe37d0511ab0",
        "deviceName": [
          {
            "name": "SYNDERAI Synthetic Generator",
            "type": "manufacturer-name"
          }
        ],
        "version": [
          {
            "value": "5.0"
          }
        ],
        "text": {
          "status": "generated",
          "div": "<div xmlns=\"http://www.w3.org/1999/xhtml\">SYNDERAI Synthetic Generator v5.0</div>"
        },
        "status": "active\"",
        "distinctIdentifier": "synderai-generator-50",
        "manufacturer": "SYNDERAI Project"
      }
    },
    {
      "fullUrl": "urn:uuid:8ff7b5de-8928-4ef7-a7d2-5753fe0cdab2",
      "resource": {
        "resourceType": "Provenance",
        "id": "8ff7b5de-8928-4ef7-a7d2-5753fe0cdab2",
        "target": [
          {
            "reference": "Patient/154915b5-05df-4fe8-84bb-9928bd0cd863"
          },
          {
            "reference": "Bundle/f2dea13d-5382-4a2b-9447-fd86c98cb608"
          },
          {
            "reference": "Composition/3d2d1e97-0a89-4fc6-aa63-d520d1260913"
          },
          {
            "reference": "PractitionerRole/496cc2bd-053e-4fa8-8b0b-a78412e7e301"
          },
          {
            "reference": "Practitioner/8407a3a6-64d7-468e-881c-b21b24f152d3"
          },
          {
            "reference": "PractitionerRole/1868bc2c-177d-431b-a99b-e24342c19f67"
          },
          {
            "reference": "Organization/a6ba3d2c-de67-4adf-8999-6818afebc5a8"
          }
        ],
        "activity": {
          "text": "Synthetic Example Data Generation"
        },
        "policy": [
          "https://synderai.net/synderai-synthetic-data-policy"
        ],
        "agent": [
          {
            "type": {
              "text": "author"
            },
            "who": {
              "reference": "Device/ace885f9-c3ba-4cb5-a68c-fe37d0511ab0"
            }
          }
        ],
        "reason": [
          {
            "text": "Interoperability Testing and Training (non-clinical use)"
          }
        ],
        "text": {
          "status": "generated",
          "div": "<div xmlns=\"http://www.w3.org/1999/xhtml\">Provenance for SYNDERAI Synthetic Example Data Resource</div>"
        },
        "recorded": "2022-11-16T07:16:00Z"
      }
    },
    {
      "fullUrl": "urn:uuid:496cc2bd-053e-4fa8-8b0b-a78412e7e301",
      "resource": {
        "resourceType": "PractitionerRole",
        "id": "496cc2bd-053e-4fa8-8b0b-a78412e7e301",
        "meta": {
          "profile": [
            "http://hl7.eu/fhir/base/StructureDefinition/practitionerRole-eu"
          ]
        },
        "text": {
          "status": "generated",
          "div": "<div xmlns=\"http://www.w3.org/1999/xhtml\">Laboratory Role Id: 496cc2bd-053e-4fa8-8b0b-a78412e7e301</div>"
        },
        "practitioner": {
          "reference": "urn:uuid:8407a3a6-64d7-468e-881c-b21b24f152d3"
        }
      }
    },
    {
      "fullUrl": "urn:uuid:8407a3a6-64d7-468e-881c-b21b24f152d3",
      "resource": {
        "resourceType": "Practitioner",
        "id": "8407a3a6-64d7-468e-881c-b21b24f152d3",
        "meta": {
          "profile": [
            "http://hl7.eu/fhir/base/StructureDefinition/practitioner-eu"
          ]
        },
        "identifier": [
          {
            "assigner": {
              "display": "HL7 Europe"
            },
            "system": "urn:oid:2.16.840.1.113883.2.51.999",
            "value": "febefec7-90a1-4f36-b72d-15bd62c40a3f"
          }
        ],
        "name": [
          {
            "prefix": [
              "dr"
            ],
            "given": [
              "Ex"
            ],
            "family": "Ample"
          }
        ],
        "address": [
          {
            "line": [
              "Laboratoire Central Européenne",
              "Boulevard du Jardin Botanique 32"
            ],
            "postalCode": "1000",
            "city": "Brussels",
            "country": "Belgium"
          }
        ],
        "text": {
          "status": "generated",
          "div": "<div xmlns=\"http://www.w3.org/1999/xhtml\">Laboratory: Laboratoire Central Européenne, 1000 Brussels, Belgium</div>"
        }
      }
    }
  ],
  "type": "document",
  "timestamp": "2022-11-16T07:16:00Z"
}
