{
  "resourceType": "Bundle",
  "id": "070ed205-6687-4661-9e14-3d23b77a3991",
  "meta": {
    "profile": [
      "http://hl7.eu/fhir/laboratory/StructureDefinition/Bundle-eu-lab"
    ]
  },
  "identifier": {
    "assigner": {
      "display": "HL7 Europe"
    },
    "system": "urn:oid:2.16.840.1.113883.2.51.999",
    "value": "f3d388bc-af76-4f69-b0b0-97889a485458"
  },
  "entry": [
    {
      "fullUrl": "urn:uuid:6b24ab4c-2526-4c18-b782-cc85eebaa9f9",
      "resource": {
        "resourceType": "Composition",
        "id": "6b24ab4c-2526-4c18-b782-cc85eebaa9f9",
        "meta": {
          "profile": [
            "http://hl7.eu/fhir/laboratory/StructureDefinition/Composition-eu-lab"
          ]
        },
        "identifier": {
          "assigner": {
            "display": "HL7 Europe"
          },
          "system": "urn:oid:2.16.840.1.113883.2.51.999",
          "value": "777e5629-3c94-40c1-8d39-fcb7a150845b"
        },
        "author": [
          {
            "reference": "urn:uuid:fdadf90b-a731-4d35-83c0-a5138a031fd8"
          }
        ],
        "category": [
          {
            "coding": [
              {
                "code": "26436-6",
                "system": "http://loinc.org",
                "display": "Laboratory studies (set)"
              }
            ]
          }
        ],
        "type": {
          "coding": [
            {
              "code": "11502-2",
              "system": "http://loinc.org",
              "display": "Laboratory report"
            }
          ],
          "text": "Laboratory Report"
        },
        "section": [
          {
            "code": {
              "coding": [
                {
                  "code": "26436-6",
                  "system": "http://loinc.org",
                  "display": "Laboratory studies (set)"
                }
              ],
              "text": "Laboratory studies"
            },
            "section": [
              {
                "code": {
                  "coding": [
                    {
                      "code": "$18719-5",
                      "system": "http://loinc.org",
                      "display": "Chemistry studies (set)"
                    }
                  ],
                  "text": "Chemistry"
                },
                "entry": [
                  {
                    "reference": "urn:uuid:348c45fa-a4c7-46a1-9842-bb2aab48f944"
                  },
                  {
                    "reference": "urn:uuid:25d5004e-08c7-45eb-91c1-62a68eb3bdea"
                  },
                  {
                    "reference": "urn:uuid:1f4eae1a-9e14-4a9e-878e-6572684f9d4a"
                  },
                  {
                    "reference": "urn:uuid:2ab007a7-0883-45eb-8176-5a3329def545"
                  },
                  {
                    "reference": "urn:uuid:763b38c8-ef7f-4f0c-b245-ccfae232844d"
                  },
                  {
                    "reference": "urn:uuid:6f7f9e70-1339-4b1f-8ae6-96758e751035"
                  },
                  {
                    "reference": "urn:uuid:bb0c0ed8-9c64-4124-b53b-3e564b62baf6"
                  },
                  {
                    "reference": "urn:uuid:57493196-e3b7-4187-9f24-7ebff51f61af"
                  },
                  {
                    "reference": "urn:uuid:bd31f06b-a5b7-47d0-9a89-1ee3013e9c30"
                  },
                  {
                    "reference": "urn:uuid:efefd380-b7c9-4733-a460-1264e7e5069a"
                  },
                  {
                    "reference": "urn:uuid:4d1e614f-2fbb-41ed-b518-d6170acecc3d"
                  },
                  {
                    "reference": "urn:uuid:bd04f3ad-3524-46d1-903d-404d83d64a12"
                  },
                  {
                    "reference": "urn:uuid:de1d24f8-4d31-4ebc-9ca5-decb04f28546"
                  },
                  {
                    "reference": "urn:uuid:0c953efc-849d-4bf8-b557-8f14508a3464"
                  }
                ],
                "text": {
                  "status": "generated",
                  "div": "<div xmlns=\"http://www.w3.org/1999/xhtml\"><h3>Chemistry</h3><table class=\"hl7__eu__lab__report\"><thead><tr><th>Test</th><th>05-APR-2022</th><th>Reference&#xA0;Range</th><th>Unit</th></tr></thead><tbody><tr><td>Hemoglobin A1c/Hemoglobin.total in Blood</td><td><strong>7.0 H</strong></td><td>4.6 - 6</td><td>%</td></tr><tr><td>Glucose [Mass/volume] in Blood</td><td><strong>124.0 H</strong></td><td>70 - 99</td><td>mg/dL</td></tr><tr><td>Urea nitrogen [Mass/volume] in Blood</td><td>19.1</td><td>7 - 50</td><td>mg/dL</td></tr><tr><td>Creatinine [Mass/volume] in Blood</td><td>1.1</td><td>0.9 - 1.3</td><td>mg/dL</td></tr><tr><td>Calcium [Mass/volume] in Blood</td><td>8.6</td><td>8.5 - 10.5</td><td>mg/dL</td></tr><tr><td>Sodium [Moles/volume] in Blood</td><td>139.8</td><td>135 - 145</td><td>mmol/L</td></tr><tr><td>Potassium [Moles/volume] in Blood</td><td>4.9</td><td>3.5 - 5.1</td><td>mmol/L</td></tr><tr><td>Chloride [Moles/volume] in Blood</td><td>104.9</td><td>98 - 114</td><td>mmol/L</td></tr><tr><td>Carbon dioxide, total [Moles/volume] in Blood</td><td>25.2</td><td>22 - 32</td><td>mmol/L</td></tr><tr><td>Cholesterol [Mass/volume] in Serum or Plasma</td><td><strong>209.0 H</strong></td><td>125 - 200</td><td>mg/dL</td></tr><tr><td>Triglyceride [Mass/volume] in Serum or Plasma</td><td><strong>195.1 H</strong></td><td>0 - 150</td><td>mg/dL</td></tr><tr><td>Cholesterol in LDL [Mass/volume] in Serum or Plasma by Direct assay</td><td>123.3</td><td>0 - 130</td><td>mg/dL</td></tr><tr><td>Cholesterol in HDL [Mass/volume] in Serum or Plasma</td><td>46.7</td><td>40 - 60</td><td>mg/dL</td></tr><tr><td>Microalbumin/Creatinine [Mass Ratio] in Urine</td><td>4.4</td><td>0 - 30</td><td>mg/g</td></tr></tbody></table></div>"
                },
                "title": "Chemistry"
              }
            ],
            "title": "Laboratory Report"
          },
          {
            "text": {
              "status": "generated",
              "div": "<div xmlns=\"http://www.w3.org/1999/xhtml\"><h3>Annotation</h3><table class=\"hl7__eu__lab__report\"><tr><th>Conclusion and Recommendations based on this report and previous findings known to us</th></tr><tr><td>The results indicate poor glycemic control (elevated HbA1c and fasting glucose), and dyslipidemia (high total cholesterol and triglycerides). Renal function, electrolytes, and microalbumin/creatinine ratio are within normal limits. Recommend clinical follow-up for diabetes and lipid management to reduce cardiovascular risk.</td></tr></table></div>"
            },
            "code": {
              "coding": [
                {
                  "system": "http://loinc.org",
                  "code": "48767-8",
                  "display": "Annotation comment"
                }
              ]
            },
            "title": "Annotation comment"
          }
        ],
        "status": "final",
        "subject": {
          "reference": "urn:uuid:b2bb91a9-b589-4d19-b17f-3cde79783c84",
          "display": "Roy Harrison"
        },
        "date": "2022-04-05T04:49:43Z",
        "title": "Laboratory Report",
        "confidentiality": "N"
      }
    },
    {
      "fullUrl": "urn:uuid:32ba5183-2d46-4030-96f6-45f08a4d6914",
      "resource": {
        "resourceType": "DiagnosticReport",
        "id": "32ba5183-2d46-4030-96f6-45f08a4d6914",
        "meta": {
          "profile": [
            "http://hl7.eu/fhir/laboratory/StructureDefinition/DiagnosticReport-eu-lab"
          ]
        },
        "identifier": [
          {
            "assigner": {
              "display": "HL7 Europe"
            },
            "system": "urn:oid:2.16.840.1.113883.2.51.999",
            "value": "43532d55-8111-43eb-b79d-6ebd03705106"
          }
        ],
        "extension": [
          {
            "url": "http://hl7.org/fhir/5.0/StructureDefinition/extension-DiagnosticReport.composition",
            "valueReference": {
              "reference": "urn:uuid:777e5629-3c94-40c1-8d39-fcb7a150845b"
            }
          }
        ],
        "category": [
          {
            "coding": [
              {
                "code": "26436-6",
                "system": "http://loinc.org",
                "display": "Laboratory studies (set)"
              }
            ]
          }
        ],
        "specimen": [
          {
            "reference": "urn:uuid:113a9336-73c7-4217-95f7-8b6a8fa57c98"
          },
          {
            "reference": "urn:uuid:a1f44187-ddf5-4287-bf5f-b70a0b087b5d"
          },
          {
            "reference": "urn:uuid:1d00b4b2-6722-483b-a57d-f141bfe12f60"
          }
        ],
        "result": [
          {
            "reference": "urn:uuid:348c45fa-a4c7-46a1-9842-bb2aab48f944"
          },
          {
            "reference": "urn:uuid:25d5004e-08c7-45eb-91c1-62a68eb3bdea"
          },
          {
            "reference": "urn:uuid:1f4eae1a-9e14-4a9e-878e-6572684f9d4a"
          },
          {
            "reference": "urn:uuid:2ab007a7-0883-45eb-8176-5a3329def545"
          },
          {
            "reference": "urn:uuid:763b38c8-ef7f-4f0c-b245-ccfae232844d"
          },
          {
            "reference": "urn:uuid:6f7f9e70-1339-4b1f-8ae6-96758e751035"
          },
          {
            "reference": "urn:uuid:bb0c0ed8-9c64-4124-b53b-3e564b62baf6"
          },
          {
            "reference": "urn:uuid:57493196-e3b7-4187-9f24-7ebff51f61af"
          },
          {
            "reference": "urn:uuid:bd31f06b-a5b7-47d0-9a89-1ee3013e9c30"
          },
          {
            "reference": "urn:uuid:efefd380-b7c9-4733-a460-1264e7e5069a"
          },
          {
            "reference": "urn:uuid:4d1e614f-2fbb-41ed-b518-d6170acecc3d"
          },
          {
            "reference": "urn:uuid:bd04f3ad-3524-46d1-903d-404d83d64a12"
          },
          {
            "reference": "urn:uuid:de1d24f8-4d31-4ebc-9ca5-decb04f28546"
          },
          {
            "reference": "urn:uuid:0c953efc-849d-4bf8-b557-8f14508a3464"
          }
        ],
        "status": "registered",
        "code": {
          "coding": [
            {
              "code": "11502-2",
              "system": "http://loinc.org",
              "display": "Laboratory report"
            }
          ]
        },
        "subject": {
          "reference": "urn:uuid:b2bb91a9-b589-4d19-b17f-3cde79783c84",
          "display": "Roy Harrison"
        }
      }
    },
    {
      "fullUrl": "urn:uuid:b2bb91a9-b589-4d19-b17f-3cde79783c84",
      "resource": {
        "resourceType": "Patient",
        "id": "b2bb91a9-b589-4d19-b17f-3cde79783c84",
        "meta": {
          "security": [
            {
              "system": "http://terminology.hl7.org/CodeSystem/v3-ActReason",
              "code": "HTEST"
            },
            {
              "system": "http://terminology.hl7.org/CodeSystem/v3-ActReason",
              "code": "TRAIN"
            }
          ],
          "tag": [
            {
              "system": "https://synderai.net/fhir/CodeSystem/tags",
              "code": "synthetic",
              "display": "SYNDERAI Synthetic data"
            }
          ],
          "profile": [
            "http://hl7.eu/fhir/base/StructureDefinition/patient-eu-core"
          ]
        },
        "identifier": [
          {
            "type": {
              "coding": [
                {
                  "code": "PT",
                  "system": "http://terminology.hl7.org/CodeSystem/v2-0203"
                }
              ]
            },
            "system": "http://ec.europa.eu/identifier/eci",
            "value": "7093-553922-4"
          },
          {
            "type": {
              "coding": [
                {
                  "code": "MR",
                  "system": "http://terminology.hl7.org/CodeSystem/v2-0203"
                }
              ]
            },
            "system": "http://local.setting.eu/identifier",
            "value": "42633ccd-9ef5-6a00-b7c9-353a9679bf2b"
          }
        ],
        "name": [
          {
            "family": "Harrison"
          },
          {
            "given": [
              "Roy"
            ]
          },
          {
            "text": "Roy Harrison"
          }
        ],
        "address": [
          {
            "line": [
              "Flat 4",
              "Dyer route"
            ],
            "use": "home",
            "type": "physical",
            "postalCode": "BA1",
            "city": "Baileyville",
            "country": "United Kingdom"
          }
        ],
        "telecom": [
          {
            "system": "phone",
            "value": "01632960974"
          }
        ],
        "extension": [
          {
            "url": "http://hl7.org/fhir/StructureDefinition/patient-nationality",
            "valueCodeableConcept": {
              "coding": [
                {
                  "code": "GB",
                  "system": "http://hl7.org/fhir/ValueSet/country"
                }
              ]
            }
          }
        ],
        "text": {
          "status": "generated",
          "div": "<div xmlns=\"http://www.w3.org/1999/xhtml\"><table class=\"hl7__ips\"><tr><td>Roy Harrison</td><td>male</td><td>02-Oct-1969</td></tr></table></div>"
        },
        "gender": "male",
        "birthDate": "1969-10-02"
      }
    },
    {
      "fullUrl": "urn:uuid:4f9b67f7-69f5-4b54-a46a-4ec11eeae373",
      "resource": {
        "resourceType": "ServiceRequest",
        "id": "4f9b67f7-69f5-4b54-a46a-4ec11eeae373",
        "meta": {
          "profile": [
            "http://hl7.eu/fhir/laboratory/StructureDefinition/ServiceRequest-eu-lab"
          ]
        },
        "identifier": [
          {
            "system": "http://example.org",
            "value": "cfb44f24-88ab-457c-89fa-bc7f5e84858e"
          }
        ],
        "specimen": [
          {
            "reference": "urn:uuid:113a9336-73c7-4217-95f7-8b6a8fa57c98"
          },
          {
            "reference": "urn:uuid:a1f44187-ddf5-4287-bf5f-b70a0b087b5d"
          },
          {
            "reference": "urn:uuid:1d00b4b2-6722-483b-a57d-f141bfe12f60"
          }
        ],
        "reasonCode": [
          {
            "coding": [
              {
                "code": "302870006",
                "system": "http://snomed.info/sct",
                "display": "Hypertriglyceridemia"
              }
            ]
          },
          {
            "coding": [
              {
                "code": "44054006",
                "system": "http://snomed.info/sct",
                "display": "Type 2 diabetes mellitus"
              }
            ]
          },
          {
            "coding": [
              {
                "code": "59621000",
                "system": "http://snomed.info/sct",
                "display": "Essential hypertension"
              }
            ]
          },
          {
            "coding": [
              {
                "code": "237602007",
                "system": "http://snomed.info/sct",
                "display": "Metabolic syndrome X"
              }
            ]
          },
          {
            "coding": [
              {
                "code": "271737000",
                "system": "http://snomed.info/sct",
                "display": "Anemia"
              }
            ]
          },
          {
            "coding": [
              {
                "code": "90560007",
                "system": "http://snomed.info/sct",
                "display": "Gout"
              }
            ]
          }
        ],
        "status": "active",
        "intent": "order",
        "code": {
          "coding": [
            {
              "code": "108252007",
              "system": "http://snomed.info/sct",
              "display": "Laboratory procedure"
            }
          ]
        },
        "subject": {
          "reference": "urn:uuid:b2bb91a9-b589-4d19-b17f-3cde79783c84",
          "display": "Roy Harrison"
        },
        "requester": {
          "reference": "urn:uuid:219ec436-351d-46e4-9a74-1e1ec7a9289f"
        }
      }
    },
    {
      "fullUrl": "urn:uuid:219ec436-351d-46e4-9a74-1e1ec7a9289f",
      "resource": {
        "resourceType": "PractitionerRole",
        "id": "219ec436-351d-46e4-9a74-1e1ec7a9289f",
        "meta": {
          "profile": [
            "http://hl7.eu/fhir/base/StructureDefinition/practitionerRole-eu"
          ]
        },
        "text": {
          "status": "generated",
          "div": "<div xmlns=\"http://www.w3.org/1999/xhtml\">Provider Role Id: 219ec436-351d-46e4-9a74-1e1ec7a9289f</div>"
        },
        "organization": {
          "reference": "urn:uuid:f54c4542-83f5-4055-a932-3b060dca72b3"
        }
      }
    },
    {
      "fullUrl": "urn:uuid:f54c4542-83f5-4055-a932-3b060dca72b3",
      "resource": {
        "resourceType": "Organization",
        "id": "f54c4542-83f5-4055-a932-3b060dca72b3",
        "meta": {
          "profile": [
            "http://hl7.eu/fhir/base/StructureDefinition/organization-eu"
          ]
        },
        "identifier": [
          {
            "assigner": {
              "display": "HL7 Europe"
            },
            "system": "urn:oid:2.16.840.1.113883.2.51.999",
            "value": "71b62fc0-41ae-4a0b-bc15-d15700c55734"
          }
        ],
        "address": [
          {
            "city": "London",
            "postalCode": "SE1 7",
            "country": "United Kingdom"
          }
        ],
        "text": {
          "status": "generated",
          "div": "<div xmlns=\"http://www.w3.org/1999/xhtml\">Provider Organization: Evelina Children&#039;s Hospital</div>"
        },
        "name": "Evelina Children&#039;s Hospital"
      }
    },
    {
      "fullUrl": "urn:uuid:113a9336-73c7-4217-95f7-8b6a8fa57c98",
      "resource": {
        "resourceType": "Specimen",
        "id": "113a9336-73c7-4217-95f7-8b6a8fa57c98",
        "meta": {
          "profile": [
            "http://hl7.eu/fhir/laboratory/StructureDefinition/Specimen-eu-lab"
          ]
        },
        "collection": {
          "collectedDateTime": "2022-04-05"
        },
        "text": {
          "status": "generated",
          "div": "<div xmlns=\"http://www.w3.org/1999/xhtml\"><table class=\"hl7__eu__lab__report\"><tr><th>Specimen</th><th>Collection Date</th></tr><tr><td>Whole blood specimen (specimen)</td><td><span class=\"nb\">05-Apr-2022</span></td></tr></table></div>"
        },
        "type": {
          "coding": [
            {
              "code": "258580003",
              "system": "http://snomed.info/sct",
              "display": "Whole blood specimen (specimen)"
            }
          ]
        }
      }
    },
    {
      "fullUrl": "urn:uuid:a1f44187-ddf5-4287-bf5f-b70a0b087b5d",
      "resource": {
        "resourceType": "Specimen",
        "id": "a1f44187-ddf5-4287-bf5f-b70a0b087b5d",
        "meta": {
          "profile": [
            "http://hl7.eu/fhir/laboratory/StructureDefinition/Specimen-eu-lab"
          ]
        },
        "collection": {
          "collectedDateTime": "2022-04-05"
        },
        "text": {
          "status": "generated",
          "div": "<div xmlns=\"http://www.w3.org/1999/xhtml\"><table class=\"hl7__eu__lab__report\"><tr><th>Specimen</th><th>Collection Date</th></tr><tr><td>Acellular blood (serum or plasma) specimen</td><td><span class=\"nb\">05-Apr-2022</span></td></tr></table></div>"
        },
        "type": {
          "coding": [
            {
              "code": "122592007",
              "system": "http://snomed.info/sct",
              "display": "Acellular blood (serum or plasma) specimen"
            }
          ]
        }
      }
    },
    {
      "fullUrl": "urn:uuid:1d00b4b2-6722-483b-a57d-f141bfe12f60",
      "resource": {
        "resourceType": "Specimen",
        "id": "1d00b4b2-6722-483b-a57d-f141bfe12f60",
        "meta": {
          "profile": [
            "http://hl7.eu/fhir/laboratory/StructureDefinition/Specimen-eu-lab"
          ]
        },
        "collection": {
          "collectedDateTime": "2022-04-05"
        },
        "text": {
          "status": "generated",
          "div": "<div xmlns=\"http://www.w3.org/1999/xhtml\"><table class=\"hl7__eu__lab__report\"><tr><th>Specimen</th><th>Collection Date</th></tr><tr><td>Urine specimen</td><td><span class=\"nb\">05-Apr-2022</span></td></tr></table></div>"
        },
        "type": {
          "coding": [
            {
              "code": "122575003",
              "system": "http://snomed.info/sct",
              "display": "Urine specimen"
            }
          ]
        }
      }
    },
    {
      "fullUrl": "urn:uuid:348c45fa-a4c7-46a1-9842-bb2aab48f944",
      "resource": {
        "resourceType": "Observation",
        "id": "348c45fa-a4c7-46a1-9842-bb2aab48f944",
        "meta": {
          "profile": [
            "http://hl7.eu/fhir/laboratory/StructureDefinition/Observation-resultslab-eu-lab"
          ]
        },
        "performer": [
          {
            "display": "The Central European Lab"
          }
        ],
        "category": [
          {
            "coding": [
              {
                "system": "http://terminology.hl7.org/CodeSystem/observation-category",
                "code": "laboratory"
              }
            ]
          }
        ],
        "code": {
          "coding": [
            {
              "code": "4548-4",
              "system": "http://loinc.org",
              "display": "Hemoglobin A1c/Hemoglobin.total in Blood"
            }
          ],
          "text": "Hemoglobin A1c/Hemoglobin.total in Blood"
        },
        "valueQuantity": {
          "system": "http://unitsofmeasure.org",
          "value": 7,
          "unit": "%",
          "code": "%"
        },
        "referenceRange": [
          {
            "low": {
              "value": 4.6,
              "code": "%",
              "system": "http://unitsofmeasure.org"
            }
          },
          {
            "high": {
              "value": 6,
              "code": "%",
              "system": "http://unitsofmeasure.org"
            }
          }
        ],
        "interpretation": [
          {
            "coding": [
              {
                "code": "H",
                "system": "http://terminology.hl7.org/CodeSystem/v3-ObservationInterpretation",
                "display": "High"
              }
            ]
          }
        ],
        "text": {
          "status": "generated",
          "div": "<div xmlns=\"http://www.w3.org/1999/xhtml\"><table class=\"hl7__eu__lab__report\"><tr><th>Test</th><th>05-Apr-2022</th><th>Reference&#xA0;Range</th><th>Unit</th></tr><tr><td>Hemoglobin A1c/Hemoglobin.total in Blood</td><td>7.0</td><td>4.6 - 6</td><td>H</td><td>%</td></tr></table></div>"
        },
        "status": "final",
        "subject": {
          "reference": "urn:uuid:b2bb91a9-b589-4d19-b17f-3cde79783c84",
          "display": "Roy Harrison"
        },
        "effectiveDateTime": "2022-04-05T02:49:43Z",
        "specimen": {
          "reference": "urn:uuid:113a9336-73c7-4217-95f7-8b6a8fa57c98"
        }
      }
    },
    {
      "fullUrl": "urn:uuid:25d5004e-08c7-45eb-91c1-62a68eb3bdea",
      "resource": {
        "resourceType": "Observation",
        "id": "25d5004e-08c7-45eb-91c1-62a68eb3bdea",
        "meta": {
          "profile": [
            "http://hl7.eu/fhir/laboratory/StructureDefinition/Observation-resultslab-eu-lab"
          ]
        },
        "performer": [
          {
            "display": "The Central European Lab"
          }
        ],
        "category": [
          {
            "coding": [
              {
                "system": "http://terminology.hl7.org/CodeSystem/observation-category",
                "code": "laboratory"
              }
            ]
          }
        ],
        "code": {
          "coding": [
            {
              "code": "2339-0",
              "system": "http://loinc.org",
              "display": "Glucose [Mass/volume] in Blood"
            }
          ],
          "text": "Glucose [Mass/volume] in Blood"
        },
        "valueQuantity": {
          "system": "http://unitsofmeasure.org",
          "value": 124,
          "unit": "mg/dL",
          "code": "mg/dL"
        },
        "referenceRange": [
          {
            "low": {
              "value": 70,
              "code": "mg/dL",
              "system": "http://unitsofmeasure.org"
            }
          },
          {
            "high": {
              "value": 99,
              "code": "mg/dL",
              "system": "http://unitsofmeasure.org"
            }
          }
        ],
        "interpretation": [
          {
            "coding": [
              {
                "code": "H",
                "system": "http://terminology.hl7.org/CodeSystem/v3-ObservationInterpretation",
                "display": "High"
              }
            ]
          }
        ],
        "text": {
          "status": "generated",
          "div": "<div xmlns=\"http://www.w3.org/1999/xhtml\"><table class=\"hl7__eu__lab__report\"><tr><th>Test</th><th>05-Apr-2022</th><th>Reference&#xA0;Range</th><th>Unit</th></tr><tr><td>Glucose [Mass/volume] in Blood</td><td>124.0</td><td>70 - 99</td><td>H</td><td>mg/dL</td></tr></table></div>"
        },
        "status": "final",
        "subject": {
          "reference": "urn:uuid:b2bb91a9-b589-4d19-b17f-3cde79783c84",
          "display": "Roy Harrison"
        },
        "effectiveDateTime": "2022-04-05T02:49:43Z",
        "specimen": {
          "reference": "urn:uuid:113a9336-73c7-4217-95f7-8b6a8fa57c98"
        }
      }
    },
    {
      "fullUrl": "urn:uuid:1f4eae1a-9e14-4a9e-878e-6572684f9d4a",
      "resource": {
        "resourceType": "Observation",
        "id": "1f4eae1a-9e14-4a9e-878e-6572684f9d4a",
        "meta": {
          "profile": [
            "http://hl7.eu/fhir/laboratory/StructureDefinition/Observation-resultslab-eu-lab"
          ]
        },
        "performer": [
          {
            "display": "The Central European Lab"
          }
        ],
        "category": [
          {
            "coding": [
              {
                "system": "http://terminology.hl7.org/CodeSystem/observation-category",
                "code": "laboratory"
              }
            ]
          }
        ],
        "code": {
          "coding": [
            {
              "code": "6299-2",
              "system": "http://loinc.org",
              "display": "Urea nitrogen [Mass/volume] in Blood"
            }
          ],
          "text": "Urea nitrogen [Mass/volume] in Blood"
        },
        "valueQuantity": {
          "system": "http://unitsofmeasure.org",
          "value": 19.1,
          "unit": "mg/dL",
          "code": "mg/dL"
        },
        "referenceRange": [
          {
            "low": {
              "value": 7,
              "code": "mg/dL",
              "system": "http://unitsofmeasure.org"
            }
          },
          {
            "high": {
              "value": 50,
              "code": "mg/dL",
              "system": "http://unitsofmeasure.org"
            }
          }
        ],
        "text": {
          "status": "generated",
          "div": "<div xmlns=\"http://www.w3.org/1999/xhtml\"><table class=\"hl7__eu__lab__report\"><tr><th>Test</th><th>05-Apr-2022</th><th>Reference&#xA0;Range</th><th>Unit</th></tr><tr><td>Urea nitrogen [Mass/volume] in Blood</td><td>19.1</td><td>7 - 50</td><td></td><td>mg/dL</td></tr></table></div>"
        },
        "status": "final",
        "subject": {
          "reference": "urn:uuid:b2bb91a9-b589-4d19-b17f-3cde79783c84",
          "display": "Roy Harrison"
        },
        "effectiveDateTime": "2022-04-05T02:49:43Z",
        "specimen": {
          "reference": "urn:uuid:113a9336-73c7-4217-95f7-8b6a8fa57c98"
        }
      }
    },
    {
      "fullUrl": "urn:uuid:2ab007a7-0883-45eb-8176-5a3329def545",
      "resource": {
        "resourceType": "Observation",
        "id": "2ab007a7-0883-45eb-8176-5a3329def545",
        "meta": {
          "profile": [
            "http://hl7.eu/fhir/laboratory/StructureDefinition/Observation-resultslab-eu-lab"
          ]
        },
        "performer": [
          {
            "display": "The Central European Lab"
          }
        ],
        "category": [
          {
            "coding": [
              {
                "system": "http://terminology.hl7.org/CodeSystem/observation-category",
                "code": "laboratory"
              }
            ]
          }
        ],
        "code": {
          "coding": [
            {
              "code": "38483-4",
              "system": "http://loinc.org",
              "display": "Creatinine [Mass/volume] in Blood"
            }
          ],
          "text": "Creatinine [Mass/volume] in Blood"
        },
        "valueQuantity": {
          "system": "http://unitsofmeasure.org",
          "value": 1.1,
          "unit": "mg/dL",
          "code": "mg/dL"
        },
        "referenceRange": [
          {
            "low": {
              "value": 0.9,
              "code": "mg/dL",
              "system": "http://unitsofmeasure.org"
            }
          },
          {
            "high": {
              "value": 1.3,
              "code": "mg/dL",
              "system": "http://unitsofmeasure.org"
            }
          }
        ],
        "text": {
          "status": "generated",
          "div": "<div xmlns=\"http://www.w3.org/1999/xhtml\"><table class=\"hl7__eu__lab__report\"><tr><th>Test</th><th>05-Apr-2022</th><th>Reference&#xA0;Range</th><th>Unit</th></tr><tr><td>Creatinine [Mass/volume] in Blood</td><td>1.1</td><td>0.9 - 1.3</td><td></td><td>mg/dL</td></tr></table></div>"
        },
        "status": "final",
        "subject": {
          "reference": "urn:uuid:b2bb91a9-b589-4d19-b17f-3cde79783c84",
          "display": "Roy Harrison"
        },
        "effectiveDateTime": "2022-04-05T02:49:43Z",
        "specimen": {
          "reference": "urn:uuid:113a9336-73c7-4217-95f7-8b6a8fa57c98"
        }
      }
    },
    {
      "fullUrl": "urn:uuid:763b38c8-ef7f-4f0c-b245-ccfae232844d",
      "resource": {
        "resourceType": "Observation",
        "id": "763b38c8-ef7f-4f0c-b245-ccfae232844d",
        "meta": {
          "profile": [
            "http://hl7.eu/fhir/laboratory/StructureDefinition/Observation-resultslab-eu-lab"
          ]
        },
        "performer": [
          {
            "display": "The Central European Lab"
          }
        ],
        "category": [
          {
            "coding": [
              {
                "system": "http://terminology.hl7.org/CodeSystem/observation-category",
                "code": "laboratory"
              }
            ]
          }
        ],
        "code": {
          "coding": [
            {
              "code": "49765-1",
              "system": "http://loinc.org",
              "display": "Calcium [Mass/volume] in Blood"
            }
          ],
          "text": "Calcium [Mass/volume] in Blood"
        },
        "valueQuantity": {
          "system": "http://unitsofmeasure.org",
          "value": 8.6,
          "unit": "mg/dL",
          "code": "mg/dL"
        },
        "referenceRange": [
          {
            "low": {
              "value": 8.5,
              "code": "mg/dL",
              "system": "http://unitsofmeasure.org"
            }
          },
          {
            "high": {
              "value": 10.5,
              "code": "mg/dL",
              "system": "http://unitsofmeasure.org"
            }
          }
        ],
        "text": {
          "status": "generated",
          "div": "<div xmlns=\"http://www.w3.org/1999/xhtml\"><table class=\"hl7__eu__lab__report\"><tr><th>Test</th><th>05-Apr-2022</th><th>Reference&#xA0;Range</th><th>Unit</th></tr><tr><td>Calcium [Mass/volume] in Blood</td><td>8.6</td><td>8.5 - 10.5</td><td></td><td>mg/dL</td></tr></table></div>"
        },
        "status": "final",
        "subject": {
          "reference": "urn:uuid:b2bb91a9-b589-4d19-b17f-3cde79783c84",
          "display": "Roy Harrison"
        },
        "effectiveDateTime": "2022-04-05T02:49:43Z",
        "specimen": {
          "reference": "urn:uuid:113a9336-73c7-4217-95f7-8b6a8fa57c98"
        }
      }
    },
    {
      "fullUrl": "urn:uuid:6f7f9e70-1339-4b1f-8ae6-96758e751035",
      "resource": {
        "resourceType": "Observation",
        "id": "6f7f9e70-1339-4b1f-8ae6-96758e751035",
        "meta": {
          "profile": [
            "http://hl7.eu/fhir/laboratory/StructureDefinition/Observation-resultslab-eu-lab"
          ]
        },
        "performer": [
          {
            "display": "The Central European Lab"
          }
        ],
        "category": [
          {
            "coding": [
              {
                "system": "http://terminology.hl7.org/CodeSystem/observation-category",
                "code": "laboratory"
              }
            ]
          }
        ],
        "code": {
          "coding": [
            {
              "code": "2947-0",
              "system": "http://loinc.org",
              "display": "Sodium [Moles/volume] in Blood"
            }
          ],
          "text": "Sodium [Moles/volume] in Blood"
        },
        "valueQuantity": {
          "system": "http://unitsofmeasure.org",
          "value": 139.8,
          "unit": "mmol/L",
          "code": "mmol/L"
        },
        "referenceRange": [
          {
            "low": {
              "value": 135,
              "code": "mmol/L",
              "system": "http://unitsofmeasure.org"
            }
          },
          {
            "high": {
              "value": 145,
              "code": "mmol/L",
              "system": "http://unitsofmeasure.org"
            }
          }
        ],
        "text": {
          "status": "generated",
          "div": "<div xmlns=\"http://www.w3.org/1999/xhtml\"><table class=\"hl7__eu__lab__report\"><tr><th>Test</th><th>05-Apr-2022</th><th>Reference&#xA0;Range</th><th>Unit</th></tr><tr><td>Sodium [Moles/volume] in Blood</td><td>139.8</td><td>135 - 145</td><td></td><td>mmol/L</td></tr></table></div>"
        },
        "status": "final",
        "subject": {
          "reference": "urn:uuid:b2bb91a9-b589-4d19-b17f-3cde79783c84",
          "display": "Roy Harrison"
        },
        "effectiveDateTime": "2022-04-05T02:49:43Z",
        "specimen": {
          "reference": "urn:uuid:113a9336-73c7-4217-95f7-8b6a8fa57c98"
        }
      }
    },
    {
      "fullUrl": "urn:uuid:bb0c0ed8-9c64-4124-b53b-3e564b62baf6",
      "resource": {
        "resourceType": "Observation",
        "id": "bb0c0ed8-9c64-4124-b53b-3e564b62baf6",
        "meta": {
          "profile": [
            "http://hl7.eu/fhir/laboratory/StructureDefinition/Observation-resultslab-eu-lab"
          ]
        },
        "performer": [
          {
            "display": "The Central European Lab"
          }
        ],
        "category": [
          {
            "coding": [
              {
                "system": "http://terminology.hl7.org/CodeSystem/observation-category",
                "code": "laboratory"
              }
            ]
          }
        ],
        "code": {
          "coding": [
            {
              "code": "6298-4",
              "system": "http://loinc.org",
              "display": "Potassium [Moles/volume] in Blood"
            }
          ],
          "text": "Potassium [Moles/volume] in Blood"
        },
        "valueQuantity": {
          "system": "http://unitsofmeasure.org",
          "value": 4.9,
          "unit": "mmol/L",
          "code": "mmol/L"
        },
        "referenceRange": [
          {
            "low": {
              "value": 3.5,
              "code": "mmol/L",
              "system": "http://unitsofmeasure.org"
            }
          },
          {
            "high": {
              "value": 5.1,
              "code": "mmol/L",
              "system": "http://unitsofmeasure.org"
            }
          }
        ],
        "text": {
          "status": "generated",
          "div": "<div xmlns=\"http://www.w3.org/1999/xhtml\"><table class=\"hl7__eu__lab__report\"><tr><th>Test</th><th>05-Apr-2022</th><th>Reference&#xA0;Range</th><th>Unit</th></tr><tr><td>Potassium [Moles/volume] in Blood</td><td>4.9</td><td>3.5 - 5.1</td><td></td><td>mmol/L</td></tr></table></div>"
        },
        "status": "final",
        "subject": {
          "reference": "urn:uuid:b2bb91a9-b589-4d19-b17f-3cde79783c84",
          "display": "Roy Harrison"
        },
        "effectiveDateTime": "2022-04-05T02:49:43Z",
        "specimen": {
          "reference": "urn:uuid:113a9336-73c7-4217-95f7-8b6a8fa57c98"
        }
      }
    },
    {
      "fullUrl": "urn:uuid:57493196-e3b7-4187-9f24-7ebff51f61af",
      "resource": {
        "resourceType": "Observation",
        "id": "57493196-e3b7-4187-9f24-7ebff51f61af",
        "meta": {
          "profile": [
            "http://hl7.eu/fhir/laboratory/StructureDefinition/Observation-resultslab-eu-lab"
          ]
        },
        "performer": [
          {
            "display": "The Central European Lab"
          }
        ],
        "category": [
          {
            "coding": [
              {
                "system": "http://terminology.hl7.org/CodeSystem/observation-category",
                "code": "laboratory"
              }
            ]
          }
        ],
        "code": {
          "coding": [
            {
              "code": "2069-3",
              "system": "http://loinc.org",
              "display": "Chloride [Moles/volume] in Blood"
            }
          ],
          "text": "Chloride [Moles/volume] in Blood"
        },
        "valueQuantity": {
          "system": "http://unitsofmeasure.org",
          "value": 104.9,
          "unit": "mmol/L",
          "code": "mmol/L"
        },
        "referenceRange": [
          {
            "low": {
              "value": 98,
              "code": "mmol/L",
              "system": "http://unitsofmeasure.org"
            }
          },
          {
            "high": {
              "value": 114,
              "code": "mmol/L",
              "system": "http://unitsofmeasure.org"
            }
          }
        ],
        "text": {
          "status": "generated",
          "div": "<div xmlns=\"http://www.w3.org/1999/xhtml\"><table class=\"hl7__eu__lab__report\"><tr><th>Test</th><th>05-Apr-2022</th><th>Reference&#xA0;Range</th><th>Unit</th></tr><tr><td>Chloride [Moles/volume] in Blood</td><td>104.9</td><td>98 - 114</td><td></td><td>mmol/L</td></tr></table></div>"
        },
        "status": "final",
        "subject": {
          "reference": "urn:uuid:b2bb91a9-b589-4d19-b17f-3cde79783c84",
          "display": "Roy Harrison"
        },
        "effectiveDateTime": "2022-04-05T02:49:43Z",
        "specimen": {
          "reference": "urn:uuid:113a9336-73c7-4217-95f7-8b6a8fa57c98"
        }
      }
    },
    {
      "fullUrl": "urn:uuid:bd31f06b-a5b7-47d0-9a89-1ee3013e9c30",
      "resource": {
        "resourceType": "Observation",
        "id": "bd31f06b-a5b7-47d0-9a89-1ee3013e9c30",
        "meta": {
          "profile": [
            "http://hl7.eu/fhir/laboratory/StructureDefinition/Observation-resultslab-eu-lab"
          ]
        },
        "performer": [
          {
            "display": "The Central European Lab"
          }
        ],
        "category": [
          {
            "coding": [
              {
                "system": "http://terminology.hl7.org/CodeSystem/observation-category",
                "code": "laboratory"
              }
            ]
          }
        ],
        "code": {
          "coding": [
            {
              "code": "20565-8",
              "system": "http://loinc.org",
              "display": "Carbon dioxide, total [Moles/volume] in Blood"
            }
          ],
          "text": "Carbon dioxide, total [Moles/volume] in Blood"
        },
        "valueQuantity": {
          "system": "http://unitsofmeasure.org",
          "value": 25.2,
          "unit": "mmol/L",
          "code": "mmol/L"
        },
        "referenceRange": [
          {
            "low": {
              "value": 22,
              "code": "mmol/L",
              "system": "http://unitsofmeasure.org"
            }
          },
          {
            "high": {
              "value": 32,
              "code": "mmol/L",
              "system": "http://unitsofmeasure.org"
            }
          }
        ],
        "text": {
          "status": "generated",
          "div": "<div xmlns=\"http://www.w3.org/1999/xhtml\"><table class=\"hl7__eu__lab__report\"><tr><th>Test</th><th>05-Apr-2022</th><th>Reference&#xA0;Range</th><th>Unit</th></tr><tr><td>Carbon dioxide, total [Moles/volume] in Blood</td><td>25.2</td><td>22 - 32</td><td></td><td>mmol/L</td></tr></table></div>"
        },
        "status": "final",
        "subject": {
          "reference": "urn:uuid:b2bb91a9-b589-4d19-b17f-3cde79783c84",
          "display": "Roy Harrison"
        },
        "effectiveDateTime": "2022-04-05T02:49:43Z",
        "specimen": {
          "reference": "urn:uuid:113a9336-73c7-4217-95f7-8b6a8fa57c98"
        }
      }
    },
    {
      "fullUrl": "urn:uuid:efefd380-b7c9-4733-a460-1264e7e5069a",
      "resource": {
        "resourceType": "Observation",
        "id": "efefd380-b7c9-4733-a460-1264e7e5069a",
        "meta": {
          "profile": [
            "http://hl7.eu/fhir/laboratory/StructureDefinition/Observation-resultslab-eu-lab"
          ]
        },
        "performer": [
          {
            "display": "The Central European Lab"
          }
        ],
        "category": [
          {
            "coding": [
              {
                "system": "http://terminology.hl7.org/CodeSystem/observation-category",
                "code": "laboratory"
              }
            ]
          }
        ],
        "code": {
          "coding": [
            {
              "code": "2093-3",
              "system": "http://loinc.org",
              "display": "Cholesterol [Mass/volume] in Serum or Plasma"
            }
          ],
          "text": "Cholesterol [Mass/volume] in Serum or Plasma"
        },
        "valueQuantity": {
          "system": "http://unitsofmeasure.org",
          "value": 209,
          "unit": "mg/dL",
          "code": "mg/dL"
        },
        "referenceRange": [
          {
            "low": {
              "value": 125,
              "code": "mg/dL",
              "system": "http://unitsofmeasure.org"
            }
          },
          {
            "high": {
              "value": 200,
              "code": "mg/dL",
              "system": "http://unitsofmeasure.org"
            }
          }
        ],
        "interpretation": [
          {
            "coding": [
              {
                "code": "H",
                "system": "http://terminology.hl7.org/CodeSystem/v3-ObservationInterpretation",
                "display": "High"
              }
            ]
          }
        ],
        "text": {
          "status": "generated",
          "div": "<div xmlns=\"http://www.w3.org/1999/xhtml\"><table class=\"hl7__eu__lab__report\"><tr><th>Test</th><th>05-Apr-2022</th><th>Reference&#xA0;Range</th><th>Unit</th></tr><tr><td>Cholesterol [Mass/volume] in Serum or Plasma</td><td>209.0</td><td>125 - 200</td><td>H</td><td>mg/dL</td></tr></table></div>"
        },
        "status": "final",
        "subject": {
          "reference": "urn:uuid:b2bb91a9-b589-4d19-b17f-3cde79783c84",
          "display": "Roy Harrison"
        },
        "effectiveDateTime": "2022-04-05T02:49:43Z",
        "specimen": {
          "reference": "urn:uuid:a1f44187-ddf5-4287-bf5f-b70a0b087b5d"
        }
      }
    },
    {
      "fullUrl": "urn:uuid:4d1e614f-2fbb-41ed-b518-d6170acecc3d",
      "resource": {
        "resourceType": "Observation",
        "id": "4d1e614f-2fbb-41ed-b518-d6170acecc3d",
        "meta": {
          "profile": [
            "http://hl7.eu/fhir/laboratory/StructureDefinition/Observation-resultslab-eu-lab"
          ]
        },
        "performer": [
          {
            "display": "The Central European Lab"
          }
        ],
        "category": [
          {
            "coding": [
              {
                "system": "http://terminology.hl7.org/CodeSystem/observation-category",
                "code": "laboratory"
              }
            ]
          }
        ],
        "code": {
          "coding": [
            {
              "code": "2571-8",
              "system": "http://loinc.org",
              "display": "Triglyceride [Mass/volume] in Serum or Plasma"
            }
          ],
          "text": "Triglyceride [Mass/volume] in Serum or Plasma"
        },
        "valueQuantity": {
          "system": "http://unitsofmeasure.org",
          "value": 195.1,
          "unit": "mg/dL",
          "code": "mg/dL"
        },
        "referenceRange": [
          {
            "low": {
              "value": 0,
              "code": "mg/dL",
              "system": "http://unitsofmeasure.org"
            }
          },
          {
            "high": {
              "value": 150,
              "code": "mg/dL",
              "system": "http://unitsofmeasure.org"
            }
          }
        ],
        "interpretation": [
          {
            "coding": [
              {
                "code": "H",
                "system": "http://terminology.hl7.org/CodeSystem/v3-ObservationInterpretation",
                "display": "High"
              }
            ]
          }
        ],
        "text": {
          "status": "generated",
          "div": "<div xmlns=\"http://www.w3.org/1999/xhtml\"><table class=\"hl7__eu__lab__report\"><tr><th>Test</th><th>05-Apr-2022</th><th>Reference&#xA0;Range</th><th>Unit</th></tr><tr><td>Triglyceride [Mass/volume] in Serum or Plasma</td><td>195.1</td><td>0 - 150</td><td>H</td><td>mg/dL</td></tr></table></div>"
        },
        "status": "final",
        "subject": {
          "reference": "urn:uuid:b2bb91a9-b589-4d19-b17f-3cde79783c84",
          "display": "Roy Harrison"
        },
        "effectiveDateTime": "2022-04-05T02:49:43Z",
        "specimen": {
          "reference": "urn:uuid:a1f44187-ddf5-4287-bf5f-b70a0b087b5d"
        }
      }
    },
    {
      "fullUrl": "urn:uuid:bd04f3ad-3524-46d1-903d-404d83d64a12",
      "resource": {
        "resourceType": "Observation",
        "id": "bd04f3ad-3524-46d1-903d-404d83d64a12",
        "meta": {
          "profile": [
            "http://hl7.eu/fhir/laboratory/StructureDefinition/Observation-resultslab-eu-lab"
          ]
        },
        "performer": [
          {
            "display": "The Central European Lab"
          }
        ],
        "category": [
          {
            "coding": [
              {
                "system": "http://terminology.hl7.org/CodeSystem/observation-category",
                "code": "laboratory"
              }
            ]
          }
        ],
        "code": {
          "coding": [
            {
              "code": "18262-6",
              "system": "http://loinc.org",
              "display": "Cholesterol in LDL [Mass/volume] in Serum or Plasma by Direct assay"
            }
          ],
          "text": "Cholesterol in LDL [Mass/volume] in Serum or Plasma by Direct assay"
        },
        "valueQuantity": {
          "system": "http://unitsofmeasure.org",
          "value": 123.3,
          "unit": "mg/dL",
          "code": "mg/dL"
        },
        "referenceRange": [
          {
            "low": {
              "value": 0,
              "code": "mg/dL",
              "system": "http://unitsofmeasure.org"
            }
          },
          {
            "high": {
              "value": 130,
              "code": "mg/dL",
              "system": "http://unitsofmeasure.org"
            }
          }
        ],
        "text": {
          "status": "generated",
          "div": "<div xmlns=\"http://www.w3.org/1999/xhtml\"><table class=\"hl7__eu__lab__report\"><tr><th>Test</th><th>05-Apr-2022</th><th>Reference&#xA0;Range</th><th>Unit</th></tr><tr><td>Cholesterol in LDL [Mass/volume] in Serum or Plasma by Direct assay</td><td>123.3</td><td>0 - 130</td><td></td><td>mg/dL</td></tr></table></div>"
        },
        "status": "final",
        "subject": {
          "reference": "urn:uuid:b2bb91a9-b589-4d19-b17f-3cde79783c84",
          "display": "Roy Harrison"
        },
        "effectiveDateTime": "2022-04-05T02:49:43Z",
        "specimen": {
          "reference": "urn:uuid:a1f44187-ddf5-4287-bf5f-b70a0b087b5d"
        }
      }
    },
    {
      "fullUrl": "urn:uuid:de1d24f8-4d31-4ebc-9ca5-decb04f28546",
      "resource": {
        "resourceType": "Observation",
        "id": "de1d24f8-4d31-4ebc-9ca5-decb04f28546",
        "meta": {
          "profile": [
            "http://hl7.eu/fhir/laboratory/StructureDefinition/Observation-resultslab-eu-lab"
          ]
        },
        "performer": [
          {
            "display": "The Central European Lab"
          }
        ],
        "category": [
          {
            "coding": [
              {
                "system": "http://terminology.hl7.org/CodeSystem/observation-category",
                "code": "laboratory"
              }
            ]
          }
        ],
        "code": {
          "coding": [
            {
              "code": "2085-9",
              "system": "http://loinc.org",
              "display": "Cholesterol in HDL [Mass/volume] in Serum or Plasma"
            }
          ],
          "text": "Cholesterol in HDL [Mass/volume] in Serum or Plasma"
        },
        "valueQuantity": {
          "system": "http://unitsofmeasure.org",
          "value": 46.7,
          "unit": "mg/dL",
          "code": "mg/dL"
        },
        "referenceRange": [
          {
            "low": {
              "value": 40,
              "code": "mg/dL",
              "system": "http://unitsofmeasure.org"
            }
          },
          {
            "high": {
              "value": 60,
              "code": "mg/dL",
              "system": "http://unitsofmeasure.org"
            }
          }
        ],
        "text": {
          "status": "generated",
          "div": "<div xmlns=\"http://www.w3.org/1999/xhtml\"><table class=\"hl7__eu__lab__report\"><tr><th>Test</th><th>05-Apr-2022</th><th>Reference&#xA0;Range</th><th>Unit</th></tr><tr><td>Cholesterol in HDL [Mass/volume] in Serum or Plasma</td><td>46.7</td><td>40 - 60</td><td></td><td>mg/dL</td></tr></table></div>"
        },
        "status": "final",
        "subject": {
          "reference": "urn:uuid:b2bb91a9-b589-4d19-b17f-3cde79783c84",
          "display": "Roy Harrison"
        },
        "effectiveDateTime": "2022-04-05T02:49:43Z",
        "specimen": {
          "reference": "urn:uuid:a1f44187-ddf5-4287-bf5f-b70a0b087b5d"
        }
      }
    },
    {
      "fullUrl": "urn:uuid:0c953efc-849d-4bf8-b557-8f14508a3464",
      "resource": {
        "resourceType": "Observation",
        "id": "0c953efc-849d-4bf8-b557-8f14508a3464",
        "meta": {
          "profile": [
            "http://hl7.eu/fhir/laboratory/StructureDefinition/Observation-resultslab-eu-lab"
          ]
        },
        "performer": [
          {
            "display": "The Central European Lab"
          }
        ],
        "category": [
          {
            "coding": [
              {
                "system": "http://terminology.hl7.org/CodeSystem/observation-category",
                "code": "laboratory"
              }
            ]
          }
        ],
        "code": {
          "coding": [
            {
              "code": "14959-1",
              "system": "http://loinc.org",
              "display": "Microalbumin/Creatinine [Mass Ratio] in Urine"
            }
          ],
          "text": "Microalbumin/Creatinine [Mass Ratio] in Urine"
        },
        "valueQuantity": {
          "system": "http://unitsofmeasure.org",
          "value": 4.4,
          "unit": "mg/g",
          "code": "mg/g"
        },
        "referenceRange": [
          {
            "low": {
              "value": 0,
              "code": "mg/g",
              "system": "http://unitsofmeasure.org"
            }
          },
          {
            "high": {
              "value": 30,
              "code": "mg/g",
              "system": "http://unitsofmeasure.org"
            }
          }
        ],
        "text": {
          "status": "generated",
          "div": "<div xmlns=\"http://www.w3.org/1999/xhtml\"><table class=\"hl7__eu__lab__report\"><tr><th>Test</th><th>05-Apr-2022</th><th>Reference&#xA0;Range</th><th>Unit</th></tr><tr><td>Microalbumin/Creatinine [Mass Ratio] in Urine</td><td>4.4</td><td>0 - 30</td><td></td><td>mg/g</td></tr></table></div>"
        },
        "status": "final",
        "subject": {
          "reference": "urn:uuid:b2bb91a9-b589-4d19-b17f-3cde79783c84",
          "display": "Roy Harrison"
        },
        "effectiveDateTime": "2022-04-05T02:49:43Z",
        "specimen": {
          "reference": "urn:uuid:1d00b4b2-6722-483b-a57d-f141bfe12f60"
        }
      }
    },
    {
      "fullUrl": "urn:uuid:3d620332-5785-42ff-9eeb-f582e5fa37d6",
      "resource": {
        "resourceType": "Device",
        "id": "3d620332-5785-42ff-9eeb-f582e5fa37d6",
        "deviceName": [
          {
            "name": "SYNDERAI Synthetic Generator",
            "type": "manufacturer-name"
          }
        ],
        "version": [
          {
            "value": "5.0"
          }
        ],
        "text": {
          "status": "generated",
          "div": "<div xmlns=\"http://www.w3.org/1999/xhtml\">SYNDERAI Synthetic Generator v5.0</div>"
        },
        "status": "active\"",
        "distinctIdentifier": "synderai-generator-50",
        "manufacturer": "SYNDERAI Project"
      }
    },
    {
      "fullUrl": "urn:uuid:bdd9215a-d7d2-4950-a1e5-74cd00cdb5d7",
      "resource": {
        "resourceType": "Provenance",
        "id": "bdd9215a-d7d2-4950-a1e5-74cd00cdb5d7",
        "target": [
          {
            "reference": "Patient/b2bb91a9-b589-4d19-b17f-3cde79783c84"
          },
          {
            "reference": "Bundle/070ed205-6687-4661-9e14-3d23b77a3991"
          },
          {
            "reference": "Composition/6b24ab4c-2526-4c18-b782-cc85eebaa9f9"
          },
          {
            "reference": "PractitionerRole/fdadf90b-a731-4d35-83c0-a5138a031fd8"
          },
          {
            "reference": "Practitioner/4b9058dd-1409-4b46-8efa-2875f3b11533"
          },
          {
            "reference": "PractitionerRole/219ec436-351d-46e4-9a74-1e1ec7a9289f"
          },
          {
            "reference": "Organization/f54c4542-83f5-4055-a932-3b060dca72b3"
          }
        ],
        "activity": {
          "text": "Synthetic Example Data Generation"
        },
        "policy": [
          "https://synderai.net/synderai-synthetic-data-policy"
        ],
        "agent": [
          {
            "type": {
              "text": "author"
            },
            "who": {
              "reference": "Device/3d620332-5785-42ff-9eeb-f582e5fa37d6"
            }
          }
        ],
        "reason": [
          {
            "text": "Interoperability Testing and Training (non-clinical use)"
          }
        ],
        "text": {
          "status": "generated",
          "div": "<div xmlns=\"http://www.w3.org/1999/xhtml\">Provenance for SYNDERAI Synthetic Example Data Resource</div>"
        },
        "recorded": "2022-04-05T04:49:43Z"
      }
    },
    {
      "fullUrl": "urn:uuid:fdadf90b-a731-4d35-83c0-a5138a031fd8",
      "resource": {
        "resourceType": "PractitionerRole",
        "id": "fdadf90b-a731-4d35-83c0-a5138a031fd8",
        "meta": {
          "profile": [
            "http://hl7.eu/fhir/base/StructureDefinition/practitionerRole-eu"
          ]
        },
        "text": {
          "status": "generated",
          "div": "<div xmlns=\"http://www.w3.org/1999/xhtml\">Laboratory Role Id: fdadf90b-a731-4d35-83c0-a5138a031fd8</div>"
        },
        "practitioner": {
          "reference": "urn:uuid:4b9058dd-1409-4b46-8efa-2875f3b11533"
        }
      }
    },
    {
      "fullUrl": "urn:uuid:4b9058dd-1409-4b46-8efa-2875f3b11533",
      "resource": {
        "resourceType": "Practitioner",
        "id": "4b9058dd-1409-4b46-8efa-2875f3b11533",
        "meta": {
          "profile": [
            "http://hl7.eu/fhir/base/StructureDefinition/practitioner-eu"
          ]
        },
        "identifier": [
          {
            "assigner": {
              "display": "HL7 Europe"
            },
            "system": "urn:oid:2.16.840.1.113883.2.51.999",
            "value": "6b23e3f2-eb95-4857-ae2f-f4080a8bbdfd"
          }
        ],
        "name": [
          {
            "prefix": [
              "dr"
            ],
            "given": [
              "Ex"
            ],
            "family": "Ample"
          }
        ],
        "address": [
          {
            "line": [
              "Laboratoire Central Europenne",
              "Boulevard du Jardin Botanique 32"
            ],
            "postalCode": "1000",
            "city": "Brussels",
            "country": "Belgium"
          }
        ],
        "text": {
          "status": "generated",
          "div": "<div xmlns=\"http://www.w3.org/1999/xhtml\">Laboratory: Laboratoire Central Europenne, 1000 Brussels, Belgium</div>"
        }
      }
    }
  ],
  "type": "document",
  "timestamp": "2022-04-05T04:49:43Z"
}
