{
  "resourceType": "Bundle",
  "id": "9fbc663a-8518-47f6-9c76-ebcee82a772a",
  "meta": {
    "profile": [
      "http://hl7.eu/fhir/laboratory/StructureDefinition/Bundle-eu-lab"
    ]
  },
  "identifier": {
    "assigner": {
      "display": "HL7 Europe"
    },
    "system": "urn:oid:2.16.840.1.113883.2.51.999",
    "value": "5175042e-44db-42fb-bac5-346c6618296a"
  },
  "entry": [
    {
      "fullUrl": "urn:uuid:6ef07cbf-fc8b-4790-9c2c-d8cd7fdb5f6a",
      "resource": {
        "resourceType": "Composition",
        "id": "6ef07cbf-fc8b-4790-9c2c-d8cd7fdb5f6a",
        "meta": {
          "profile": [
            "http://hl7.eu/fhir/laboratory/StructureDefinition/Composition-eu-lab"
          ]
        },
        "identifier": {
          "assigner": {
            "display": "HL7 Europe"
          },
          "system": "urn:oid:2.16.840.1.113883.2.51.999",
          "value": "b3f956fb-5103-4bad-9083-4249b25e2bf7"
        },
        "author": [
          {
            "reference": "urn:uuid:3a504145-3225-4ce6-b375-5620f5ed2f15"
          }
        ],
        "category": [
          {
            "coding": [
              {
                "code": "26436-6",
                "system": "http://loinc.org",
                "display": "Laboratory studies (set)"
              }
            ]
          }
        ],
        "type": {
          "coding": [
            {
              "code": "11502-2",
              "system": "http://loinc.org",
              "display": "Laboratory report"
            }
          ],
          "text": "Laboratory Report"
        },
        "section": [
          {
            "code": {
              "coding": [
                {
                  "code": "26436-6",
                  "system": "http://loinc.org",
                  "display": "Laboratory studies (set)"
                }
              ],
              "text": "Laboratory studies"
            },
            "section": [
              {
                "code": {
                  "coding": [
                    {
                      "code": "$18719-5",
                      "system": "http://loinc.org",
                      "display": "Chemistry studies (set)"
                    }
                  ],
                  "text": "Chemistry"
                },
                "entry": [
                  {
                    "reference": "urn:uuid:235cbd4f-5f43-4373-825e-13987e217ee6"
                  },
                  {
                    "reference": "urn:uuid:df6fa792-ebe0-462d-b434-681abe7ad09c"
                  },
                  {
                    "reference": "urn:uuid:de8484f9-227d-4388-b97f-977e59e15613"
                  },
                  {
                    "reference": "urn:uuid:68a485aa-c1ec-4089-852d-8ada5186e25d"
                  },
                  {
                    "reference": "urn:uuid:842a08bf-410b-42e5-97ac-18e6acccb9fa"
                  },
                  {
                    "reference": "urn:uuid:57f65f90-7554-493d-8d4e-e5520adca2c6"
                  },
                  {
                    "reference": "urn:uuid:45885e16-02ef-48bc-bb5b-7fff552e501f"
                  },
                  {
                    "reference": "urn:uuid:4551a338-fd38-4f2d-aa98-f61b531c4103"
                  },
                  {
                    "reference": "urn:uuid:b4870cb4-906a-48d3-b340-eab14e4c222b"
                  },
                  {
                    "reference": "urn:uuid:959c3559-76ea-47e6-89a2-dcc9ecf4d20b"
                  },
                  {
                    "reference": "urn:uuid:3b5917ed-690b-46c2-a533-709aaaf2135b"
                  },
                  {
                    "reference": "urn:uuid:813152d8-7515-4b57-9b59-e3d59ad2b200"
                  },
                  {
                    "reference": "urn:uuid:8cc49942-fbee-47eb-90e9-6789f5de899b"
                  },
                  {
                    "reference": "urn:uuid:a9ee3aeb-676a-4419-b2cb-8e51caf07f49"
                  },
                  {
                    "reference": "urn:uuid:e50952ff-3f48-442a-8848-c2944dec7776"
                  },
                  {
                    "reference": "urn:uuid:b5650bda-ecf5-4ac0-aa21-dca03e7f4f0e"
                  },
                  {
                    "reference": "urn:uuid:033189e8-23f3-497b-b6ac-f70f90593910"
                  },
                  {
                    "reference": "urn:uuid:0856e5ce-8c74-4b4b-a2e3-af459732380e"
                  }
                ],
                "text": {
                  "status": "generated",
                  "div": "<div xmlns=\"http://www.w3.org/1999/xhtml\"><h3>Chemistry</h3><table class=\"hl7__eu__lab__report\"><thead><tr><th>Test</th><th>28-FEB-2021</th><th>Reference&#xA0;Range</th><th>Unit</th></tr></thead><tbody><tr><td>Glucose [Mass/volume] in Serum or Plasma</td><td>78.6</td><td>70 - 99</td><td>mg/dL</td></tr><tr><td>Urea nitrogen [Mass/volume] in Serum or Plasma</td><td>12.2</td><td>7 - 20</td><td>mg/dL</td></tr><tr><td>Creatinine [Mass/volume] in Serum or Plasma</td><td><strong>1.8 H</strong></td><td>0.6 - 1.3</td><td>mg/dL</td></tr><tr><td>Calcium [Mass/volume] in Serum or Plasma</td><td>9.8</td><td>8.6 - 10.4</td><td>mg/dL</td></tr><tr><td>Sodium [Moles/volume] in Serum or Plasma</td><td>137.3</td><td>135 - 145</td><td>mmol/L</td></tr><tr><td>Potassium [Moles/volume] in Serum or Plasma</td><td>4.2</td><td>3.5 - 5</td><td>mmol/L</td></tr><tr><td>Chloride [Moles/volume] in Serum or Plasma</td><td><strong>109.7 H</strong></td><td>98 - 106</td><td>mmol/L</td></tr><tr><td>Carbon dioxide, total [Moles/volume] in Serum or Plasma</td><td>23.2</td><td>22 - 29</td><td>mmol/L</td></tr><tr><td>Ketones [Presence] in Urine by Test strip</td><td>Urine ketone test = trace</td><td></td><td></td></tr><tr><td>Hemoglobin A1c/Hemoglobin.total in Blood</td><td><strong>3.4 L</strong></td><td>4 - 6</td><td>%</td></tr><tr><td>Glucose [Mass/volume] in Blood</td><td>78.6</td><td>70 - 140</td><td>mg/dL</td></tr><tr><td>Urea nitrogen [Mass/volume] in Blood</td><td>12.2</td><td>7 - 25</td><td>mg/dL</td></tr><tr><td>Creatinine [Mass/volume] in Blood</td><td>1.0</td><td>0.6 - 1.1</td><td>mg/dL</td></tr><tr><td>Calcium [Mass/volume] in Blood</td><td>9.8</td><td>8.6 - 10.4</td><td>mg/dL</td></tr><tr><td>Sodium [Moles/volume] in Blood</td><td>137.3</td><td>135 - 145</td><td>mmol/L</td></tr><tr><td>Potassium [Moles/volume] in Blood</td><td>4.2</td><td>3.5 - 5.1</td><td>mmol/L</td></tr><tr><td>Chloride [Moles/volume] in Blood</td><td>109.7</td><td>98 - 110</td><td>mmol/L</td></tr><tr><td>Carbon dioxide, total [Moles/volume] in Blood</td><td>23.2</td><td>22 - 29</td><td>mmol/L</td></tr></tbody></table></div>"
                },
                "title": "Chemistry"
              },
              {
                "code": {
                  "coding": [
                    {
                      "code": "$18729-4",
                      "system": "http://loinc.org",
                      "display": "Urinalysis studies (set)"
                    }
                  ],
                  "text": "Urinalysis"
                },
                "entry": [
                  {
                    "reference": "urn:uuid:a0339cfa-2ffa-476d-82d1-ff081daef599"
                  },
                  {
                    "reference": "urn:uuid:237f35f6-9585-4c11-9a88-04e567534fb0"
                  },
                  {
                    "reference": "urn:uuid:6fc16956-b585-47e7-a952-c350e847fd40"
                  },
                  {
                    "reference": "urn:uuid:18ce5959-5093-45c3-890f-bc569a217393"
                  },
                  {
                    "reference": "urn:uuid:e8c6b4d3-b931-4bfc-9a6a-3c08a1d7c628"
                  },
                  {
                    "reference": "urn:uuid:de3686f2-c857-43c6-a982-24fe03626de3"
                  },
                  {
                    "reference": "urn:uuid:28e7ae27-f6e8-494c-858f-a316f8de60be"
                  },
                  {
                    "reference": "urn:uuid:9982490d-b1af-497d-aa15-a5ab2529b875"
                  },
                  {
                    "reference": "urn:uuid:67e44a73-3e34-4608-9376-05a4cdae32d2"
                  },
                  {
                    "reference": "urn:uuid:9318a74e-ceea-471c-ac5c-9d222fabe424"
                  },
                  {
                    "reference": "urn:uuid:b44d14a0-4d0a-4821-a4e0-41cbdbe18102"
                  },
                  {
                    "reference": "urn:uuid:3dcd6d11-4552-4e39-b107-15cadaee8e00"
                  }
                ],
                "text": {
                  "status": "generated",
                  "div": "<div xmlns=\"http://www.w3.org/1999/xhtml\"><h3>Urinalysis</h3><table class=\"hl7__eu__lab__report\"><thead><tr><th>Test</th><th>28-FEB-2021</th><th>Reference&#xA0;Range</th><th>Unit</th></tr></thead><tbody><tr><td>Glucose [Mass/volume] in Urine by Test strip</td><td>0.7</td><td>0 - 0.8</td><td>mg/dL</td></tr><tr><td>Glucose [Presence] in Urine by Test strip</td><td>++</td><td></td><td></td></tr><tr><td>Bilirubin.total [Mass/volume] in Urine by Test strip</td><td><strong>1.2 H</strong></td><td>0 - 1</td><td>mg/dL</td></tr><tr><td>Bilirubin.total [Presence] in Urine by Test strip</td><td>Finding of bilirubin in urine</td><td></td><td></td></tr><tr><td>Ketones [Mass/volume] in Urine by Test strip</td><td><strong>17.0 H</strong></td><td>0 - 4</td><td>mg/dL</td></tr><tr><td>Specific gravity of Urine by Test strip</td><td><strong>1.0 L</strong></td><td>1.005 - 1.03</td><td>{nominal}</td></tr><tr><td>pH of Urine by Test strip</td><td>5.6</td><td>4.5 - 7</td><td>pH</td></tr><tr><td>Protein [Mass/volume] in Urine by Test strip</td><td>77.7</td><td>0 - 145</td><td>mg/dL</td></tr><tr><td>Protein [Presence] in Urine by Test strip</td><td>Urine protein test = +</td><td></td><td></td></tr><tr><td>Nitrite [Presence] in Urine by Test strip</td><td>Urine nitrite negative</td><td></td><td></td></tr><tr><td>Hemoglobin [Presence] in Urine by Test strip</td><td>Urine blood test = negative</td><td></td><td></td></tr><tr><td>Leukocyte esterase [Presence] in Urine by Test strip</td><td>Urine leukocyte test negative</td><td></td><td></td></tr></tbody></table></div>"
                },
                "title": "Urinalysis"
              },
              {
                "code": {
                  "coding": [
                    {
                      "code": "$LP7846-1",
                      "system": "http://loinc.org",
                      "display": "Specimen information"
                    }
                  ],
                  "text": "Specimen information"
                },
                "entry": [
                  {
                    "reference": "urn:uuid:70dc677b-9fc0-4cc4-a2d7-4d9e213c27d1"
                  },
                  {
                    "reference": "urn:uuid:8a4a33d9-157b-410a-bf63-6abe35e891ea"
                  },
                  {
                    "reference": "urn:uuid:38267064-1064-432d-82ab-48a26832a017"
                  },
                  {
                    "reference": "urn:uuid:978f7d5e-2a67-42a5-a0b3-7d3ff36e7447"
                  }
                ],
                "text": {
                  "status": "generated",
                  "div": "<div xmlns=\"http://www.w3.org/1999/xhtml\"><h3>Specimen information</h3><table class=\"hl7__eu__lab__report\"><thead><tr><th>Test</th><th>28-FEB-2021</th><th>Specimen</th><th></th></tr></thead><tbody><tr><td>Appearance of Urine</td><td>Cloudy urine</td><td>Urine</td><td></td></tr><tr><td>Odor of Urine</td><td>Urine smell ammoniacal</td><td>Urine</td><td></td></tr><tr><td>Clarity of Urine</td><td>Translucent</td><td>Urine</td><td></td></tr><tr><td>Color of Urine</td><td>Brown color</td><td>Urine</td><td></td></tr></tbody></table></div>"
                },
                "title": "Specimen information"
              }
            ],
            "title": "Laboratory Report"
          },
          {
            "text": {
              "status": "generated",
              "div": "<div xmlns=\"http://www.w3.org/1999/xhtml\"><h3>Annotation</h3><table class=\"hl7__eu__lab__report\"><tr><th>Conclusion and Recommendations based on this report and previous findings known to us</th></tr><tr><td>The patient shows elevated serum creatinine, suggesting possible renal impairment, and increased urine bilirubin and ketones, which may indicate liver dysfunction or metabolic disturbance. Urine is cloudy, brown, with low specific gravity, and contains glucose and protein, raising concern for renal tubular dysfunction or possible diabetes, though HbA1c is low. No evidence of urinary infection. Further clinical correlation and repeat testing, including liver and renal function, are recommended.</td></tr></table></div>"
            },
            "code": {
              "coding": [
                {
                  "system": "http://loinc.org",
                  "code": "48767-8",
                  "display": "Annotation comment"
                }
              ]
            },
            "title": "Annotation comment"
          }
        ],
        "status": "final",
        "subject": {
          "reference": "urn:uuid:56545c73-c215-4b43-9a66-c036e1072359",
          "display": "Iva Kratochvílová"
        },
        "date": "2021-02-28T17:10:29Z",
        "title": "Laboratory Report",
        "confidentiality": "N"
      }
    },
    {
      "fullUrl": "urn:uuid:9ef5f343-dd22-4ddb-9188-d829502b17c5",
      "resource": {
        "resourceType": "DiagnosticReport",
        "id": "9ef5f343-dd22-4ddb-9188-d829502b17c5",
        "meta": {
          "profile": [
            "http://hl7.eu/fhir/laboratory/StructureDefinition/DiagnosticReport-eu-lab"
          ]
        },
        "identifier": [
          {
            "assigner": {
              "display": "HL7 Europe"
            },
            "system": "urn:oid:2.16.840.1.113883.2.51.999",
            "value": "15a5497b-5873-420c-b526-fb73819791cf"
          }
        ],
        "extension": [
          {
            "url": "http://hl7.org/fhir/5.0/StructureDefinition/extension-DiagnosticReport.composition",
            "valueReference": {
              "reference": "urn:uuid:b3f956fb-5103-4bad-9083-4249b25e2bf7"
            }
          }
        ],
        "category": [
          {
            "coding": [
              {
                "code": "26436-6",
                "system": "http://loinc.org",
                "display": "Laboratory studies (set)"
              }
            ]
          }
        ],
        "specimen": [
          {
            "reference": "urn:uuid:32b2178e-6abb-4782-9aea-c1b5f4226c5f"
          },
          {
            "reference": "urn:uuid:cbf74c4f-7d18-459f-95ce-128783dcfcd8"
          },
          {
            "reference": "urn:uuid:0d8a7162-8c0a-4a1e-b7d3-3f7090267946"
          }
        ],
        "result": [
          {
            "reference": "urn:uuid:235cbd4f-5f43-4373-825e-13987e217ee6"
          },
          {
            "reference": "urn:uuid:df6fa792-ebe0-462d-b434-681abe7ad09c"
          },
          {
            "reference": "urn:uuid:de8484f9-227d-4388-b97f-977e59e15613"
          },
          {
            "reference": "urn:uuid:68a485aa-c1ec-4089-852d-8ada5186e25d"
          },
          {
            "reference": "urn:uuid:842a08bf-410b-42e5-97ac-18e6acccb9fa"
          },
          {
            "reference": "urn:uuid:57f65f90-7554-493d-8d4e-e5520adca2c6"
          },
          {
            "reference": "urn:uuid:45885e16-02ef-48bc-bb5b-7fff552e501f"
          },
          {
            "reference": "urn:uuid:4551a338-fd38-4f2d-aa98-f61b531c4103"
          },
          {
            "reference": "urn:uuid:70dc677b-9fc0-4cc4-a2d7-4d9e213c27d1"
          },
          {
            "reference": "urn:uuid:8a4a33d9-157b-410a-bf63-6abe35e891ea"
          },
          {
            "reference": "urn:uuid:38267064-1064-432d-82ab-48a26832a017"
          },
          {
            "reference": "urn:uuid:978f7d5e-2a67-42a5-a0b3-7d3ff36e7447"
          },
          {
            "reference": "urn:uuid:a0339cfa-2ffa-476d-82d1-ff081daef599"
          },
          {
            "reference": "urn:uuid:237f35f6-9585-4c11-9a88-04e567534fb0"
          },
          {
            "reference": "urn:uuid:6fc16956-b585-47e7-a952-c350e847fd40"
          },
          {
            "reference": "urn:uuid:18ce5959-5093-45c3-890f-bc569a217393"
          },
          {
            "reference": "urn:uuid:e8c6b4d3-b931-4bfc-9a6a-3c08a1d7c628"
          },
          {
            "reference": "urn:uuid:b4870cb4-906a-48d3-b340-eab14e4c222b"
          },
          {
            "reference": "urn:uuid:de3686f2-c857-43c6-a982-24fe03626de3"
          },
          {
            "reference": "urn:uuid:28e7ae27-f6e8-494c-858f-a316f8de60be"
          },
          {
            "reference": "urn:uuid:9982490d-b1af-497d-aa15-a5ab2529b875"
          },
          {
            "reference": "urn:uuid:67e44a73-3e34-4608-9376-05a4cdae32d2"
          },
          {
            "reference": "urn:uuid:9318a74e-ceea-471c-ac5c-9d222fabe424"
          },
          {
            "reference": "urn:uuid:b44d14a0-4d0a-4821-a4e0-41cbdbe18102"
          },
          {
            "reference": "urn:uuid:3dcd6d11-4552-4e39-b107-15cadaee8e00"
          },
          {
            "reference": "urn:uuid:959c3559-76ea-47e6-89a2-dcc9ecf4d20b"
          },
          {
            "reference": "urn:uuid:3b5917ed-690b-46c2-a533-709aaaf2135b"
          },
          {
            "reference": "urn:uuid:813152d8-7515-4b57-9b59-e3d59ad2b200"
          },
          {
            "reference": "urn:uuid:8cc49942-fbee-47eb-90e9-6789f5de899b"
          },
          {
            "reference": "urn:uuid:a9ee3aeb-676a-4419-b2cb-8e51caf07f49"
          },
          {
            "reference": "urn:uuid:e50952ff-3f48-442a-8848-c2944dec7776"
          },
          {
            "reference": "urn:uuid:b5650bda-ecf5-4ac0-aa21-dca03e7f4f0e"
          },
          {
            "reference": "urn:uuid:033189e8-23f3-497b-b6ac-f70f90593910"
          },
          {
            "reference": "urn:uuid:0856e5ce-8c74-4b4b-a2e3-af459732380e"
          }
        ],
        "status": "registered",
        "code": {
          "coding": [
            {
              "code": "11502-2",
              "system": "http://loinc.org",
              "display": "Laboratory report"
            }
          ]
        },
        "subject": {
          "reference": "urn:uuid:56545c73-c215-4b43-9a66-c036e1072359",
          "display": "Iva Kratochvílová"
        }
      }
    },
    {
      "fullUrl": "urn:uuid:56545c73-c215-4b43-9a66-c036e1072359",
      "resource": {
        "resourceType": "Patient",
        "id": "56545c73-c215-4b43-9a66-c036e1072359",
        "meta": {
          "security": [
            {
              "system": "http://terminology.hl7.org/CodeSystem/v3-ActReason",
              "code": "HTEST"
            },
            {
              "system": "http://terminology.hl7.org/CodeSystem/v3-ActReason",
              "code": "TRAIN"
            }
          ],
          "tag": [
            {
              "system": "https://synderai.net/fhir/CodeSystem/tags",
              "code": "synthetic",
              "display": "SYNDERAI Synthetic data"
            }
          ],
          "profile": [
            "http://hl7.eu/fhir/base/StructureDefinition/patient-eu-core"
          ]
        },
        "identifier": [
          {
            "type": {
              "coding": [
                {
                  "code": "PT",
                  "system": "http://terminology.hl7.org/CodeSystem/v2-0203"
                }
              ]
            },
            "system": "http://ec.europa.eu/identifier/eci",
            "value": "4380-389488-0"
          },
          {
            "type": {
              "coding": [
                {
                  "code": "MR",
                  "system": "http://terminology.hl7.org/CodeSystem/v2-0203"
                }
              ]
            },
            "system": "http://local.setting.eu/identifier",
            "value": "f8f9ebdc-03dd-2fc0-819c-affa4ffd7f67"
          }
        ],
        "name": [
          {
            "family": "Kratochvílová"
          },
          {
            "given": [
              "Iva"
            ]
          },
          {
            "text": "Iva Kratochvílová"
          }
        ],
        "address": [
          {
            "line": [
              "Žofie Podlipské 4"
            ],
            "use": "home",
            "type": "physical",
            "postalCode": "27324",
            "city": "Postoloprty",
            "country": "Czechia"
          }
        ],
        "telecom": [
          {
            "system": "phone",
            "value": "00420 607 985 072"
          }
        ],
        "extension": [
          {
            "url": "http://hl7.org/fhir/StructureDefinition/patient-nationality",
            "valueCodeableConcept": {
              "coding": [
                {
                  "code": "CZ",
                  "system": "http://hl7.org/fhir/ValueSet/country"
                }
              ]
            }
          }
        ],
        "text": {
          "status": "generated",
          "div": "<div xmlns=\"http://www.w3.org/1999/xhtml\"><table class=\"hl7__ips\"><tr><td>Iva Kratochvílová</td><td>female</td><td>17-Sep-1964</td></tr></table></div>"
        },
        "gender": "female",
        "birthDate": "1964-09-17"
      }
    },
    {
      "fullUrl": "urn:uuid:254a4ace-f754-4232-b3f8-ea53dae787ad",
      "resource": {
        "resourceType": "ServiceRequest",
        "id": "254a4ace-f754-4232-b3f8-ea53dae787ad",
        "meta": {
          "profile": [
            "http://hl7.eu/fhir/laboratory/StructureDefinition/ServiceRequest-eu-lab"
          ]
        },
        "identifier": [
          {
            "system": "http://example.org",
            "value": "0ff073e7-0daf-435a-a021-4d4c188533ec"
          }
        ],
        "specimen": [
          {
            "reference": "urn:uuid:32b2178e-6abb-4782-9aea-c1b5f4226c5f"
          },
          {
            "reference": "urn:uuid:cbf74c4f-7d18-459f-95ce-128783dcfcd8"
          },
          {
            "reference": "urn:uuid:0d8a7162-8c0a-4a1e-b7d3-3f7090267946"
          }
        ],
        "reasonCode": [
          {
            "coding": [
              {
                "code": "431856006",
                "system": "http://snomed.info/sct",
                "display": "Chronic kidney disease stage 2"
              }
            ]
          },
          {
            "coding": [
              {
                "code": "431855005",
                "system": "http://snomed.info/sct",
                "display": "Chronic kidney disease stage 1"
              }
            ]
          },
          {
            "coding": [
              {
                "code": "237602007",
                "system": "http://snomed.info/sct",
                "display": "Metabolic syndrome X"
              }
            ]
          },
          {
            "coding": [
              {
                "code": "91302008",
                "system": "http://snomed.info/sct",
                "display": "Sepsis"
              }
            ]
          },
          {
            "coding": [
              {
                "code": "271737000",
                "system": "http://snomed.info/sct",
                "display": "Anemia"
              }
            ]
          },
          {
            "coding": [
              {
                "code": "15777000",
                "system": "http://snomed.info/sct",
                "display": "Prediabetes"
              }
            ]
          },
          {
            "coding": [
              {
                "code": "157141000119108",
                "system": "http://snomed.info/sct",
                "display": "Proteinuria due to type 2 diabetes mellitus"
              }
            ]
          },
          {
            "coding": [
              {
                "code": "90781000119102",
                "system": "http://snomed.info/sct",
                "display": "Microalbuminuria due to type 2 diabetes mellitus"
              }
            ]
          },
          {
            "coding": [
              {
                "code": "239872002",
                "system": "http://snomed.info/sct",
                "display": "Osteoarthritis of hip"
              }
            ]
          },
          {
            "coding": [
              {
                "code": "40055000",
                "system": "http://snomed.info/sct",
                "display": "Chronic sinusitis"
              }
            ]
          },
          {
            "coding": [
              {
                "code": "127013003",
                "system": "http://snomed.info/sct",
                "display": "Disorder of kidney due to diabetes mellitus"
              }
            ]
          },
          {
            "coding": [
              {
                "code": "59621000",
                "system": "http://snomed.info/sct",
                "display": "Essential hypertension"
              }
            ]
          }
        ],
        "status": "active",
        "intent": "order",
        "code": {
          "coding": [
            {
              "code": "108252007",
              "system": "http://snomed.info/sct",
              "display": "Laboratory procedure"
            }
          ]
        },
        "subject": {
          "reference": "urn:uuid:56545c73-c215-4b43-9a66-c036e1072359",
          "display": "Iva Kratochvílová"
        },
        "requester": {
          "reference": "urn:uuid:37cff649-ccb9-49ec-a4c1-560f91f788b4"
        }
      }
    },
    {
      "fullUrl": "urn:uuid:37cff649-ccb9-49ec-a4c1-560f91f788b4",
      "resource": {
        "resourceType": "PractitionerRole",
        "id": "37cff649-ccb9-49ec-a4c1-560f91f788b4",
        "meta": {
          "profile": [
            "http://hl7.eu/fhir/base/StructureDefinition/practitionerRole-eu"
          ]
        },
        "text": {
          "status": "generated",
          "div": "<div xmlns=\"http://www.w3.org/1999/xhtml\">Provider Role Id: 37cff649-ccb9-49ec-a4c1-560f91f788b4</div>"
        },
        "organization": {
          "reference": "urn:uuid:17036282-47c4-4dd8-9730-81b62de5c915"
        }
      }
    },
    {
      "fullUrl": "urn:uuid:17036282-47c4-4dd8-9730-81b62de5c915",
      "resource": {
        "resourceType": "Organization",
        "id": "17036282-47c4-4dd8-9730-81b62de5c915",
        "meta": {
          "profile": [
            "http://hl7.eu/fhir/base/StructureDefinition/organization-eu"
          ]
        },
        "identifier": [
          {
            "assigner": {
              "display": "HL7 Europe"
            },
            "system": "urn:oid:2.16.840.1.113883.2.51.999",
            "value": "54c44df5-2288-4451-a9e5-198980b98e54"
          }
        ],
        "address": [
          {
            "city": "Kadaň",
            "postalCode": "432 01",
            "country": "Czechia"
          }
        ],
        "text": {
          "status": "generated",
          "div": "<div xmlns=\"http://www.w3.org/1999/xhtml\">Provider Organization: Nemocnice s poliklinikou Kadaň</div>"
        },
        "name": "Nemocnice s poliklinikou Kadaň"
      }
    },
    {
      "fullUrl": "urn:uuid:32b2178e-6abb-4782-9aea-c1b5f4226c5f",
      "resource": {
        "resourceType": "Specimen",
        "id": "32b2178e-6abb-4782-9aea-c1b5f4226c5f",
        "meta": {
          "profile": [
            "http://hl7.eu/fhir/laboratory/StructureDefinition/Specimen-eu-lab"
          ]
        },
        "collection": {
          "collectedDateTime": "2021-02-28"
        },
        "text": {
          "status": "generated",
          "div": "<div xmlns=\"http://www.w3.org/1999/xhtml\"><table class=\"hl7__eu__lab__report\"><tr><th>Specimen</th><th>Collection Date</th></tr><tr><td>Acellular blood (serum or plasma) specimen</td><td><span class=\"nb\">28-Feb-2021</span></td></tr></table></div>"
        },
        "type": {
          "coding": [
            {
              "code": "122592007",
              "system": "http://snomed.info/sct",
              "display": "Acellular blood (serum or plasma) specimen"
            }
          ]
        }
      }
    },
    {
      "fullUrl": "urn:uuid:cbf74c4f-7d18-459f-95ce-128783dcfcd8",
      "resource": {
        "resourceType": "Specimen",
        "id": "cbf74c4f-7d18-459f-95ce-128783dcfcd8",
        "meta": {
          "profile": [
            "http://hl7.eu/fhir/laboratory/StructureDefinition/Specimen-eu-lab"
          ]
        },
        "collection": {
          "collectedDateTime": "2021-02-28"
        },
        "text": {
          "status": "generated",
          "div": "<div xmlns=\"http://www.w3.org/1999/xhtml\"><table class=\"hl7__eu__lab__report\"><tr><th>Specimen</th><th>Collection Date</th></tr><tr><td>Urine specimen</td><td><span class=\"nb\">28-Feb-2021</span></td></tr></table></div>"
        },
        "type": {
          "coding": [
            {
              "code": "122575003",
              "system": "http://snomed.info/sct",
              "display": "Urine specimen"
            }
          ]
        }
      }
    },
    {
      "fullUrl": "urn:uuid:0d8a7162-8c0a-4a1e-b7d3-3f7090267946",
      "resource": {
        "resourceType": "Specimen",
        "id": "0d8a7162-8c0a-4a1e-b7d3-3f7090267946",
        "meta": {
          "profile": [
            "http://hl7.eu/fhir/laboratory/StructureDefinition/Specimen-eu-lab"
          ]
        },
        "collection": {
          "collectedDateTime": "2021-02-28"
        },
        "text": {
          "status": "generated",
          "div": "<div xmlns=\"http://www.w3.org/1999/xhtml\"><table class=\"hl7__eu__lab__report\"><tr><th>Specimen</th><th>Collection Date</th></tr><tr><td>Whole blood specimen (specimen)</td><td><span class=\"nb\">28-Feb-2021</span></td></tr></table></div>"
        },
        "type": {
          "coding": [
            {
              "code": "258580003",
              "system": "http://snomed.info/sct",
              "display": "Whole blood specimen (specimen)"
            }
          ]
        }
      }
    },
    {
      "fullUrl": "urn:uuid:235cbd4f-5f43-4373-825e-13987e217ee6",
      "resource": {
        "resourceType": "Observation",
        "id": "235cbd4f-5f43-4373-825e-13987e217ee6",
        "meta": {
          "profile": [
            "http://hl7.eu/fhir/laboratory/StructureDefinition/Observation-resultslab-eu-lab"
          ]
        },
        "performer": [
          {
            "display": "The Central European Lab"
          }
        ],
        "category": [
          {
            "coding": [
              {
                "system": "http://terminology.hl7.org/CodeSystem/observation-category",
                "code": "laboratory"
              }
            ]
          }
        ],
        "code": {
          "coding": [
            {
              "code": "2345-7",
              "system": "http://loinc.org",
              "display": "Glucose [Mass/volume] in Serum or Plasma"
            }
          ],
          "text": "Glucose [Mass/volume] in Serum or Plasma"
        },
        "valueQuantity": {
          "system": "http://unitsofmeasure.org",
          "value": 78.6,
          "unit": "mg/dL",
          "code": "mg/dL"
        },
        "referenceRange": [
          {
            "low": {
              "value": 70,
              "code": "mg/dL",
              "system": "http://unitsofmeasure.org"
            }
          },
          {
            "high": {
              "value": 99,
              "code": "mg/dL",
              "system": "http://unitsofmeasure.org"
            }
          }
        ],
        "text": {
          "status": "generated",
          "div": "<div xmlns=\"http://www.w3.org/1999/xhtml\"><table class=\"hl7__eu__lab__report\"><tr><th>Test</th><th>28-Feb-2021</th><th>Reference&#xA0;Range</th><th>Unit</th></tr><tr><td>Glucose [Mass/volume] in Serum or Plasma</td><td>78.6</td><td>70 - 99</td><td></td><td>mg/dL</td></tr></table></div>"
        },
        "status": "final",
        "subject": {
          "reference": "urn:uuid:56545c73-c215-4b43-9a66-c036e1072359",
          "display": "Iva Kratochvílová"
        },
        "effectiveDateTime": "2021-02-28T16:10:29Z",
        "specimen": {
          "reference": "urn:uuid:32b2178e-6abb-4782-9aea-c1b5f4226c5f"
        }
      }
    },
    {
      "fullUrl": "urn:uuid:df6fa792-ebe0-462d-b434-681abe7ad09c",
      "resource": {
        "resourceType": "Observation",
        "id": "df6fa792-ebe0-462d-b434-681abe7ad09c",
        "meta": {
          "profile": [
            "http://hl7.eu/fhir/laboratory/StructureDefinition/Observation-resultslab-eu-lab"
          ]
        },
        "performer": [
          {
            "display": "The Central European Lab"
          }
        ],
        "category": [
          {
            "coding": [
              {
                "system": "http://terminology.hl7.org/CodeSystem/observation-category",
                "code": "laboratory"
              }
            ]
          }
        ],
        "code": {
          "coding": [
            {
              "code": "3094-0",
              "system": "http://loinc.org",
              "display": "Urea nitrogen [Mass/volume] in Serum or Plasma"
            }
          ],
          "text": "Urea nitrogen [Mass/volume] in Serum or Plasma"
        },
        "valueQuantity": {
          "system": "http://unitsofmeasure.org",
          "value": 12.2,
          "unit": "mg/dL",
          "code": "mg/dL"
        },
        "referenceRange": [
          {
            "low": {
              "value": 7,
              "code": "mg/dL",
              "system": "http://unitsofmeasure.org"
            }
          },
          {
            "high": {
              "value": 20,
              "code": "mg/dL",
              "system": "http://unitsofmeasure.org"
            }
          }
        ],
        "text": {
          "status": "generated",
          "div": "<div xmlns=\"http://www.w3.org/1999/xhtml\"><table class=\"hl7__eu__lab__report\"><tr><th>Test</th><th>28-Feb-2021</th><th>Reference&#xA0;Range</th><th>Unit</th></tr><tr><td>Urea nitrogen [Mass/volume] in Serum or Plasma</td><td>12.2</td><td>7 - 20</td><td></td><td>mg/dL</td></tr></table></div>"
        },
        "status": "final",
        "subject": {
          "reference": "urn:uuid:56545c73-c215-4b43-9a66-c036e1072359",
          "display": "Iva Kratochvílová"
        },
        "effectiveDateTime": "2021-02-28T16:10:29Z",
        "specimen": {
          "reference": "urn:uuid:32b2178e-6abb-4782-9aea-c1b5f4226c5f"
        }
      }
    },
    {
      "fullUrl": "urn:uuid:de8484f9-227d-4388-b97f-977e59e15613",
      "resource": {
        "resourceType": "Observation",
        "id": "de8484f9-227d-4388-b97f-977e59e15613",
        "meta": {
          "profile": [
            "http://hl7.eu/fhir/laboratory/StructureDefinition/Observation-resultslab-eu-lab"
          ]
        },
        "performer": [
          {
            "display": "The Central European Lab"
          }
        ],
        "category": [
          {
            "coding": [
              {
                "system": "http://terminology.hl7.org/CodeSystem/observation-category",
                "code": "laboratory"
              }
            ]
          }
        ],
        "code": {
          "coding": [
            {
              "code": "2160-0",
              "system": "http://loinc.org",
              "display": "Creatinine [Mass/volume] in Serum or Plasma"
            }
          ],
          "text": "Creatinine [Mass/volume] in Serum or Plasma"
        },
        "valueQuantity": {
          "system": "http://unitsofmeasure.org",
          "value": 1.8,
          "unit": "mg/dL",
          "code": "mg/dL"
        },
        "referenceRange": [
          {
            "low": {
              "value": 0.6,
              "code": "mg/dL",
              "system": "http://unitsofmeasure.org"
            }
          },
          {
            "high": {
              "value": 1.3,
              "code": "mg/dL",
              "system": "http://unitsofmeasure.org"
            }
          }
        ],
        "interpretation": [
          {
            "coding": [
              {
                "code": "H",
                "system": "http://terminology.hl7.org/CodeSystem/v3-ObservationInterpretation",
                "display": "High"
              }
            ]
          }
        ],
        "text": {
          "status": "generated",
          "div": "<div xmlns=\"http://www.w3.org/1999/xhtml\"><table class=\"hl7__eu__lab__report\"><tr><th>Test</th><th>28-Feb-2021</th><th>Reference&#xA0;Range</th><th>Unit</th></tr><tr><td>Creatinine [Mass/volume] in Serum or Plasma</td><td>1.8</td><td>0.6 - 1.3</td><td>H</td><td>mg/dL</td></tr></table></div>"
        },
        "status": "final",
        "subject": {
          "reference": "urn:uuid:56545c73-c215-4b43-9a66-c036e1072359",
          "display": "Iva Kratochvílová"
        },
        "effectiveDateTime": "2021-02-28T16:10:29Z",
        "specimen": {
          "reference": "urn:uuid:32b2178e-6abb-4782-9aea-c1b5f4226c5f"
        }
      }
    },
    {
      "fullUrl": "urn:uuid:68a485aa-c1ec-4089-852d-8ada5186e25d",
      "resource": {
        "resourceType": "Observation",
        "id": "68a485aa-c1ec-4089-852d-8ada5186e25d",
        "meta": {
          "profile": [
            "http://hl7.eu/fhir/laboratory/StructureDefinition/Observation-resultslab-eu-lab"
          ]
        },
        "performer": [
          {
            "display": "The Central European Lab"
          }
        ],
        "category": [
          {
            "coding": [
              {
                "system": "http://terminology.hl7.org/CodeSystem/observation-category",
                "code": "laboratory"
              }
            ]
          }
        ],
        "code": {
          "coding": [
            {
              "code": "17861-6",
              "system": "http://loinc.org",
              "display": "Calcium [Mass/volume] in Serum or Plasma"
            }
          ],
          "text": "Calcium [Mass/volume] in Serum or Plasma"
        },
        "valueQuantity": {
          "system": "http://unitsofmeasure.org",
          "value": 9.8,
          "unit": "mg/dL",
          "code": "mg/dL"
        },
        "referenceRange": [
          {
            "low": {
              "value": 8.6,
              "code": "mg/dL",
              "system": "http://unitsofmeasure.org"
            }
          },
          {
            "high": {
              "value": 10.4,
              "code": "mg/dL",
              "system": "http://unitsofmeasure.org"
            }
          }
        ],
        "text": {
          "status": "generated",
          "div": "<div xmlns=\"http://www.w3.org/1999/xhtml\"><table class=\"hl7__eu__lab__report\"><tr><th>Test</th><th>28-Feb-2021</th><th>Reference&#xA0;Range</th><th>Unit</th></tr><tr><td>Calcium [Mass/volume] in Serum or Plasma</td><td>9.8</td><td>8.6 - 10.4</td><td></td><td>mg/dL</td></tr></table></div>"
        },
        "status": "final",
        "subject": {
          "reference": "urn:uuid:56545c73-c215-4b43-9a66-c036e1072359",
          "display": "Iva Kratochvílová"
        },
        "effectiveDateTime": "2021-02-28T16:10:29Z",
        "specimen": {
          "reference": "urn:uuid:32b2178e-6abb-4782-9aea-c1b5f4226c5f"
        }
      }
    },
    {
      "fullUrl": "urn:uuid:842a08bf-410b-42e5-97ac-18e6acccb9fa",
      "resource": {
        "resourceType": "Observation",
        "id": "842a08bf-410b-42e5-97ac-18e6acccb9fa",
        "meta": {
          "profile": [
            "http://hl7.eu/fhir/laboratory/StructureDefinition/Observation-resultslab-eu-lab"
          ]
        },
        "performer": [
          {
            "display": "The Central European Lab"
          }
        ],
        "category": [
          {
            "coding": [
              {
                "system": "http://terminology.hl7.org/CodeSystem/observation-category",
                "code": "laboratory"
              }
            ]
          }
        ],
        "code": {
          "coding": [
            {
              "code": "2951-2",
              "system": "http://loinc.org",
              "display": "Sodium [Moles/volume] in Serum or Plasma"
            }
          ],
          "text": "Sodium [Moles/volume] in Serum or Plasma"
        },
        "valueQuantity": {
          "system": "http://unitsofmeasure.org",
          "value": 137.3,
          "unit": "mmol/L",
          "code": "mmol/L"
        },
        "referenceRange": [
          {
            "low": {
              "value": 135,
              "code": "mmol/L",
              "system": "http://unitsofmeasure.org"
            }
          },
          {
            "high": {
              "value": 145,
              "code": "mmol/L",
              "system": "http://unitsofmeasure.org"
            }
          }
        ],
        "text": {
          "status": "generated",
          "div": "<div xmlns=\"http://www.w3.org/1999/xhtml\"><table class=\"hl7__eu__lab__report\"><tr><th>Test</th><th>28-Feb-2021</th><th>Reference&#xA0;Range</th><th>Unit</th></tr><tr><td>Sodium [Moles/volume] in Serum or Plasma</td><td>137.3</td><td>135 - 145</td><td></td><td>mmol/L</td></tr></table></div>"
        },
        "status": "final",
        "subject": {
          "reference": "urn:uuid:56545c73-c215-4b43-9a66-c036e1072359",
          "display": "Iva Kratochvílová"
        },
        "effectiveDateTime": "2021-02-28T16:10:29Z",
        "specimen": {
          "reference": "urn:uuid:32b2178e-6abb-4782-9aea-c1b5f4226c5f"
        }
      }
    },
    {
      "fullUrl": "urn:uuid:57f65f90-7554-493d-8d4e-e5520adca2c6",
      "resource": {
        "resourceType": "Observation",
        "id": "57f65f90-7554-493d-8d4e-e5520adca2c6",
        "meta": {
          "profile": [
            "http://hl7.eu/fhir/laboratory/StructureDefinition/Observation-resultslab-eu-lab"
          ]
        },
        "performer": [
          {
            "display": "The Central European Lab"
          }
        ],
        "category": [
          {
            "coding": [
              {
                "system": "http://terminology.hl7.org/CodeSystem/observation-category",
                "code": "laboratory"
              }
            ]
          }
        ],
        "code": {
          "coding": [
            {
              "code": "2823-3",
              "system": "http://loinc.org",
              "display": "Potassium [Moles/volume] in Serum or Plasma"
            }
          ],
          "text": "Potassium [Moles/volume] in Serum or Plasma"
        },
        "valueQuantity": {
          "system": "http://unitsofmeasure.org",
          "value": 4.2,
          "unit": "mmol/L",
          "code": "mmol/L"
        },
        "referenceRange": [
          {
            "low": {
              "value": 3.5,
              "code": "mmol/L",
              "system": "http://unitsofmeasure.org"
            }
          },
          {
            "high": {
              "value": 5,
              "code": "mmol/L",
              "system": "http://unitsofmeasure.org"
            }
          }
        ],
        "text": {
          "status": "generated",
          "div": "<div xmlns=\"http://www.w3.org/1999/xhtml\"><table class=\"hl7__eu__lab__report\"><tr><th>Test</th><th>28-Feb-2021</th><th>Reference&#xA0;Range</th><th>Unit</th></tr><tr><td>Potassium [Moles/volume] in Serum or Plasma</td><td>4.2</td><td>3.5 - 5</td><td></td><td>mmol/L</td></tr></table></div>"
        },
        "status": "final",
        "subject": {
          "reference": "urn:uuid:56545c73-c215-4b43-9a66-c036e1072359",
          "display": "Iva Kratochvílová"
        },
        "effectiveDateTime": "2021-02-28T16:10:29Z",
        "specimen": {
          "reference": "urn:uuid:32b2178e-6abb-4782-9aea-c1b5f4226c5f"
        }
      }
    },
    {
      "fullUrl": "urn:uuid:45885e16-02ef-48bc-bb5b-7fff552e501f",
      "resource": {
        "resourceType": "Observation",
        "id": "45885e16-02ef-48bc-bb5b-7fff552e501f",
        "meta": {
          "profile": [
            "http://hl7.eu/fhir/laboratory/StructureDefinition/Observation-resultslab-eu-lab"
          ]
        },
        "performer": [
          {
            "display": "The Central European Lab"
          }
        ],
        "category": [
          {
            "coding": [
              {
                "system": "http://terminology.hl7.org/CodeSystem/observation-category",
                "code": "laboratory"
              }
            ]
          }
        ],
        "code": {
          "coding": [
            {
              "code": "2075-0",
              "system": "http://loinc.org",
              "display": "Chloride [Moles/volume] in Serum or Plasma"
            }
          ],
          "text": "Chloride [Moles/volume] in Serum or Plasma"
        },
        "valueQuantity": {
          "system": "http://unitsofmeasure.org",
          "value": 109.7,
          "unit": "mmol/L",
          "code": "mmol/L"
        },
        "referenceRange": [
          {
            "low": {
              "value": 98,
              "code": "mmol/L",
              "system": "http://unitsofmeasure.org"
            }
          },
          {
            "high": {
              "value": 106,
              "code": "mmol/L",
              "system": "http://unitsofmeasure.org"
            }
          }
        ],
        "interpretation": [
          {
            "coding": [
              {
                "code": "H",
                "system": "http://terminology.hl7.org/CodeSystem/v3-ObservationInterpretation",
                "display": "High"
              }
            ]
          }
        ],
        "text": {
          "status": "generated",
          "div": "<div xmlns=\"http://www.w3.org/1999/xhtml\"><table class=\"hl7__eu__lab__report\"><tr><th>Test</th><th>28-Feb-2021</th><th>Reference&#xA0;Range</th><th>Unit</th></tr><tr><td>Chloride [Moles/volume] in Serum or Plasma</td><td>109.7</td><td>98 - 106</td><td>H</td><td>mmol/L</td></tr></table></div>"
        },
        "status": "final",
        "subject": {
          "reference": "urn:uuid:56545c73-c215-4b43-9a66-c036e1072359",
          "display": "Iva Kratochvílová"
        },
        "effectiveDateTime": "2021-02-28T16:10:29Z",
        "specimen": {
          "reference": "urn:uuid:32b2178e-6abb-4782-9aea-c1b5f4226c5f"
        }
      }
    },
    {
      "fullUrl": "urn:uuid:4551a338-fd38-4f2d-aa98-f61b531c4103",
      "resource": {
        "resourceType": "Observation",
        "id": "4551a338-fd38-4f2d-aa98-f61b531c4103",
        "meta": {
          "profile": [
            "http://hl7.eu/fhir/laboratory/StructureDefinition/Observation-resultslab-eu-lab"
          ]
        },
        "performer": [
          {
            "display": "The Central European Lab"
          }
        ],
        "category": [
          {
            "coding": [
              {
                "system": "http://terminology.hl7.org/CodeSystem/observation-category",
                "code": "laboratory"
              }
            ]
          }
        ],
        "code": {
          "coding": [
            {
              "code": "2028-9",
              "system": "http://loinc.org",
              "display": "Carbon dioxide, total [Moles/volume] in Serum or Plasma"
            }
          ],
          "text": "Carbon dioxide, total [Moles/volume] in Serum or Plasma"
        },
        "valueQuantity": {
          "system": "http://unitsofmeasure.org",
          "value": 23.2,
          "unit": "mmol/L",
          "code": "mmol/L"
        },
        "referenceRange": [
          {
            "low": {
              "value": 22,
              "code": "mmol/L",
              "system": "http://unitsofmeasure.org"
            }
          },
          {
            "high": {
              "value": 29,
              "code": "mmol/L",
              "system": "http://unitsofmeasure.org"
            }
          }
        ],
        "text": {
          "status": "generated",
          "div": "<div xmlns=\"http://www.w3.org/1999/xhtml\"><table class=\"hl7__eu__lab__report\"><tr><th>Test</th><th>28-Feb-2021</th><th>Reference&#xA0;Range</th><th>Unit</th></tr><tr><td>Carbon dioxide, total [Moles/volume] in Serum or Plasma</td><td>23.2</td><td>22 - 29</td><td></td><td>mmol/L</td></tr></table></div>"
        },
        "status": "final",
        "subject": {
          "reference": "urn:uuid:56545c73-c215-4b43-9a66-c036e1072359",
          "display": "Iva Kratochvílová"
        },
        "effectiveDateTime": "2021-02-28T16:10:29Z",
        "specimen": {
          "reference": "urn:uuid:32b2178e-6abb-4782-9aea-c1b5f4226c5f"
        }
      }
    },
    {
      "fullUrl": "urn:uuid:70dc677b-9fc0-4cc4-a2d7-4d9e213c27d1",
      "resource": {
        "resourceType": "Observation",
        "id": "70dc677b-9fc0-4cc4-a2d7-4d9e213c27d1",
        "meta": {
          "profile": [
            "http://hl7.eu/fhir/laboratory/StructureDefinition/Observation-resultslab-eu-lab"
          ]
        },
        "performer": [
          {
            "display": "The Central European Lab"
          }
        ],
        "category": [
          {
            "coding": [
              {
                "system": "http://terminology.hl7.org/CodeSystem/observation-category",
                "code": "laboratory"
              }
            ]
          }
        ],
        "code": {
          "coding": [
            {
              "code": "5767-9",
              "system": "http://loinc.org",
              "display": "Appearance of Urine"
            }
          ],
          "text": "Appearance of Urine"
        },
        "text": {
          "status": "generated",
          "div": "<div xmlns=\"http://www.w3.org/1999/xhtml\"><table class=\"hl7__eu__lab__report\"><tr><th>Test</th><th>28-Feb-2021</th><th>Reference&#xA0;Range</th><th>Unit</th></tr><tr><td>Appearance of Urine</td></tr></table></div>"
        },
        "status": "final",
        "subject": {
          "reference": "urn:uuid:56545c73-c215-4b43-9a66-c036e1072359",
          "display": "Iva Kratochvílová"
        },
        "effectiveDateTime": "2021-02-28T16:10:29Z",
        "specimen": {
          "reference": "urn:uuid:cbf74c4f-7d18-459f-95ce-128783dcfcd8"
        }
      }
    },
    {
      "fullUrl": "urn:uuid:8a4a33d9-157b-410a-bf63-6abe35e891ea",
      "resource": {
        "resourceType": "Observation",
        "id": "8a4a33d9-157b-410a-bf63-6abe35e891ea",
        "meta": {
          "profile": [
            "http://hl7.eu/fhir/laboratory/StructureDefinition/Observation-resultslab-eu-lab"
          ]
        },
        "performer": [
          {
            "display": "The Central European Lab"
          }
        ],
        "category": [
          {
            "coding": [
              {
                "system": "http://terminology.hl7.org/CodeSystem/observation-category",
                "code": "laboratory"
              }
            ]
          }
        ],
        "code": {
          "coding": [
            {
              "code": "34533-0",
              "system": "http://loinc.org",
              "display": "Odor of Urine"
            }
          ],
          "text": "Odor of Urine"
        },
        "text": {
          "status": "generated",
          "div": "<div xmlns=\"http://www.w3.org/1999/xhtml\"><table class=\"hl7__eu__lab__report\"><tr><th>Test</th><th>28-Feb-2021</th><th>Reference&#xA0;Range</th><th>Unit</th></tr><tr><td>Odor of Urine</td></tr></table></div>"
        },
        "status": "final",
        "subject": {
          "reference": "urn:uuid:56545c73-c215-4b43-9a66-c036e1072359",
          "display": "Iva Kratochvílová"
        },
        "effectiveDateTime": "2021-02-28T16:10:29Z",
        "specimen": {
          "reference": "urn:uuid:cbf74c4f-7d18-459f-95ce-128783dcfcd8"
        }
      }
    },
    {
      "fullUrl": "urn:uuid:38267064-1064-432d-82ab-48a26832a017",
      "resource": {
        "resourceType": "Observation",
        "id": "38267064-1064-432d-82ab-48a26832a017",
        "meta": {
          "profile": [
            "http://hl7.eu/fhir/laboratory/StructureDefinition/Observation-resultslab-eu-lab"
          ]
        },
        "performer": [
          {
            "display": "The Central European Lab"
          }
        ],
        "category": [
          {
            "coding": [
              {
                "system": "http://terminology.hl7.org/CodeSystem/observation-category",
                "code": "laboratory"
              }
            ]
          }
        ],
        "code": {
          "coding": [
            {
              "code": "32167-9",
              "system": "http://loinc.org",
              "display": "Clarity of Urine"
            }
          ],
          "text": "Clarity of Urine"
        },
        "text": {
          "status": "generated",
          "div": "<div xmlns=\"http://www.w3.org/1999/xhtml\"><table class=\"hl7__eu__lab__report\"><tr><th>Test</th><th>28-Feb-2021</th><th>Reference&#xA0;Range</th><th>Unit</th></tr><tr><td>Clarity of Urine</td></tr></table></div>"
        },
        "status": "final",
        "subject": {
          "reference": "urn:uuid:56545c73-c215-4b43-9a66-c036e1072359",
          "display": "Iva Kratochvílová"
        },
        "effectiveDateTime": "2021-02-28T16:10:29Z",
        "specimen": {
          "reference": "urn:uuid:cbf74c4f-7d18-459f-95ce-128783dcfcd8"
        }
      }
    },
    {
      "fullUrl": "urn:uuid:978f7d5e-2a67-42a5-a0b3-7d3ff36e7447",
      "resource": {
        "resourceType": "Observation",
        "id": "978f7d5e-2a67-42a5-a0b3-7d3ff36e7447",
        "meta": {
          "profile": [
            "http://hl7.eu/fhir/laboratory/StructureDefinition/Observation-resultslab-eu-lab"
          ]
        },
        "performer": [
          {
            "display": "The Central European Lab"
          }
        ],
        "category": [
          {
            "coding": [
              {
                "system": "http://terminology.hl7.org/CodeSystem/observation-category",
                "code": "laboratory"
              }
            ]
          }
        ],
        "code": {
          "coding": [
            {
              "code": "5778-6",
              "system": "http://loinc.org",
              "display": "Color of Urine"
            }
          ],
          "text": "Color of Urine"
        },
        "text": {
          "status": "generated",
          "div": "<div xmlns=\"http://www.w3.org/1999/xhtml\"><table class=\"hl7__eu__lab__report\"><tr><th>Test</th><th>28-Feb-2021</th><th>Reference&#xA0;Range</th><th>Unit</th></tr><tr><td>Color of Urine</td></tr></table></div>"
        },
        "status": "final",
        "subject": {
          "reference": "urn:uuid:56545c73-c215-4b43-9a66-c036e1072359",
          "display": "Iva Kratochvílová"
        },
        "effectiveDateTime": "2021-02-28T16:10:29Z",
        "specimen": {
          "reference": "urn:uuid:cbf74c4f-7d18-459f-95ce-128783dcfcd8"
        }
      }
    },
    {
      "fullUrl": "urn:uuid:a0339cfa-2ffa-476d-82d1-ff081daef599",
      "resource": {
        "resourceType": "Observation",
        "id": "a0339cfa-2ffa-476d-82d1-ff081daef599",
        "meta": {
          "profile": [
            "http://hl7.eu/fhir/laboratory/StructureDefinition/Observation-resultslab-eu-lab"
          ]
        },
        "performer": [
          {
            "display": "The Central European Lab"
          }
        ],
        "category": [
          {
            "coding": [
              {
                "system": "http://terminology.hl7.org/CodeSystem/observation-category",
                "code": "laboratory"
              }
            ]
          }
        ],
        "code": {
          "coding": [
            {
              "code": "5792-7",
              "system": "http://loinc.org",
              "display": "Glucose [Mass/volume] in Urine by Test strip"
            }
          ],
          "text": "Glucose [Mass/volume] in Urine by Test strip"
        },
        "valueQuantity": {
          "system": "http://unitsofmeasure.org",
          "value": 0.7,
          "unit": "mg/dL",
          "code": "mg/dL"
        },
        "referenceRange": [
          {
            "low": {
              "value": 0,
              "code": "mg/dL",
              "system": "http://unitsofmeasure.org"
            }
          },
          {
            "high": {
              "value": 0.8,
              "code": "mg/dL",
              "system": "http://unitsofmeasure.org"
            }
          }
        ],
        "text": {
          "status": "generated",
          "div": "<div xmlns=\"http://www.w3.org/1999/xhtml\"><table class=\"hl7__eu__lab__report\"><tr><th>Test</th><th>28-Feb-2021</th><th>Reference&#xA0;Range</th><th>Unit</th></tr><tr><td>Glucose [Mass/volume] in Urine by Test strip</td><td>0.7</td><td>0 - 0.8</td><td></td><td>mg/dL</td></tr></table></div>"
        },
        "status": "final",
        "subject": {
          "reference": "urn:uuid:56545c73-c215-4b43-9a66-c036e1072359",
          "display": "Iva Kratochvílová"
        },
        "effectiveDateTime": "2021-02-28T16:10:29Z",
        "specimen": {
          "reference": "urn:uuid:cbf74c4f-7d18-459f-95ce-128783dcfcd8"
        }
      }
    },
    {
      "fullUrl": "urn:uuid:237f35f6-9585-4c11-9a88-04e567534fb0",
      "resource": {
        "resourceType": "Observation",
        "id": "237f35f6-9585-4c11-9a88-04e567534fb0",
        "meta": {
          "profile": [
            "http://hl7.eu/fhir/laboratory/StructureDefinition/Observation-resultslab-eu-lab"
          ]
        },
        "performer": [
          {
            "display": "The Central European Lab"
          }
        ],
        "category": [
          {
            "coding": [
              {
                "system": "http://terminology.hl7.org/CodeSystem/observation-category",
                "code": "laboratory"
              }
            ]
          }
        ],
        "code": {
          "coding": [
            {
              "code": "25428-4",
              "system": "http://loinc.org",
              "display": "Glucose [Presence] in Urine by Test strip"
            }
          ],
          "text": "Glucose [Presence] in Urine by Test strip"
        },
        "text": {
          "status": "generated",
          "div": "<div xmlns=\"http://www.w3.org/1999/xhtml\"><table class=\"hl7__eu__lab__report\"><tr><th>Test</th><th>28-Feb-2021</th><th>Reference&#xA0;Range</th><th>Unit</th></tr><tr><td>Glucose [Presence] in Urine by Test strip</td></tr></table></div>"
        },
        "status": "final",
        "subject": {
          "reference": "urn:uuid:56545c73-c215-4b43-9a66-c036e1072359",
          "display": "Iva Kratochvílová"
        },
        "effectiveDateTime": "2021-02-28T16:10:29Z",
        "specimen": {
          "reference": "urn:uuid:cbf74c4f-7d18-459f-95ce-128783dcfcd8"
        }
      }
    },
    {
      "fullUrl": "urn:uuid:6fc16956-b585-47e7-a952-c350e847fd40",
      "resource": {
        "resourceType": "Observation",
        "id": "6fc16956-b585-47e7-a952-c350e847fd40",
        "meta": {
          "profile": [
            "http://hl7.eu/fhir/laboratory/StructureDefinition/Observation-resultslab-eu-lab"
          ]
        },
        "performer": [
          {
            "display": "The Central European Lab"
          }
        ],
        "category": [
          {
            "coding": [
              {
                "system": "http://terminology.hl7.org/CodeSystem/observation-category",
                "code": "laboratory"
              }
            ]
          }
        ],
        "code": {
          "coding": [
            {
              "code": "20505-4",
              "system": "http://loinc.org",
              "display": "Bilirubin.total [Mass/volume] in Urine by Test strip"
            }
          ],
          "text": "Bilirubin.total [Mass/volume] in Urine by Test strip"
        },
        "valueQuantity": {
          "system": "http://unitsofmeasure.org",
          "value": 1.2,
          "unit": "mg/dL",
          "code": "mg/dL"
        },
        "referenceRange": [
          {
            "low": {
              "value": 0,
              "code": "mg/dL",
              "system": "http://unitsofmeasure.org"
            }
          },
          {
            "high": {
              "value": 1,
              "code": "mg/dL",
              "system": "http://unitsofmeasure.org"
            }
          }
        ],
        "interpretation": [
          {
            "coding": [
              {
                "code": "H",
                "system": "http://terminology.hl7.org/CodeSystem/v3-ObservationInterpretation",
                "display": "High"
              }
            ]
          }
        ],
        "text": {
          "status": "generated",
          "div": "<div xmlns=\"http://www.w3.org/1999/xhtml\"><table class=\"hl7__eu__lab__report\"><tr><th>Test</th><th>28-Feb-2021</th><th>Reference&#xA0;Range</th><th>Unit</th></tr><tr><td>Bilirubin.total [Mass/volume] in Urine by Test strip</td><td>1.2</td><td>0 - 1</td><td>H</td><td>mg/dL</td></tr></table></div>"
        },
        "status": "final",
        "subject": {
          "reference": "urn:uuid:56545c73-c215-4b43-9a66-c036e1072359",
          "display": "Iva Kratochvílová"
        },
        "effectiveDateTime": "2021-02-28T16:10:29Z",
        "specimen": {
          "reference": "urn:uuid:cbf74c4f-7d18-459f-95ce-128783dcfcd8"
        }
      }
    },
    {
      "fullUrl": "urn:uuid:18ce5959-5093-45c3-890f-bc569a217393",
      "resource": {
        "resourceType": "Observation",
        "id": "18ce5959-5093-45c3-890f-bc569a217393",
        "meta": {
          "profile": [
            "http://hl7.eu/fhir/laboratory/StructureDefinition/Observation-resultslab-eu-lab"
          ]
        },
        "performer": [
          {
            "display": "The Central European Lab"
          }
        ],
        "category": [
          {
            "coding": [
              {
                "system": "http://terminology.hl7.org/CodeSystem/observation-category",
                "code": "laboratory"
              }
            ]
          }
        ],
        "code": {
          "coding": [
            {
              "code": "5770-3",
              "system": "http://loinc.org",
              "display": "Bilirubin.total [Presence] in Urine by Test strip"
            }
          ],
          "text": "Bilirubin.total [Presence] in Urine by Test strip"
        },
        "text": {
          "status": "generated",
          "div": "<div xmlns=\"http://www.w3.org/1999/xhtml\"><table class=\"hl7__eu__lab__report\"><tr><th>Test</th><th>28-Feb-2021</th><th>Reference&#xA0;Range</th><th>Unit</th></tr><tr><td>Bilirubin.total [Presence] in Urine by Test strip</td></tr></table></div>"
        },
        "status": "final",
        "subject": {
          "reference": "urn:uuid:56545c73-c215-4b43-9a66-c036e1072359",
          "display": "Iva Kratochvílová"
        },
        "effectiveDateTime": "2021-02-28T16:10:29Z",
        "specimen": {
          "reference": "urn:uuid:cbf74c4f-7d18-459f-95ce-128783dcfcd8"
        }
      }
    },
    {
      "fullUrl": "urn:uuid:e8c6b4d3-b931-4bfc-9a6a-3c08a1d7c628",
      "resource": {
        "resourceType": "Observation",
        "id": "e8c6b4d3-b931-4bfc-9a6a-3c08a1d7c628",
        "meta": {
          "profile": [
            "http://hl7.eu/fhir/laboratory/StructureDefinition/Observation-resultslab-eu-lab"
          ]
        },
        "performer": [
          {
            "display": "The Central European Lab"
          }
        ],
        "category": [
          {
            "coding": [
              {
                "system": "http://terminology.hl7.org/CodeSystem/observation-category",
                "code": "laboratory"
              }
            ]
          }
        ],
        "code": {
          "coding": [
            {
              "code": "5797-6",
              "system": "http://loinc.org",
              "display": "Ketones [Mass/volume] in Urine by Test strip"
            }
          ],
          "text": "Ketones [Mass/volume] in Urine by Test strip"
        },
        "valueQuantity": {
          "system": "http://unitsofmeasure.org",
          "value": 17,
          "unit": "mg/dL",
          "code": "mg/dL"
        },
        "referenceRange": [
          {
            "low": {
              "value": 0,
              "code": "mg/dL",
              "system": "http://unitsofmeasure.org"
            }
          },
          {
            "high": {
              "value": 4,
              "code": "mg/dL",
              "system": "http://unitsofmeasure.org"
            }
          }
        ],
        "interpretation": [
          {
            "coding": [
              {
                "code": "H",
                "system": "http://terminology.hl7.org/CodeSystem/v3-ObservationInterpretation",
                "display": "High"
              }
            ]
          }
        ],
        "text": {
          "status": "generated",
          "div": "<div xmlns=\"http://www.w3.org/1999/xhtml\"><table class=\"hl7__eu__lab__report\"><tr><th>Test</th><th>28-Feb-2021</th><th>Reference&#xA0;Range</th><th>Unit</th></tr><tr><td>Ketones [Mass/volume] in Urine by Test strip</td><td>17.0</td><td>0 - 4</td><td>H</td><td>mg/dL</td></tr></table></div>"
        },
        "status": "final",
        "subject": {
          "reference": "urn:uuid:56545c73-c215-4b43-9a66-c036e1072359",
          "display": "Iva Kratochvílová"
        },
        "effectiveDateTime": "2021-02-28T16:10:29Z",
        "specimen": {
          "reference": "urn:uuid:cbf74c4f-7d18-459f-95ce-128783dcfcd8"
        }
      }
    },
    {
      "fullUrl": "urn:uuid:b4870cb4-906a-48d3-b340-eab14e4c222b",
      "resource": {
        "resourceType": "Observation",
        "id": "b4870cb4-906a-48d3-b340-eab14e4c222b",
        "meta": {
          "profile": [
            "http://hl7.eu/fhir/laboratory/StructureDefinition/Observation-resultslab-eu-lab"
          ]
        },
        "performer": [
          {
            "display": "The Central European Lab"
          }
        ],
        "category": [
          {
            "coding": [
              {
                "system": "http://terminology.hl7.org/CodeSystem/observation-category",
                "code": "laboratory"
              }
            ]
          }
        ],
        "code": {
          "coding": [
            {
              "code": "2514-8",
              "system": "http://loinc.org",
              "display": "Ketones [Presence] in Urine by Test strip"
            }
          ],
          "text": "Ketones [Presence] in Urine by Test strip"
        },
        "text": {
          "status": "generated",
          "div": "<div xmlns=\"http://www.w3.org/1999/xhtml\"><table class=\"hl7__eu__lab__report\"><tr><th>Test</th><th>28-Feb-2021</th><th>Reference&#xA0;Range</th><th>Unit</th></tr><tr><td>Ketones [Presence] in Urine by Test strip</td></tr></table></div>"
        },
        "status": "final",
        "subject": {
          "reference": "urn:uuid:56545c73-c215-4b43-9a66-c036e1072359",
          "display": "Iva Kratochvílová"
        },
        "effectiveDateTime": "2021-02-28T16:10:29Z",
        "specimen": {
          "reference": "urn:uuid:cbf74c4f-7d18-459f-95ce-128783dcfcd8"
        }
      }
    },
    {
      "fullUrl": "urn:uuid:de3686f2-c857-43c6-a982-24fe03626de3",
      "resource": {
        "resourceType": "Observation",
        "id": "de3686f2-c857-43c6-a982-24fe03626de3",
        "meta": {
          "profile": [
            "http://hl7.eu/fhir/laboratory/StructureDefinition/Observation-resultslab-eu-lab"
          ]
        },
        "performer": [
          {
            "display": "The Central European Lab"
          }
        ],
        "category": [
          {
            "coding": [
              {
                "system": "http://terminology.hl7.org/CodeSystem/observation-category",
                "code": "laboratory"
              }
            ]
          }
        ],
        "code": {
          "coding": [
            {
              "code": "5811-5",
              "system": "http://loinc.org",
              "display": "Specific gravity of Urine by Test strip"
            }
          ],
          "text": "Specific gravity of Urine by Test strip"
        },
        "valueQuantity": {
          "system": "http://unitsofmeasure.org",
          "value": 1,
          "unit": "{nominal}",
          "code": "{nominal}"
        },
        "referenceRange": [
          {
            "low": {
              "value": 1.005,
              "code": "g/mL",
              "system": "http://unitsofmeasure.org"
            }
          },
          {
            "high": {
              "value": 1.03,
              "code": "g/mL",
              "system": "http://unitsofmeasure.org"
            }
          }
        ],
        "interpretation": [
          {
            "coding": [
              {
                "code": "L",
                "system": "http://terminology.hl7.org/CodeSystem/v3-ObservationInterpretation",
                "display": "Low"
              }
            ]
          }
        ],
        "text": {
          "status": "generated",
          "div": "<div xmlns=\"http://www.w3.org/1999/xhtml\"><table class=\"hl7__eu__lab__report\"><tr><th>Test</th><th>28-Feb-2021</th><th>Reference&#xA0;Range</th><th>Unit</th></tr><tr><td>Specific gravity of Urine by Test strip</td><td>1.0</td><td>1.005 - 1.03</td><td>L</td><td>{nominal}</td></tr></table></div>"
        },
        "status": "final",
        "subject": {
          "reference": "urn:uuid:56545c73-c215-4b43-9a66-c036e1072359",
          "display": "Iva Kratochvílová"
        },
        "effectiveDateTime": "2021-02-28T16:10:29Z",
        "specimen": {
          "reference": "urn:uuid:cbf74c4f-7d18-459f-95ce-128783dcfcd8"
        }
      }
    },
    {
      "fullUrl": "urn:uuid:28e7ae27-f6e8-494c-858f-a316f8de60be",
      "resource": {
        "resourceType": "Observation",
        "id": "28e7ae27-f6e8-494c-858f-a316f8de60be",
        "meta": {
          "profile": [
            "http://hl7.eu/fhir/laboratory/StructureDefinition/Observation-resultslab-eu-lab"
          ]
        },
        "performer": [
          {
            "display": "The Central European Lab"
          }
        ],
        "category": [
          {
            "coding": [
              {
                "system": "http://terminology.hl7.org/CodeSystem/observation-category",
                "code": "laboratory"
              }
            ]
          }
        ],
        "code": {
          "coding": [
            {
              "code": "5803-2",
              "system": "http://loinc.org",
              "display": "pH of Urine by Test strip"
            }
          ],
          "text": "pH of Urine by Test strip"
        },
        "valueQuantity": {
          "system": "http://unitsofmeasure.org",
          "value": 5.6,
          "unit": "pH",
          "code": "pH"
        },
        "referenceRange": [
          {
            "low": {
              "value": 4.5,
              "code": "pH",
              "system": "http://unitsofmeasure.org"
            }
          },
          {
            "high": {
              "value": 7,
              "code": "pH",
              "system": "http://unitsofmeasure.org"
            }
          }
        ],
        "text": {
          "status": "generated",
          "div": "<div xmlns=\"http://www.w3.org/1999/xhtml\"><table class=\"hl7__eu__lab__report\"><tr><th>Test</th><th>28-Feb-2021</th><th>Reference&#xA0;Range</th><th>Unit</th></tr><tr><td>pH of Urine by Test strip</td><td>5.6</td><td>4.5 - 7</td><td></td><td>pH</td></tr></table></div>"
        },
        "status": "final",
        "subject": {
          "reference": "urn:uuid:56545c73-c215-4b43-9a66-c036e1072359",
          "display": "Iva Kratochvílová"
        },
        "effectiveDateTime": "2021-02-28T16:10:29Z",
        "specimen": {
          "reference": "urn:uuid:cbf74c4f-7d18-459f-95ce-128783dcfcd8"
        }
      }
    },
    {
      "fullUrl": "urn:uuid:9982490d-b1af-497d-aa15-a5ab2529b875",
      "resource": {
        "resourceType": "Observation",
        "id": "9982490d-b1af-497d-aa15-a5ab2529b875",
        "meta": {
          "profile": [
            "http://hl7.eu/fhir/laboratory/StructureDefinition/Observation-resultslab-eu-lab"
          ]
        },
        "performer": [
          {
            "display": "The Central European Lab"
          }
        ],
        "category": [
          {
            "coding": [
              {
                "system": "http://terminology.hl7.org/CodeSystem/observation-category",
                "code": "laboratory"
              }
            ]
          }
        ],
        "code": {
          "coding": [
            {
              "code": "5804-0",
              "system": "http://loinc.org",
              "display": "Protein [Mass/volume] in Urine by Test strip"
            }
          ],
          "text": "Protein [Mass/volume] in Urine by Test strip"
        },
        "valueQuantity": {
          "system": "http://unitsofmeasure.org",
          "value": 77.7,
          "unit": "mg/dL",
          "code": "mg/dL"
        },
        "referenceRange": [
          {
            "low": {
              "value": 0,
              "code": "mg/dL",
              "system": "http://unitsofmeasure.org"
            }
          },
          {
            "high": {
              "value": 145,
              "code": "mg/dL",
              "system": "http://unitsofmeasure.org"
            }
          }
        ],
        "text": {
          "status": "generated",
          "div": "<div xmlns=\"http://www.w3.org/1999/xhtml\"><table class=\"hl7__eu__lab__report\"><tr><th>Test</th><th>28-Feb-2021</th><th>Reference&#xA0;Range</th><th>Unit</th></tr><tr><td>Protein [Mass/volume] in Urine by Test strip</td><td>77.7</td><td>0 - 145</td><td></td><td>mg/dL</td></tr></table></div>"
        },
        "status": "final",
        "subject": {
          "reference": "urn:uuid:56545c73-c215-4b43-9a66-c036e1072359",
          "display": "Iva Kratochvílová"
        },
        "effectiveDateTime": "2021-02-28T16:10:29Z",
        "specimen": {
          "reference": "urn:uuid:cbf74c4f-7d18-459f-95ce-128783dcfcd8"
        }
      }
    },
    {
      "fullUrl": "urn:uuid:67e44a73-3e34-4608-9376-05a4cdae32d2",
      "resource": {
        "resourceType": "Observation",
        "id": "67e44a73-3e34-4608-9376-05a4cdae32d2",
        "meta": {
          "profile": [
            "http://hl7.eu/fhir/laboratory/StructureDefinition/Observation-resultslab-eu-lab"
          ]
        },
        "performer": [
          {
            "display": "The Central European Lab"
          }
        ],
        "category": [
          {
            "coding": [
              {
                "system": "http://terminology.hl7.org/CodeSystem/observation-category",
                "code": "laboratory"
              }
            ]
          }
        ],
        "code": {
          "coding": [
            {
              "code": "20454-5",
              "system": "http://loinc.org",
              "display": "Protein [Presence] in Urine by Test strip"
            }
          ],
          "text": "Protein [Presence] in Urine by Test strip"
        },
        "text": {
          "status": "generated",
          "div": "<div xmlns=\"http://www.w3.org/1999/xhtml\"><table class=\"hl7__eu__lab__report\"><tr><th>Test</th><th>28-Feb-2021</th><th>Reference&#xA0;Range</th><th>Unit</th></tr><tr><td>Protein [Presence] in Urine by Test strip</td></tr></table></div>"
        },
        "status": "final",
        "subject": {
          "reference": "urn:uuid:56545c73-c215-4b43-9a66-c036e1072359",
          "display": "Iva Kratochvílová"
        },
        "effectiveDateTime": "2021-02-28T16:10:29Z",
        "specimen": {
          "reference": "urn:uuid:cbf74c4f-7d18-459f-95ce-128783dcfcd8"
        }
      }
    },
    {
      "fullUrl": "urn:uuid:9318a74e-ceea-471c-ac5c-9d222fabe424",
      "resource": {
        "resourceType": "Observation",
        "id": "9318a74e-ceea-471c-ac5c-9d222fabe424",
        "meta": {
          "profile": [
            "http://hl7.eu/fhir/laboratory/StructureDefinition/Observation-resultslab-eu-lab"
          ]
        },
        "performer": [
          {
            "display": "The Central European Lab"
          }
        ],
        "category": [
          {
            "coding": [
              {
                "system": "http://terminology.hl7.org/CodeSystem/observation-category",
                "code": "laboratory"
              }
            ]
          }
        ],
        "code": {
          "coding": [
            {
              "code": "5802-4",
              "system": "http://loinc.org",
              "display": "Nitrite [Presence] in Urine by Test strip"
            }
          ],
          "text": "Nitrite [Presence] in Urine by Test strip"
        },
        "text": {
          "status": "generated",
          "div": "<div xmlns=\"http://www.w3.org/1999/xhtml\"><table class=\"hl7__eu__lab__report\"><tr><th>Test</th><th>28-Feb-2021</th><th>Reference&#xA0;Range</th><th>Unit</th></tr><tr><td>Nitrite [Presence] in Urine by Test strip</td></tr></table></div>"
        },
        "status": "final",
        "subject": {
          "reference": "urn:uuid:56545c73-c215-4b43-9a66-c036e1072359",
          "display": "Iva Kratochvílová"
        },
        "effectiveDateTime": "2021-02-28T16:10:29Z",
        "specimen": {
          "reference": "urn:uuid:cbf74c4f-7d18-459f-95ce-128783dcfcd8"
        }
      }
    },
    {
      "fullUrl": "urn:uuid:b44d14a0-4d0a-4821-a4e0-41cbdbe18102",
      "resource": {
        "resourceType": "Observation",
        "id": "b44d14a0-4d0a-4821-a4e0-41cbdbe18102",
        "meta": {
          "profile": [
            "http://hl7.eu/fhir/laboratory/StructureDefinition/Observation-resultslab-eu-lab"
          ]
        },
        "performer": [
          {
            "display": "The Central European Lab"
          }
        ],
        "category": [
          {
            "coding": [
              {
                "system": "http://terminology.hl7.org/CodeSystem/observation-category",
                "code": "laboratory"
              }
            ]
          }
        ],
        "code": {
          "coding": [
            {
              "code": "5794-3",
              "system": "http://loinc.org",
              "display": "Hemoglobin [Presence] in Urine by Test strip"
            }
          ],
          "text": "Hemoglobin [Presence] in Urine by Test strip"
        },
        "text": {
          "status": "generated",
          "div": "<div xmlns=\"http://www.w3.org/1999/xhtml\"><table class=\"hl7__eu__lab__report\"><tr><th>Test</th><th>28-Feb-2021</th><th>Reference&#xA0;Range</th><th>Unit</th></tr><tr><td>Hemoglobin [Presence] in Urine by Test strip</td></tr></table></div>"
        },
        "status": "final",
        "subject": {
          "reference": "urn:uuid:56545c73-c215-4b43-9a66-c036e1072359",
          "display": "Iva Kratochvílová"
        },
        "effectiveDateTime": "2021-02-28T16:10:29Z",
        "specimen": {
          "reference": "urn:uuid:cbf74c4f-7d18-459f-95ce-128783dcfcd8"
        }
      }
    },
    {
      "fullUrl": "urn:uuid:3dcd6d11-4552-4e39-b107-15cadaee8e00",
      "resource": {
        "resourceType": "Observation",
        "id": "3dcd6d11-4552-4e39-b107-15cadaee8e00",
        "meta": {
          "profile": [
            "http://hl7.eu/fhir/laboratory/StructureDefinition/Observation-resultslab-eu-lab"
          ]
        },
        "performer": [
          {
            "display": "The Central European Lab"
          }
        ],
        "category": [
          {
            "coding": [
              {
                "system": "http://terminology.hl7.org/CodeSystem/observation-category",
                "code": "laboratory"
              }
            ]
          }
        ],
        "code": {
          "coding": [
            {
              "code": "5799-2",
              "system": "http://loinc.org",
              "display": "Leukocyte esterase [Presence] in Urine by Test strip"
            }
          ],
          "text": "Leukocyte esterase [Presence] in Urine by Test strip"
        },
        "text": {
          "status": "generated",
          "div": "<div xmlns=\"http://www.w3.org/1999/xhtml\"><table class=\"hl7__eu__lab__report\"><tr><th>Test</th><th>28-Feb-2021</th><th>Reference&#xA0;Range</th><th>Unit</th></tr><tr><td>Leukocyte esterase [Presence] in Urine by Test strip</td></tr></table></div>"
        },
        "status": "final",
        "subject": {
          "reference": "urn:uuid:56545c73-c215-4b43-9a66-c036e1072359",
          "display": "Iva Kratochvílová"
        },
        "effectiveDateTime": "2021-02-28T16:10:29Z",
        "specimen": {
          "reference": "urn:uuid:cbf74c4f-7d18-459f-95ce-128783dcfcd8"
        }
      }
    },
    {
      "fullUrl": "urn:uuid:959c3559-76ea-47e6-89a2-dcc9ecf4d20b",
      "resource": {
        "resourceType": "Observation",
        "id": "959c3559-76ea-47e6-89a2-dcc9ecf4d20b",
        "meta": {
          "profile": [
            "http://hl7.eu/fhir/laboratory/StructureDefinition/Observation-resultslab-eu-lab"
          ]
        },
        "performer": [
          {
            "display": "The Central European Lab"
          }
        ],
        "category": [
          {
            "coding": [
              {
                "system": "http://terminology.hl7.org/CodeSystem/observation-category",
                "code": "laboratory"
              }
            ]
          }
        ],
        "code": {
          "coding": [
            {
              "code": "4548-4",
              "system": "http://loinc.org",
              "display": "Hemoglobin A1c/Hemoglobin.total in Blood"
            }
          ],
          "text": "Hemoglobin A1c/Hemoglobin.total in Blood"
        },
        "valueQuantity": {
          "system": "http://unitsofmeasure.org",
          "value": 3.4,
          "unit": "%",
          "code": "%"
        },
        "referenceRange": [
          {
            "low": {
              "value": 4,
              "code": "%",
              "system": "http://unitsofmeasure.org"
            }
          },
          {
            "high": {
              "value": 6,
              "code": "%",
              "system": "http://unitsofmeasure.org"
            }
          }
        ],
        "interpretation": [
          {
            "coding": [
              {
                "code": "L",
                "system": "http://terminology.hl7.org/CodeSystem/v3-ObservationInterpretation",
                "display": "Low"
              }
            ]
          }
        ],
        "text": {
          "status": "generated",
          "div": "<div xmlns=\"http://www.w3.org/1999/xhtml\"><table class=\"hl7__eu__lab__report\"><tr><th>Test</th><th>28-Feb-2021</th><th>Reference&#xA0;Range</th><th>Unit</th></tr><tr><td>Hemoglobin A1c/Hemoglobin.total in Blood</td><td>3.4</td><td>4 - 6</td><td>L</td><td>%</td></tr></table></div>"
        },
        "status": "final",
        "subject": {
          "reference": "urn:uuid:56545c73-c215-4b43-9a66-c036e1072359",
          "display": "Iva Kratochvílová"
        },
        "effectiveDateTime": "2021-02-28T16:10:29Z",
        "specimen": {
          "reference": "urn:uuid:0d8a7162-8c0a-4a1e-b7d3-3f7090267946"
        }
      }
    },
    {
      "fullUrl": "urn:uuid:3b5917ed-690b-46c2-a533-709aaaf2135b",
      "resource": {
        "resourceType": "Observation",
        "id": "3b5917ed-690b-46c2-a533-709aaaf2135b",
        "meta": {
          "profile": [
            "http://hl7.eu/fhir/laboratory/StructureDefinition/Observation-resultslab-eu-lab"
          ]
        },
        "performer": [
          {
            "display": "The Central European Lab"
          }
        ],
        "category": [
          {
            "coding": [
              {
                "system": "http://terminology.hl7.org/CodeSystem/observation-category",
                "code": "laboratory"
              }
            ]
          }
        ],
        "code": {
          "coding": [
            {
              "code": "2339-0",
              "system": "http://loinc.org",
              "display": "Glucose [Mass/volume] in Blood"
            }
          ],
          "text": "Glucose [Mass/volume] in Blood"
        },
        "valueQuantity": {
          "system": "http://unitsofmeasure.org",
          "value": 78.6,
          "unit": "mg/dL",
          "code": "mg/dL"
        },
        "referenceRange": [
          {
            "low": {
              "value": 70,
              "code": "mg/dL",
              "system": "http://unitsofmeasure.org"
            }
          },
          {
            "high": {
              "value": 140,
              "code": "mg/dL",
              "system": "http://unitsofmeasure.org"
            }
          }
        ],
        "text": {
          "status": "generated",
          "div": "<div xmlns=\"http://www.w3.org/1999/xhtml\"><table class=\"hl7__eu__lab__report\"><tr><th>Test</th><th>28-Feb-2021</th><th>Reference&#xA0;Range</th><th>Unit</th></tr><tr><td>Glucose [Mass/volume] in Blood</td><td>78.6</td><td>70 - 140</td><td></td><td>mg/dL</td></tr></table></div>"
        },
        "status": "final",
        "subject": {
          "reference": "urn:uuid:56545c73-c215-4b43-9a66-c036e1072359",
          "display": "Iva Kratochvílová"
        },
        "effectiveDateTime": "2021-02-28T16:10:29Z",
        "specimen": {
          "reference": "urn:uuid:0d8a7162-8c0a-4a1e-b7d3-3f7090267946"
        }
      }
    },
    {
      "fullUrl": "urn:uuid:813152d8-7515-4b57-9b59-e3d59ad2b200",
      "resource": {
        "resourceType": "Observation",
        "id": "813152d8-7515-4b57-9b59-e3d59ad2b200",
        "meta": {
          "profile": [
            "http://hl7.eu/fhir/laboratory/StructureDefinition/Observation-resultslab-eu-lab"
          ]
        },
        "performer": [
          {
            "display": "The Central European Lab"
          }
        ],
        "category": [
          {
            "coding": [
              {
                "system": "http://terminology.hl7.org/CodeSystem/observation-category",
                "code": "laboratory"
              }
            ]
          }
        ],
        "code": {
          "coding": [
            {
              "code": "6299-2",
              "system": "http://loinc.org",
              "display": "Urea nitrogen [Mass/volume] in Blood"
            }
          ],
          "text": "Urea nitrogen [Mass/volume] in Blood"
        },
        "valueQuantity": {
          "system": "http://unitsofmeasure.org",
          "value": 12.2,
          "unit": "mg/dL",
          "code": "mg/dL"
        },
        "referenceRange": [
          {
            "low": {
              "value": 7,
              "code": "mg/dL",
              "system": "http://unitsofmeasure.org"
            }
          },
          {
            "high": {
              "value": 25,
              "code": "mg/dL",
              "system": "http://unitsofmeasure.org"
            }
          }
        ],
        "text": {
          "status": "generated",
          "div": "<div xmlns=\"http://www.w3.org/1999/xhtml\"><table class=\"hl7__eu__lab__report\"><tr><th>Test</th><th>28-Feb-2021</th><th>Reference&#xA0;Range</th><th>Unit</th></tr><tr><td>Urea nitrogen [Mass/volume] in Blood</td><td>12.2</td><td>7 - 25</td><td></td><td>mg/dL</td></tr></table></div>"
        },
        "status": "final",
        "subject": {
          "reference": "urn:uuid:56545c73-c215-4b43-9a66-c036e1072359",
          "display": "Iva Kratochvílová"
        },
        "effectiveDateTime": "2021-02-28T16:10:29Z",
        "specimen": {
          "reference": "urn:uuid:0d8a7162-8c0a-4a1e-b7d3-3f7090267946"
        }
      }
    },
    {
      "fullUrl": "urn:uuid:8cc49942-fbee-47eb-90e9-6789f5de899b",
      "resource": {
        "resourceType": "Observation",
        "id": "8cc49942-fbee-47eb-90e9-6789f5de899b",
        "meta": {
          "profile": [
            "http://hl7.eu/fhir/laboratory/StructureDefinition/Observation-resultslab-eu-lab"
          ]
        },
        "performer": [
          {
            "display": "The Central European Lab"
          }
        ],
        "category": [
          {
            "coding": [
              {
                "system": "http://terminology.hl7.org/CodeSystem/observation-category",
                "code": "laboratory"
              }
            ]
          }
        ],
        "code": {
          "coding": [
            {
              "code": "38483-4",
              "system": "http://loinc.org",
              "display": "Creatinine [Mass/volume] in Blood"
            }
          ],
          "text": "Creatinine [Mass/volume] in Blood"
        },
        "valueQuantity": {
          "system": "http://unitsofmeasure.org",
          "value": 1,
          "unit": "mg/dL",
          "code": "mg/dL"
        },
        "referenceRange": [
          {
            "low": {
              "value": 0.6,
              "code": "mg/dL",
              "system": "http://unitsofmeasure.org"
            }
          },
          {
            "high": {
              "value": 1.1,
              "code": "mg/dL",
              "system": "http://unitsofmeasure.org"
            }
          }
        ],
        "text": {
          "status": "generated",
          "div": "<div xmlns=\"http://www.w3.org/1999/xhtml\"><table class=\"hl7__eu__lab__report\"><tr><th>Test</th><th>28-Feb-2021</th><th>Reference&#xA0;Range</th><th>Unit</th></tr><tr><td>Creatinine [Mass/volume] in Blood</td><td>1.0</td><td>0.6 - 1.1</td><td></td><td>mg/dL</td></tr></table></div>"
        },
        "status": "final",
        "subject": {
          "reference": "urn:uuid:56545c73-c215-4b43-9a66-c036e1072359",
          "display": "Iva Kratochvílová"
        },
        "effectiveDateTime": "2021-02-28T16:10:29Z",
        "specimen": {
          "reference": "urn:uuid:0d8a7162-8c0a-4a1e-b7d3-3f7090267946"
        }
      }
    },
    {
      "fullUrl": "urn:uuid:a9ee3aeb-676a-4419-b2cb-8e51caf07f49",
      "resource": {
        "resourceType": "Observation",
        "id": "a9ee3aeb-676a-4419-b2cb-8e51caf07f49",
        "meta": {
          "profile": [
            "http://hl7.eu/fhir/laboratory/StructureDefinition/Observation-resultslab-eu-lab"
          ]
        },
        "performer": [
          {
            "display": "The Central European Lab"
          }
        ],
        "category": [
          {
            "coding": [
              {
                "system": "http://terminology.hl7.org/CodeSystem/observation-category",
                "code": "laboratory"
              }
            ]
          }
        ],
        "code": {
          "coding": [
            {
              "code": "49765-1",
              "system": "http://loinc.org",
              "display": "Calcium [Mass/volume] in Blood"
            }
          ],
          "text": "Calcium [Mass/volume] in Blood"
        },
        "valueQuantity": {
          "system": "http://unitsofmeasure.org",
          "value": 9.8,
          "unit": "mg/dL",
          "code": "mg/dL"
        },
        "referenceRange": [
          {
            "low": {
              "value": 8.6,
              "code": "mg/dL",
              "system": "http://unitsofmeasure.org"
            }
          },
          {
            "high": {
              "value": 10.4,
              "code": "mg/dL",
              "system": "http://unitsofmeasure.org"
            }
          }
        ],
        "text": {
          "status": "generated",
          "div": "<div xmlns=\"http://www.w3.org/1999/xhtml\"><table class=\"hl7__eu__lab__report\"><tr><th>Test</th><th>28-Feb-2021</th><th>Reference&#xA0;Range</th><th>Unit</th></tr><tr><td>Calcium [Mass/volume] in Blood</td><td>9.8</td><td>8.6 - 10.4</td><td></td><td>mg/dL</td></tr></table></div>"
        },
        "status": "final",
        "subject": {
          "reference": "urn:uuid:56545c73-c215-4b43-9a66-c036e1072359",
          "display": "Iva Kratochvílová"
        },
        "effectiveDateTime": "2021-02-28T16:10:29Z",
        "specimen": {
          "reference": "urn:uuid:0d8a7162-8c0a-4a1e-b7d3-3f7090267946"
        }
      }
    },
    {
      "fullUrl": "urn:uuid:e50952ff-3f48-442a-8848-c2944dec7776",
      "resource": {
        "resourceType": "Observation",
        "id": "e50952ff-3f48-442a-8848-c2944dec7776",
        "meta": {
          "profile": [
            "http://hl7.eu/fhir/laboratory/StructureDefinition/Observation-resultslab-eu-lab"
          ]
        },
        "performer": [
          {
            "display": "The Central European Lab"
          }
        ],
        "category": [
          {
            "coding": [
              {
                "system": "http://terminology.hl7.org/CodeSystem/observation-category",
                "code": "laboratory"
              }
            ]
          }
        ],
        "code": {
          "coding": [
            {
              "code": "2947-0",
              "system": "http://loinc.org",
              "display": "Sodium [Moles/volume] in Blood"
            }
          ],
          "text": "Sodium [Moles/volume] in Blood"
        },
        "valueQuantity": {
          "system": "http://unitsofmeasure.org",
          "value": 137.3,
          "unit": "mmol/L",
          "code": "mmol/L"
        },
        "referenceRange": [
          {
            "low": {
              "value": 135,
              "code": "mmol/L",
              "system": "http://unitsofmeasure.org"
            }
          },
          {
            "high": {
              "value": 145,
              "code": "mmol/L",
              "system": "http://unitsofmeasure.org"
            }
          }
        ],
        "text": {
          "status": "generated",
          "div": "<div xmlns=\"http://www.w3.org/1999/xhtml\"><table class=\"hl7__eu__lab__report\"><tr><th>Test</th><th>28-Feb-2021</th><th>Reference&#xA0;Range</th><th>Unit</th></tr><tr><td>Sodium [Moles/volume] in Blood</td><td>137.3</td><td>135 - 145</td><td></td><td>mmol/L</td></tr></table></div>"
        },
        "status": "final",
        "subject": {
          "reference": "urn:uuid:56545c73-c215-4b43-9a66-c036e1072359",
          "display": "Iva Kratochvílová"
        },
        "effectiveDateTime": "2021-02-28T16:10:29Z",
        "specimen": {
          "reference": "urn:uuid:0d8a7162-8c0a-4a1e-b7d3-3f7090267946"
        }
      }
    },
    {
      "fullUrl": "urn:uuid:b5650bda-ecf5-4ac0-aa21-dca03e7f4f0e",
      "resource": {
        "resourceType": "Observation",
        "id": "b5650bda-ecf5-4ac0-aa21-dca03e7f4f0e",
        "meta": {
          "profile": [
            "http://hl7.eu/fhir/laboratory/StructureDefinition/Observation-resultslab-eu-lab"
          ]
        },
        "performer": [
          {
            "display": "The Central European Lab"
          }
        ],
        "category": [
          {
            "coding": [
              {
                "system": "http://terminology.hl7.org/CodeSystem/observation-category",
                "code": "laboratory"
              }
            ]
          }
        ],
        "code": {
          "coding": [
            {
              "code": "6298-4",
              "system": "http://loinc.org",
              "display": "Potassium [Moles/volume] in Blood"
            }
          ],
          "text": "Potassium [Moles/volume] in Blood"
        },
        "valueQuantity": {
          "system": "http://unitsofmeasure.org",
          "value": 4.2,
          "unit": "mmol/L",
          "code": "mmol/L"
        },
        "referenceRange": [
          {
            "low": {
              "value": 3.5,
              "code": "mmol/L",
              "system": "http://unitsofmeasure.org"
            }
          },
          {
            "high": {
              "value": 5.1,
              "code": "mmol/L",
              "system": "http://unitsofmeasure.org"
            }
          }
        ],
        "text": {
          "status": "generated",
          "div": "<div xmlns=\"http://www.w3.org/1999/xhtml\"><table class=\"hl7__eu__lab__report\"><tr><th>Test</th><th>28-Feb-2021</th><th>Reference&#xA0;Range</th><th>Unit</th></tr><tr><td>Potassium [Moles/volume] in Blood</td><td>4.2</td><td>3.5 - 5.1</td><td></td><td>mmol/L</td></tr></table></div>"
        },
        "status": "final",
        "subject": {
          "reference": "urn:uuid:56545c73-c215-4b43-9a66-c036e1072359",
          "display": "Iva Kratochvílová"
        },
        "effectiveDateTime": "2021-02-28T16:10:29Z",
        "specimen": {
          "reference": "urn:uuid:0d8a7162-8c0a-4a1e-b7d3-3f7090267946"
        }
      }
    },
    {
      "fullUrl": "urn:uuid:033189e8-23f3-497b-b6ac-f70f90593910",
      "resource": {
        "resourceType": "Observation",
        "id": "033189e8-23f3-497b-b6ac-f70f90593910",
        "meta": {
          "profile": [
            "http://hl7.eu/fhir/laboratory/StructureDefinition/Observation-resultslab-eu-lab"
          ]
        },
        "performer": [
          {
            "display": "The Central European Lab"
          }
        ],
        "category": [
          {
            "coding": [
              {
                "system": "http://terminology.hl7.org/CodeSystem/observation-category",
                "code": "laboratory"
              }
            ]
          }
        ],
        "code": {
          "coding": [
            {
              "code": "2069-3",
              "system": "http://loinc.org",
              "display": "Chloride [Moles/volume] in Blood"
            }
          ],
          "text": "Chloride [Moles/volume] in Blood"
        },
        "valueQuantity": {
          "system": "http://unitsofmeasure.org",
          "value": 109.7,
          "unit": "mmol/L",
          "code": "mmol/L"
        },
        "referenceRange": [
          {
            "low": {
              "value": 98,
              "code": "mmol/L",
              "system": "http://unitsofmeasure.org"
            }
          },
          {
            "high": {
              "value": 110,
              "code": "mmol/L",
              "system": "http://unitsofmeasure.org"
            }
          }
        ],
        "text": {
          "status": "generated",
          "div": "<div xmlns=\"http://www.w3.org/1999/xhtml\"><table class=\"hl7__eu__lab__report\"><tr><th>Test</th><th>28-Feb-2021</th><th>Reference&#xA0;Range</th><th>Unit</th></tr><tr><td>Chloride [Moles/volume] in Blood</td><td>109.7</td><td>98 - 110</td><td></td><td>mmol/L</td></tr></table></div>"
        },
        "status": "final",
        "subject": {
          "reference": "urn:uuid:56545c73-c215-4b43-9a66-c036e1072359",
          "display": "Iva Kratochvílová"
        },
        "effectiveDateTime": "2021-02-28T16:10:29Z",
        "specimen": {
          "reference": "urn:uuid:0d8a7162-8c0a-4a1e-b7d3-3f7090267946"
        }
      }
    },
    {
      "fullUrl": "urn:uuid:0856e5ce-8c74-4b4b-a2e3-af459732380e",
      "resource": {
        "resourceType": "Observation",
        "id": "0856e5ce-8c74-4b4b-a2e3-af459732380e",
        "meta": {
          "profile": [
            "http://hl7.eu/fhir/laboratory/StructureDefinition/Observation-resultslab-eu-lab"
          ]
        },
        "performer": [
          {
            "display": "The Central European Lab"
          }
        ],
        "category": [
          {
            "coding": [
              {
                "system": "http://terminology.hl7.org/CodeSystem/observation-category",
                "code": "laboratory"
              }
            ]
          }
        ],
        "code": {
          "coding": [
            {
              "code": "20565-8",
              "system": "http://loinc.org",
              "display": "Carbon dioxide, total [Moles/volume] in Blood"
            }
          ],
          "text": "Carbon dioxide, total [Moles/volume] in Blood"
        },
        "valueQuantity": {
          "system": "http://unitsofmeasure.org",
          "value": 23.2,
          "unit": "mmol/L",
          "code": "mmol/L"
        },
        "referenceRange": [
          {
            "low": {
              "value": 22,
              "code": "mmol/L",
              "system": "http://unitsofmeasure.org"
            }
          },
          {
            "high": {
              "value": 29,
              "code": "mmol/L",
              "system": "http://unitsofmeasure.org"
            }
          }
        ],
        "text": {
          "status": "generated",
          "div": "<div xmlns=\"http://www.w3.org/1999/xhtml\"><table class=\"hl7__eu__lab__report\"><tr><th>Test</th><th>28-Feb-2021</th><th>Reference&#xA0;Range</th><th>Unit</th></tr><tr><td>Carbon dioxide, total [Moles/volume] in Blood</td><td>23.2</td><td>22 - 29</td><td></td><td>mmol/L</td></tr></table></div>"
        },
        "status": "final",
        "subject": {
          "reference": "urn:uuid:56545c73-c215-4b43-9a66-c036e1072359",
          "display": "Iva Kratochvílová"
        },
        "effectiveDateTime": "2021-02-28T16:10:29Z",
        "specimen": {
          "reference": "urn:uuid:0d8a7162-8c0a-4a1e-b7d3-3f7090267946"
        }
      }
    },
    {
      "fullUrl": "urn:uuid:72b8e4c6-842d-40cf-81fa-f0605afab26c",
      "resource": {
        "resourceType": "Device",
        "id": "72b8e4c6-842d-40cf-81fa-f0605afab26c",
        "deviceName": [
          {
            "name": "SYNDERAI Synthetic Generator",
            "type": "manufacturer-name"
          }
        ],
        "version": [
          {
            "value": "5.0"
          }
        ],
        "text": {
          "status": "generated",
          "div": "<div xmlns=\"http://www.w3.org/1999/xhtml\">SYNDERAI Synthetic Generator v5.0</div>"
        },
        "status": "active\"",
        "distinctIdentifier": "synderai-generator-50",
        "manufacturer": "SYNDERAI Project"
      }
    },
    {
      "fullUrl": "urn:uuid:dbfc3cfa-b008-4d93-b876-b9881bf6976b",
      "resource": {
        "resourceType": "Provenance",
        "id": "dbfc3cfa-b008-4d93-b876-b9881bf6976b",
        "target": [
          {
            "reference": "Patient/56545c73-c215-4b43-9a66-c036e1072359"
          },
          {
            "reference": "Bundle/9fbc663a-8518-47f6-9c76-ebcee82a772a"
          },
          {
            "reference": "Composition/6ef07cbf-fc8b-4790-9c2c-d8cd7fdb5f6a"
          },
          {
            "reference": "PractitionerRole/3a504145-3225-4ce6-b375-5620f5ed2f15"
          },
          {
            "reference": "Practitioner/e32639ed-27cb-49cf-8704-12dd6ed599d9"
          },
          {
            "reference": "PractitionerRole/37cff649-ccb9-49ec-a4c1-560f91f788b4"
          },
          {
            "reference": "Organization/17036282-47c4-4dd8-9730-81b62de5c915"
          }
        ],
        "activity": {
          "text": "Synthetic Example Data Generation"
        },
        "policy": [
          "https://synderai.net/synderai-synthetic-data-policy"
        ],
        "agent": [
          {
            "type": {
              "text": "author"
            },
            "who": {
              "reference": "Device/72b8e4c6-842d-40cf-81fa-f0605afab26c"
            }
          }
        ],
        "reason": [
          {
            "text": "Interoperability Testing and Training (non-clinical use)"
          }
        ],
        "text": {
          "status": "generated",
          "div": "<div xmlns=\"http://www.w3.org/1999/xhtml\">Provenance for SYNDERAI Synthetic Example Data Resource</div>"
        },
        "recorded": "2021-02-28T17:10:29Z"
      }
    },
    {
      "fullUrl": "urn:uuid:3a504145-3225-4ce6-b375-5620f5ed2f15",
      "resource": {
        "resourceType": "PractitionerRole",
        "id": "3a504145-3225-4ce6-b375-5620f5ed2f15",
        "meta": {
          "profile": [
            "http://hl7.eu/fhir/base/StructureDefinition/practitionerRole-eu"
          ]
        },
        "text": {
          "status": "generated",
          "div": "<div xmlns=\"http://www.w3.org/1999/xhtml\">Laboratory Role Id: 3a504145-3225-4ce6-b375-5620f5ed2f15</div>"
        },
        "practitioner": {
          "reference": "urn:uuid:e32639ed-27cb-49cf-8704-12dd6ed599d9"
        }
      }
    },
    {
      "fullUrl": "urn:uuid:e32639ed-27cb-49cf-8704-12dd6ed599d9",
      "resource": {
        "resourceType": "Practitioner",
        "id": "e32639ed-27cb-49cf-8704-12dd6ed599d9",
        "meta": {
          "profile": [
            "http://hl7.eu/fhir/base/StructureDefinition/practitioner-eu"
          ]
        },
        "identifier": [
          {
            "assigner": {
              "display": "HL7 Europe"
            },
            "system": "urn:oid:2.16.840.1.113883.2.51.999",
            "value": "3f6522be-878b-48da-8465-3cf029d7ca40"
          }
        ],
        "name": [
          {
            "prefix": [
              "dr"
            ],
            "given": [
              "Ex"
            ],
            "family": "Ample"
          }
        ],
        "address": [
          {
            "line": [
              "Laboratoire Central Européenne",
              "Boulevard du Jardin Botanique 32"
            ],
            "postalCode": "1000",
            "city": "Brussels",
            "country": "Belgium"
          }
        ],
        "text": {
          "status": "generated",
          "div": "<div xmlns=\"http://www.w3.org/1999/xhtml\">Laboratory: Laboratoire Central Européenne, 1000 Brussels, Belgium</div>"
        }
      }
    }
  ],
  "type": "document",
  "timestamp": "2021-02-28T17:10:29Z"
}
