{
  "resourceType": "Bundle",
  "id": "953f802e-1785-480e-a56c-343698dda097",
  "meta": {
    "profile": [
      "http://hl7.eu/fhir/laboratory/StructureDefinition/Bundle-eu-lab"
    ]
  },
  "identifier": {
    "assigner": {
      "display": "HL7 Europe"
    },
    "system": "urn:oid:2.16.840.1.113883.2.51.999",
    "value": "7d8274e5-3818-4d3b-a0ca-2a6ff4f884ed"
  },
  "entry": [
    {
      "fullUrl": "urn:uuid:7985ae2f-cc5d-4a14-8634-f19d67aef35c",
      "resource": {
        "resourceType": "Composition",
        "id": "7985ae2f-cc5d-4a14-8634-f19d67aef35c",
        "meta": {
          "profile": [
            "http://hl7.eu/fhir/laboratory/StructureDefinition/Composition-eu-lab"
          ]
        },
        "identifier": {
          "assigner": {
            "display": "HL7 Europe"
          },
          "system": "urn:oid:2.16.840.1.113883.2.51.999",
          "value": "e051423e-60dd-4643-940a-809a230849a0"
        },
        "author": [
          {
            "reference": "urn:uuid:61e9dd01-8e3e-4e40-80ec-886712484736"
          }
        ],
        "category": [
          {
            "coding": [
              {
                "code": "26436-6",
                "system": "http://loinc.org",
                "display": "Laboratory studies (set)"
              }
            ]
          }
        ],
        "type": {
          "coding": [
            {
              "code": "11502-2",
              "system": "http://loinc.org",
              "display": "Laboratory report"
            }
          ],
          "text": "Laboratory Report"
        },
        "section": [
          {
            "code": {
              "coding": [
                {
                  "code": "26436-6",
                  "system": "http://loinc.org",
                  "display": "Laboratory studies (set)"
                }
              ],
              "text": "Laboratory studies"
            },
            "section": [
              {
                "code": {
                  "coding": [
                    {
                      "code": "$18719-5",
                      "system": "http://loinc.org",
                      "display": "Chemistry studies (set)"
                    }
                  ],
                  "text": "Chemistry"
                },
                "entry": [
                  {
                    "reference": "urn:uuid:c3680322-8f98-48f8-b669-c5498a0c4f59"
                  },
                  {
                    "reference": "urn:uuid:cc5ff090-ea82-43aa-a7d7-bdcab3b929a2"
                  },
                  {
                    "reference": "urn:uuid:3997185a-3a16-4716-aabd-89155043b4b2"
                  },
                  {
                    "reference": "urn:uuid:d4df108f-6482-4dca-8022-228f37c68d2c"
                  },
                  {
                    "reference": "urn:uuid:cda13bbd-71c0-437a-b9ce-1a5693931c0b"
                  },
                  {
                    "reference": "urn:uuid:94669aea-2491-4358-abc6-2f37d4dd57f9"
                  },
                  {
                    "reference": "urn:uuid:3b100084-c14a-481b-ba7f-b686a3d3a144"
                  },
                  {
                    "reference": "urn:uuid:66b27065-7fb6-4088-b2c9-10be0c336cdb"
                  },
                  {
                    "reference": "urn:uuid:3e21fec7-95ca-4127-ac78-0432f75977ed"
                  },
                  {
                    "reference": "urn:uuid:09fb1271-46aa-46c4-8f7f-578d282dd838"
                  },
                  {
                    "reference": "urn:uuid:85447738-3169-4b7e-a5ee-cde9023ec4bb"
                  },
                  {
                    "reference": "urn:uuid:335df937-68b0-4fc9-b46a-5eecc7cb9597"
                  },
                  {
                    "reference": "urn:uuid:eff9a814-0ac8-46a6-90e3-8057f65520ce"
                  },
                  {
                    "reference": "urn:uuid:1f805cdf-35e8-4a17-a8e5-4eb793ee9586"
                  },
                  {
                    "reference": "urn:uuid:ac8ec82e-bcc2-4006-9886-4930adc968bc"
                  },
                  {
                    "reference": "urn:uuid:6c99db7e-0e2a-41c0-9709-9818557820c5"
                  },
                  {
                    "reference": "urn:uuid:4359e848-1441-40c7-83ca-1dd9bd20aa2c"
                  },
                  {
                    "reference": "urn:uuid:caccba5c-44cb-43bc-a763-d99513d346f0"
                  }
                ],
                "text": {
                  "status": "generated",
                  "div": "<div xmlns=\"http://www.w3.org/1999/xhtml\"><h3>Chemistry</h3><table class=\"hl7__eu__lab__report\"><thead><tr><th>Test</th><th>06-APR-2022</th><th>Reference&#xA0;Range</th><th>Unit</th></tr></thead><tbody><tr><td>Glucose [Mass/volume] in Serum or Plasma</td><td>89.2</td><td>70 - 140</td><td>mg/dL</td></tr><tr><td>Urea nitrogen [Mass/volume] in Serum or Plasma</td><td>13.6</td><td>7 - 20</td><td>mg/dL</td></tr><tr><td>Creatinine [Mass/volume] in Serum or Plasma</td><td><strong>1.9 H</strong></td><td>0.9 - 1.3</td><td>mg/dL</td></tr><tr><td>Calcium [Mass/volume] in Serum or Plasma</td><td>10.0</td><td>8.5 - 10.5</td><td>mg/dL</td></tr><tr><td>Sodium [Moles/volume] in Serum or Plasma</td><td>143.9</td><td>135 - 145</td><td>mmol/L</td></tr><tr><td>Potassium [Moles/volume] in Serum or Plasma</td><td>4.2</td><td>3.5 - 5</td><td>mmol/L</td></tr><tr><td>Chloride [Moles/volume] in Serum or Plasma</td><td>103.0</td><td>98 - 108</td><td>mmol/L</td></tr><tr><td>Carbon dioxide, total [Moles/volume] in Serum or Plasma</td><td>28.1</td><td>22 - 29</td><td>mmol/L</td></tr><tr><td>Ketones [Presence] in Urine by Test strip</td><td>Urine ketone test = ++</td><td></td><td></td></tr><tr><td>Hemoglobin A1c/Hemoglobin.total in Blood</td><td><strong>2.9 L</strong></td><td>4.3 - 6.4</td><td>%</td></tr><tr><td>Glucose [Mass/volume] in Blood</td><td>89.2</td><td>70 - 140</td><td>mg/dL</td></tr><tr><td>Urea nitrogen [Mass/volume] in Blood</td><td>13.6</td><td>7 - 20</td><td>mg/dL</td></tr><tr><td>Creatinine [Mass/volume] in Blood</td><td><strong>5.3 H</strong></td><td>0.6 - 1.3</td><td>mg/dL</td></tr><tr><td>Calcium [Mass/volume] in Blood</td><td>10.0</td><td>8.5 - 10.5</td><td>mg/dL</td></tr><tr><td>Sodium [Moles/volume] in Blood</td><td>143.9</td><td>135 - 145</td><td>mmol/L</td></tr><tr><td>Potassium [Moles/volume] in Blood</td><td>4.2</td><td>3.5 - 5.3</td><td>mmol/L</td></tr><tr><td>Chloride [Moles/volume] in Blood</td><td>103.0</td><td>98 - 110</td><td>mmol/L</td></tr><tr><td>Carbon dioxide, total [Moles/volume] in Blood</td><td>28.1</td><td>22 - 29</td><td>mmol/L</td></tr></tbody></table></div>"
                },
                "title": "Chemistry"
              },
              {
                "code": {
                  "coding": [
                    {
                      "code": "$18729-4",
                      "system": "http://loinc.org",
                      "display": "Urinalysis studies (set)"
                    }
                  ],
                  "text": "Urinalysis"
                },
                "entry": [
                  {
                    "reference": "urn:uuid:aa0dcd29-9020-4b61-9ad0-d8a45ad24a86"
                  },
                  {
                    "reference": "urn:uuid:6d8d909f-644e-4881-9d8a-e28ab7d20bf1"
                  },
                  {
                    "reference": "urn:uuid:e7254e2d-61c6-41b5-a6bc-54bdf56459fe"
                  },
                  {
                    "reference": "urn:uuid:2296e32d-d7d1-4931-9364-819040ecebc9"
                  },
                  {
                    "reference": "urn:uuid:bde57e29-6f31-48bc-bb52-e078b1730f7e"
                  },
                  {
                    "reference": "urn:uuid:2a228573-517b-45a5-baea-b19ddb90690b"
                  },
                  {
                    "reference": "urn:uuid:aed7f505-d793-4663-a56c-4b6bae8c2ff5"
                  },
                  {
                    "reference": "urn:uuid:90702dc9-fd20-4cb5-9271-01cf6a2d8564"
                  },
                  {
                    "reference": "urn:uuid:28c0529b-6653-42e3-acdc-84749558efa9"
                  },
                  {
                    "reference": "urn:uuid:ebf7e17b-5a5d-4e8a-94a7-5b3eb318c68b"
                  },
                  {
                    "reference": "urn:uuid:d040ce7c-a0c4-4bec-8eee-71705b5bf825"
                  },
                  {
                    "reference": "urn:uuid:9d0af21c-922c-40bd-8ff8-a9e97076dfef"
                  }
                ],
                "text": {
                  "status": "generated",
                  "div": "<div xmlns=\"http://www.w3.org/1999/xhtml\"><h3>Urinalysis</h3><table class=\"hl7__eu__lab__report\"><thead><tr><th>Test</th><th>06-APR-2022</th><th>Reference&#xA0;Range</th><th>Unit</th></tr></thead><tbody><tr><td>Glucose [Mass/volume] in Urine by Test strip</td><td><strong>0.9 H</strong></td><td>0 - 0.8</td><td>mg/dL</td></tr><tr><td>Glucose [Presence] in Urine by Test strip</td><td>++</td><td></td><td></td></tr><tr><td>Bilirubin.total [Mass/volume] in Urine by Test strip</td><td>0.6</td><td>0.2 - 1</td><td>mg/dL</td></tr><tr><td>Bilirubin.total [Presence] in Urine by Test strip</td><td>Finding of bilirubin in urine</td><td></td><td></td></tr><tr><td>Ketones [Mass/volume] in Urine by Test strip</td><td><strong>9.0 H</strong></td><td>0 - 5</td><td>mg/dL</td></tr><tr><td>Specific gravity of Urine by Test strip</td><td><strong>1.0 L</strong></td><td>1.005 - 1.03</td><td>{nominal}</td></tr><tr><td>pH of Urine by Test strip</td><td>5.6</td><td>4.6 - 7</td><td>pH</td></tr><tr><td>Protein [Mass/volume] in Urine by Test strip</td><td><strong>347.9 H</strong></td><td>0 - 150</td><td>mg/dL</td></tr><tr><td>Protein [Presence] in Urine by Test strip</td><td>Urine protein test = ++</td><td></td><td></td></tr><tr><td>Nitrite [Presence] in Urine by Test strip</td><td>Urine nitrite negative</td><td></td><td></td></tr><tr><td>Hemoglobin [Presence] in Urine by Test strip</td><td>Urine blood test = negative</td><td></td><td></td></tr><tr><td>Leukocyte esterase [Presence] in Urine by Test strip</td><td>Urine leukocyte test negative</td><td></td><td></td></tr></tbody></table></div>"
                },
                "title": "Urinalysis"
              },
              {
                "code": {
                  "coding": [
                    {
                      "code": "$LP7846-1",
                      "system": "http://loinc.org",
                      "display": "Specimen information"
                    }
                  ],
                  "text": "Specimen information"
                },
                "entry": [
                  {
                    "reference": "urn:uuid:75e702be-6337-4443-96c5-cdf29bb636eb"
                  },
                  {
                    "reference": "urn:uuid:6ef5fdb9-da0b-45bc-90f0-9a376168ff86"
                  },
                  {
                    "reference": "urn:uuid:9ab5cf9f-6c31-4431-8bdc-4cefdc717d14"
                  },
                  {
                    "reference": "urn:uuid:9c83207f-02a4-4fe9-a717-f3e5e30fea81"
                  }
                ],
                "text": {
                  "status": "generated",
                  "div": "<div xmlns=\"http://www.w3.org/1999/xhtml\"><h3>Specimen information</h3><table class=\"hl7__eu__lab__report\"><thead><tr><th>Test</th><th>06-APR-2022</th><th>Specimen</th><th></th></tr></thead><tbody><tr><td>Appearance of Urine</td><td>Cloudy urine</td><td>Urine</td><td></td></tr><tr><td>Odor of Urine</td><td>Urine smell ammoniacal</td><td>Urine</td><td></td></tr><tr><td>Clarity of Urine</td><td>Translucent</td><td>Urine</td><td></td></tr><tr><td>Color of Urine</td><td>Brown color</td><td>Urine</td><td></td></tr></tbody></table></div>"
                },
                "title": "Specimen information"
              }
            ],
            "title": "Laboratory Report"
          },
          {
            "text": {
              "status": "generated",
              "div": "<div xmlns=\"http://www.w3.org/1999/xhtml\"><h3>Annotation</h3><table class=\"hl7__eu__lab__report\"><tr><th>Conclusion and Recommendations based on this report and previous findings known to us</th></tr><tr><td>The patient shows significantly elevated creatinine, proteinuria, glucosuria, and ketonuria, with low urine specific gravity and abnormal urine appearance, suggesting impaired renal function, possible nephrotic syndrome, and glycosuria/ketonuria not explained by blood glucose or HbA1c (which is low). Findings are concerning for acute or chronic kidney disease with possible tubular dysfunction. Further nephrological evaluation is recommended.</td></tr></table></div>"
            },
            "code": {
              "coding": [
                {
                  "system": "http://loinc.org",
                  "code": "48767-8",
                  "display": "Annotation comment"
                }
              ]
            },
            "title": "Annotation comment"
          }
        ],
        "status": "final",
        "subject": {
          "reference": "urn:uuid:3a4fea34-2f9b-47d3-8121-cf3faf4cd3ad",
          "display": "Θεμιστοκλής Λιναρδάκη"
        },
        "date": "2022-04-06T08:16:00Z",
        "title": "Laboratory Report",
        "confidentiality": "N"
      }
    },
    {
      "fullUrl": "urn:uuid:b43af3d8-ec0b-414b-9237-670271c9e744",
      "resource": {
        "resourceType": "DiagnosticReport",
        "id": "b43af3d8-ec0b-414b-9237-670271c9e744",
        "meta": {
          "profile": [
            "http://hl7.eu/fhir/laboratory/StructureDefinition/DiagnosticReport-eu-lab"
          ]
        },
        "identifier": [
          {
            "assigner": {
              "display": "HL7 Europe"
            },
            "system": "urn:oid:2.16.840.1.113883.2.51.999",
            "value": "7776cace-be78-43f6-892b-16b2544059fa"
          }
        ],
        "extension": [
          {
            "url": "http://hl7.org/fhir/5.0/StructureDefinition/extension-DiagnosticReport.composition",
            "valueReference": {
              "reference": "urn:uuid:e051423e-60dd-4643-940a-809a230849a0"
            }
          }
        ],
        "category": [
          {
            "coding": [
              {
                "code": "26436-6",
                "system": "http://loinc.org",
                "display": "Laboratory studies (set)"
              }
            ]
          }
        ],
        "specimen": [
          {
            "reference": "urn:uuid:416b558b-b5a4-4bbc-a116-7da89ef31a5e"
          },
          {
            "reference": "urn:uuid:cd2edc04-8b10-41d5-9b41-d781532f919f"
          },
          {
            "reference": "urn:uuid:ffc11427-3f0d-4bf8-a273-c2b3c0ab311e"
          }
        ],
        "result": [
          {
            "reference": "urn:uuid:c3680322-8f98-48f8-b669-c5498a0c4f59"
          },
          {
            "reference": "urn:uuid:cc5ff090-ea82-43aa-a7d7-bdcab3b929a2"
          },
          {
            "reference": "urn:uuid:3997185a-3a16-4716-aabd-89155043b4b2"
          },
          {
            "reference": "urn:uuid:d4df108f-6482-4dca-8022-228f37c68d2c"
          },
          {
            "reference": "urn:uuid:cda13bbd-71c0-437a-b9ce-1a5693931c0b"
          },
          {
            "reference": "urn:uuid:94669aea-2491-4358-abc6-2f37d4dd57f9"
          },
          {
            "reference": "urn:uuid:3b100084-c14a-481b-ba7f-b686a3d3a144"
          },
          {
            "reference": "urn:uuid:66b27065-7fb6-4088-b2c9-10be0c336cdb"
          },
          {
            "reference": "urn:uuid:75e702be-6337-4443-96c5-cdf29bb636eb"
          },
          {
            "reference": "urn:uuid:6ef5fdb9-da0b-45bc-90f0-9a376168ff86"
          },
          {
            "reference": "urn:uuid:9ab5cf9f-6c31-4431-8bdc-4cefdc717d14"
          },
          {
            "reference": "urn:uuid:9c83207f-02a4-4fe9-a717-f3e5e30fea81"
          },
          {
            "reference": "urn:uuid:aa0dcd29-9020-4b61-9ad0-d8a45ad24a86"
          },
          {
            "reference": "urn:uuid:6d8d909f-644e-4881-9d8a-e28ab7d20bf1"
          },
          {
            "reference": "urn:uuid:e7254e2d-61c6-41b5-a6bc-54bdf56459fe"
          },
          {
            "reference": "urn:uuid:2296e32d-d7d1-4931-9364-819040ecebc9"
          },
          {
            "reference": "urn:uuid:bde57e29-6f31-48bc-bb52-e078b1730f7e"
          },
          {
            "reference": "urn:uuid:3e21fec7-95ca-4127-ac78-0432f75977ed"
          },
          {
            "reference": "urn:uuid:2a228573-517b-45a5-baea-b19ddb90690b"
          },
          {
            "reference": "urn:uuid:aed7f505-d793-4663-a56c-4b6bae8c2ff5"
          },
          {
            "reference": "urn:uuid:90702dc9-fd20-4cb5-9271-01cf6a2d8564"
          },
          {
            "reference": "urn:uuid:28c0529b-6653-42e3-acdc-84749558efa9"
          },
          {
            "reference": "urn:uuid:ebf7e17b-5a5d-4e8a-94a7-5b3eb318c68b"
          },
          {
            "reference": "urn:uuid:d040ce7c-a0c4-4bec-8eee-71705b5bf825"
          },
          {
            "reference": "urn:uuid:9d0af21c-922c-40bd-8ff8-a9e97076dfef"
          },
          {
            "reference": "urn:uuid:09fb1271-46aa-46c4-8f7f-578d282dd838"
          },
          {
            "reference": "urn:uuid:85447738-3169-4b7e-a5ee-cde9023ec4bb"
          },
          {
            "reference": "urn:uuid:335df937-68b0-4fc9-b46a-5eecc7cb9597"
          },
          {
            "reference": "urn:uuid:eff9a814-0ac8-46a6-90e3-8057f65520ce"
          },
          {
            "reference": "urn:uuid:1f805cdf-35e8-4a17-a8e5-4eb793ee9586"
          },
          {
            "reference": "urn:uuid:ac8ec82e-bcc2-4006-9886-4930adc968bc"
          },
          {
            "reference": "urn:uuid:6c99db7e-0e2a-41c0-9709-9818557820c5"
          },
          {
            "reference": "urn:uuid:4359e848-1441-40c7-83ca-1dd9bd20aa2c"
          },
          {
            "reference": "urn:uuid:caccba5c-44cb-43bc-a763-d99513d346f0"
          }
        ],
        "status": "registered",
        "code": {
          "coding": [
            {
              "code": "11502-2",
              "system": "http://loinc.org",
              "display": "Laboratory report"
            }
          ]
        },
        "subject": {
          "reference": "urn:uuid:3a4fea34-2f9b-47d3-8121-cf3faf4cd3ad",
          "display": "Θεμιστοκλής Λιναρδάκη"
        }
      }
    },
    {
      "fullUrl": "urn:uuid:3a4fea34-2f9b-47d3-8121-cf3faf4cd3ad",
      "resource": {
        "resourceType": "Patient",
        "id": "3a4fea34-2f9b-47d3-8121-cf3faf4cd3ad",
        "meta": {
          "security": [
            {
              "system": "http://terminology.hl7.org/CodeSystem/v3-ActReason",
              "code": "HTEST"
            },
            {
              "system": "http://terminology.hl7.org/CodeSystem/v3-ActReason",
              "code": "TRAIN"
            }
          ],
          "tag": [
            {
              "system": "https://synderai.net/fhir/CodeSystem/tags",
              "code": "synthetic",
              "display": "SYNDERAI Synthetic data"
            }
          ],
          "profile": [
            "http://hl7.eu/fhir/base/StructureDefinition/patient-eu-core"
          ]
        },
        "identifier": [
          {
            "type": {
              "coding": [
                {
                  "code": "PT",
                  "system": "http://terminology.hl7.org/CodeSystem/v2-0203"
                }
              ]
            },
            "system": "http://ec.europa.eu/identifier/eci",
            "value": "5962-476889-7"
          },
          {
            "type": {
              "coding": [
                {
                  "code": "MR",
                  "system": "http://terminology.hl7.org/CodeSystem/v2-0203"
                }
              ]
            },
            "system": "http://local.setting.eu/identifier",
            "value": "925e2603-2ef9-6bdf-1330-2ebf526636c4"
          }
        ],
        "name": [
          {
            "family": "Λιναρδάκη"
          },
          {
            "given": [
              "Θεμιστοκλής"
            ]
          },
          {
            "text": "Θεμιστοκλής Λιναρδάκη"
          }
        ],
        "address": [
          {
            "line": [
              "Αμαρύνθου 54-58"
            ],
            "use": "home",
            "type": "physical",
            "postalCode": "262 21",
            "city": "Πάτρα",
            "country": "Greece"
          }
        ],
        "telecom": [
          {
            "system": "phone",
            "value": "+302226364480"
          }
        ],
        "extension": [
          {
            "url": "http://hl7.org/fhir/StructureDefinition/patient-nationality",
            "valueCodeableConcept": {
              "coding": [
                {
                  "code": "GR",
                  "system": "http://hl7.org/fhir/ValueSet/country"
                }
              ]
            }
          }
        ],
        "text": {
          "status": "generated",
          "div": "<div xmlns=\"http://www.w3.org/1999/xhtml\"><table class=\"hl7__ips\"><tr><td>Θεμιστοκλής Λιναρδάκη</td><td>male</td><td>21-Jan-1974</td></tr></table></div>"
        },
        "gender": "male",
        "birthDate": "1974-01-21"
      }
    },
    {
      "fullUrl": "urn:uuid:d6ae48a9-983a-48f0-87b1-af67df15abc6",
      "resource": {
        "resourceType": "ServiceRequest",
        "id": "d6ae48a9-983a-48f0-87b1-af67df15abc6",
        "meta": {
          "profile": [
            "http://hl7.eu/fhir/laboratory/StructureDefinition/ServiceRequest-eu-lab"
          ]
        },
        "identifier": [
          {
            "system": "http://example.org",
            "value": "d4399497-39b8-481e-a1a8-70dfedc1f632"
          }
        ],
        "specimen": [
          {
            "reference": "urn:uuid:416b558b-b5a4-4bbc-a116-7da89ef31a5e"
          },
          {
            "reference": "urn:uuid:cd2edc04-8b10-41d5-9b41-d781532f919f"
          },
          {
            "reference": "urn:uuid:ffc11427-3f0d-4bf8-a273-c2b3c0ab311e"
          }
        ],
        "reasonCode": [
          {
            "coding": [
              {
                "code": "237602007",
                "system": "http://snomed.info/sct",
                "display": "Metabolic syndrome X"
              }
            ]
          },
          {
            "coding": [
              {
                "code": "433144002",
                "system": "http://snomed.info/sct",
                "display": "Chronic kidney disease stage 3"
              }
            ]
          },
          {
            "coding": [
              {
                "code": "157141000119108",
                "system": "http://snomed.info/sct",
                "display": "Proteinuria due to type 2 diabetes mellitus"
              }
            ]
          },
          {
            "coding": [
              {
                "code": "431856006",
                "system": "http://snomed.info/sct",
                "display": "Chronic kidney disease stage 2"
              }
            ]
          },
          {
            "coding": [
              {
                "code": "90781000119102",
                "system": "http://snomed.info/sct",
                "display": "Microalbuminuria due to type 2 diabetes mellitus"
              }
            ]
          },
          {
            "coding": [
              {
                "code": "127013003",
                "system": "http://snomed.info/sct",
                "display": "Disorder of kidney due to diabetes mellitus"
              }
            ]
          },
          {
            "coding": [
              {
                "code": "431855005",
                "system": "http://snomed.info/sct",
                "display": "Chronic kidney disease stage 1"
              }
            ]
          },
          {
            "coding": [
              {
                "code": "59621000",
                "system": "http://snomed.info/sct",
                "display": "Essential hypertension"
              }
            ]
          },
          {
            "coding": [
              {
                "code": "15777000",
                "system": "http://snomed.info/sct",
                "display": "Prediabetes"
              }
            ]
          },
          {
            "coding": [
              {
                "code": "271737000",
                "system": "http://snomed.info/sct",
                "display": "Anemia"
              }
            ]
          }
        ],
        "status": "active",
        "intent": "order",
        "code": {
          "coding": [
            {
              "code": "108252007",
              "system": "http://snomed.info/sct",
              "display": "Laboratory procedure"
            }
          ]
        },
        "subject": {
          "reference": "urn:uuid:3a4fea34-2f9b-47d3-8121-cf3faf4cd3ad",
          "display": "Θεμιστοκλής Λιναρδάκη"
        },
        "requester": {
          "reference": "urn:uuid:0dd4eb3d-c827-41b1-9350-574f547fb495"
        }
      }
    },
    {
      "fullUrl": "urn:uuid:0dd4eb3d-c827-41b1-9350-574f547fb495",
      "resource": {
        "resourceType": "PractitionerRole",
        "id": "0dd4eb3d-c827-41b1-9350-574f547fb495",
        "meta": {
          "profile": [
            "http://hl7.eu/fhir/base/StructureDefinition/practitionerRole-eu"
          ]
        },
        "text": {
          "status": "generated",
          "div": "<div xmlns=\"http://www.w3.org/1999/xhtml\">Provider Role Id: 0dd4eb3d-c827-41b1-9350-574f547fb495</div>"
        },
        "organization": {
          "reference": "urn:uuid:5c900f4e-1e91-427f-a4d0-7e1e7da472ad"
        }
      }
    },
    {
      "fullUrl": "urn:uuid:5c900f4e-1e91-427f-a4d0-7e1e7da472ad",
      "resource": {
        "resourceType": "Organization",
        "id": "5c900f4e-1e91-427f-a4d0-7e1e7da472ad",
        "meta": {
          "profile": [
            "http://hl7.eu/fhir/base/StructureDefinition/organization-eu"
          ]
        },
        "identifier": [
          {
            "assigner": {
              "display": "HL7 Europe"
            },
            "system": "urn:oid:2.16.840.1.113883.2.51.999",
            "value": "1b9b4889-698f-4b4e-b748-54c5291c4c60"
          }
        ],
        "address": [
          {
            "line": [
              "211 Odós Filellinon"
            ],
            "city": "Patras",
            "postalCode": "262 21",
            "country": "Greece"
          }
        ],
        "text": {
          "status": "generated",
          "div": "<div xmlns=\"http://www.w3.org/1999/xhtml\">Provider Organization: Dr. Dimitris Economou</div>"
        },
        "name": "Dr. Dimitris Economou"
      }
    },
    {
      "fullUrl": "urn:uuid:416b558b-b5a4-4bbc-a116-7da89ef31a5e",
      "resource": {
        "resourceType": "Specimen",
        "id": "416b558b-b5a4-4bbc-a116-7da89ef31a5e",
        "meta": {
          "profile": [
            "http://hl7.eu/fhir/laboratory/StructureDefinition/Specimen-eu-lab"
          ]
        },
        "collection": {
          "collectedDateTime": "2022-04-06"
        },
        "text": {
          "status": "generated",
          "div": "<div xmlns=\"http://www.w3.org/1999/xhtml\"><table class=\"hl7__eu__lab__report\"><tr><th>Specimen</th><th>Collection Date</th></tr><tr><td>Acellular blood (serum or plasma) specimen</td><td><span class=\"nb\">06-Apr-2022</span></td></tr></table></div>"
        },
        "type": {
          "coding": [
            {
              "code": "122592007",
              "system": "http://snomed.info/sct",
              "display": "Acellular blood (serum or plasma) specimen"
            }
          ]
        }
      }
    },
    {
      "fullUrl": "urn:uuid:cd2edc04-8b10-41d5-9b41-d781532f919f",
      "resource": {
        "resourceType": "Specimen",
        "id": "cd2edc04-8b10-41d5-9b41-d781532f919f",
        "meta": {
          "profile": [
            "http://hl7.eu/fhir/laboratory/StructureDefinition/Specimen-eu-lab"
          ]
        },
        "collection": {
          "collectedDateTime": "2022-04-06"
        },
        "text": {
          "status": "generated",
          "div": "<div xmlns=\"http://www.w3.org/1999/xhtml\"><table class=\"hl7__eu__lab__report\"><tr><th>Specimen</th><th>Collection Date</th></tr><tr><td>Urine specimen</td><td><span class=\"nb\">06-Apr-2022</span></td></tr></table></div>"
        },
        "type": {
          "coding": [
            {
              "code": "122575003",
              "system": "http://snomed.info/sct",
              "display": "Urine specimen"
            }
          ]
        }
      }
    },
    {
      "fullUrl": "urn:uuid:ffc11427-3f0d-4bf8-a273-c2b3c0ab311e",
      "resource": {
        "resourceType": "Specimen",
        "id": "ffc11427-3f0d-4bf8-a273-c2b3c0ab311e",
        "meta": {
          "profile": [
            "http://hl7.eu/fhir/laboratory/StructureDefinition/Specimen-eu-lab"
          ]
        },
        "collection": {
          "collectedDateTime": "2022-04-06"
        },
        "text": {
          "status": "generated",
          "div": "<div xmlns=\"http://www.w3.org/1999/xhtml\"><table class=\"hl7__eu__lab__report\"><tr><th>Specimen</th><th>Collection Date</th></tr><tr><td>Whole blood specimen (specimen)</td><td><span class=\"nb\">06-Apr-2022</span></td></tr></table></div>"
        },
        "type": {
          "coding": [
            {
              "code": "258580003",
              "system": "http://snomed.info/sct",
              "display": "Whole blood specimen (specimen)"
            }
          ]
        }
      }
    },
    {
      "fullUrl": "urn:uuid:c3680322-8f98-48f8-b669-c5498a0c4f59",
      "resource": {
        "resourceType": "Observation",
        "id": "c3680322-8f98-48f8-b669-c5498a0c4f59",
        "meta": {
          "profile": [
            "http://hl7.eu/fhir/laboratory/StructureDefinition/Observation-resultslab-eu-lab"
          ]
        },
        "performer": [
          {
            "display": "The Central European Lab"
          }
        ],
        "category": [
          {
            "coding": [
              {
                "system": "http://terminology.hl7.org/CodeSystem/observation-category",
                "code": "laboratory"
              }
            ]
          }
        ],
        "code": {
          "coding": [
            {
              "code": "2345-7",
              "system": "http://loinc.org",
              "display": "Glucose [Mass/volume] in Serum or Plasma"
            }
          ],
          "text": "Glucose [Mass/volume] in Serum or Plasma"
        },
        "valueQuantity": {
          "system": "http://unitsofmeasure.org",
          "value": 89.2,
          "unit": "mg/dL",
          "code": "mg/dL"
        },
        "referenceRange": [
          {
            "low": {
              "value": 70,
              "code": "mg/dL",
              "system": "http://unitsofmeasure.org"
            }
          },
          {
            "high": {
              "value": 140,
              "code": "mg/dL",
              "system": "http://unitsofmeasure.org"
            }
          }
        ],
        "text": {
          "status": "generated",
          "div": "<div xmlns=\"http://www.w3.org/1999/xhtml\"><table class=\"hl7__eu__lab__report\"><tr><th>Test</th><th>06-Apr-2022</th><th>Reference&#xA0;Range</th><th>Unit</th></tr><tr><td>Glucose [Mass/volume] in Serum or Plasma</td><td>89.2</td><td>70 - 140</td><td></td><td>mg/dL</td></tr></table></div>"
        },
        "status": "final",
        "subject": {
          "reference": "urn:uuid:3a4fea34-2f9b-47d3-8121-cf3faf4cd3ad",
          "display": "Θεμιστοκλής Λιναρδάκη"
        },
        "effectiveDateTime": "2022-04-06T06:16:00Z",
        "specimen": {
          "reference": "urn:uuid:416b558b-b5a4-4bbc-a116-7da89ef31a5e"
        }
      }
    },
    {
      "fullUrl": "urn:uuid:cc5ff090-ea82-43aa-a7d7-bdcab3b929a2",
      "resource": {
        "resourceType": "Observation",
        "id": "cc5ff090-ea82-43aa-a7d7-bdcab3b929a2",
        "meta": {
          "profile": [
            "http://hl7.eu/fhir/laboratory/StructureDefinition/Observation-resultslab-eu-lab"
          ]
        },
        "performer": [
          {
            "display": "The Central European Lab"
          }
        ],
        "category": [
          {
            "coding": [
              {
                "system": "http://terminology.hl7.org/CodeSystem/observation-category",
                "code": "laboratory"
              }
            ]
          }
        ],
        "code": {
          "coding": [
            {
              "code": "3094-0",
              "system": "http://loinc.org",
              "display": "Urea nitrogen [Mass/volume] in Serum or Plasma"
            }
          ],
          "text": "Urea nitrogen [Mass/volume] in Serum or Plasma"
        },
        "valueQuantity": {
          "system": "http://unitsofmeasure.org",
          "value": 13.6,
          "unit": "mg/dL",
          "code": "mg/dL"
        },
        "referenceRange": [
          {
            "low": {
              "value": 7,
              "code": "mg/dL",
              "system": "http://unitsofmeasure.org"
            }
          },
          {
            "high": {
              "value": 20,
              "code": "mg/dL",
              "system": "http://unitsofmeasure.org"
            }
          }
        ],
        "text": {
          "status": "generated",
          "div": "<div xmlns=\"http://www.w3.org/1999/xhtml\"><table class=\"hl7__eu__lab__report\"><tr><th>Test</th><th>06-Apr-2022</th><th>Reference&#xA0;Range</th><th>Unit</th></tr><tr><td>Urea nitrogen [Mass/volume] in Serum or Plasma</td><td>13.6</td><td>7 - 20</td><td></td><td>mg/dL</td></tr></table></div>"
        },
        "status": "final",
        "subject": {
          "reference": "urn:uuid:3a4fea34-2f9b-47d3-8121-cf3faf4cd3ad",
          "display": "Θεμιστοκλής Λιναρδάκη"
        },
        "effectiveDateTime": "2022-04-06T06:16:00Z",
        "specimen": {
          "reference": "urn:uuid:416b558b-b5a4-4bbc-a116-7da89ef31a5e"
        }
      }
    },
    {
      "fullUrl": "urn:uuid:3997185a-3a16-4716-aabd-89155043b4b2",
      "resource": {
        "resourceType": "Observation",
        "id": "3997185a-3a16-4716-aabd-89155043b4b2",
        "meta": {
          "profile": [
            "http://hl7.eu/fhir/laboratory/StructureDefinition/Observation-resultslab-eu-lab"
          ]
        },
        "performer": [
          {
            "display": "The Central European Lab"
          }
        ],
        "category": [
          {
            "coding": [
              {
                "system": "http://terminology.hl7.org/CodeSystem/observation-category",
                "code": "laboratory"
              }
            ]
          }
        ],
        "code": {
          "coding": [
            {
              "code": "2160-0",
              "system": "http://loinc.org",
              "display": "Creatinine [Mass/volume] in Serum or Plasma"
            }
          ],
          "text": "Creatinine [Mass/volume] in Serum or Plasma"
        },
        "valueQuantity": {
          "system": "http://unitsofmeasure.org",
          "value": 1.9,
          "unit": "mg/dL",
          "code": "mg/dL"
        },
        "referenceRange": [
          {
            "low": {
              "value": 0.9,
              "code": "mg/dL",
              "system": "http://unitsofmeasure.org"
            }
          },
          {
            "high": {
              "value": 1.3,
              "code": "mg/dL",
              "system": "http://unitsofmeasure.org"
            }
          }
        ],
        "interpretation": [
          {
            "coding": [
              {
                "code": "H",
                "system": "http://terminology.hl7.org/CodeSystem/v3-ObservationInterpretation",
                "display": "High"
              }
            ]
          }
        ],
        "text": {
          "status": "generated",
          "div": "<div xmlns=\"http://www.w3.org/1999/xhtml\"><table class=\"hl7__eu__lab__report\"><tr><th>Test</th><th>06-Apr-2022</th><th>Reference&#xA0;Range</th><th>Unit</th></tr><tr><td>Creatinine [Mass/volume] in Serum or Plasma</td><td>1.9</td><td>0.9 - 1.3</td><td>H</td><td>mg/dL</td></tr></table></div>"
        },
        "status": "final",
        "subject": {
          "reference": "urn:uuid:3a4fea34-2f9b-47d3-8121-cf3faf4cd3ad",
          "display": "Θεμιστοκλής Λιναρδάκη"
        },
        "effectiveDateTime": "2022-04-06T06:16:00Z",
        "specimen": {
          "reference": "urn:uuid:416b558b-b5a4-4bbc-a116-7da89ef31a5e"
        }
      }
    },
    {
      "fullUrl": "urn:uuid:d4df108f-6482-4dca-8022-228f37c68d2c",
      "resource": {
        "resourceType": "Observation",
        "id": "d4df108f-6482-4dca-8022-228f37c68d2c",
        "meta": {
          "profile": [
            "http://hl7.eu/fhir/laboratory/StructureDefinition/Observation-resultslab-eu-lab"
          ]
        },
        "performer": [
          {
            "display": "The Central European Lab"
          }
        ],
        "category": [
          {
            "coding": [
              {
                "system": "http://terminology.hl7.org/CodeSystem/observation-category",
                "code": "laboratory"
              }
            ]
          }
        ],
        "code": {
          "coding": [
            {
              "code": "17861-6",
              "system": "http://loinc.org",
              "display": "Calcium [Mass/volume] in Serum or Plasma"
            }
          ],
          "text": "Calcium [Mass/volume] in Serum or Plasma"
        },
        "valueQuantity": {
          "system": "http://unitsofmeasure.org",
          "value": 10,
          "unit": "mg/dL",
          "code": "mg/dL"
        },
        "referenceRange": [
          {
            "low": {
              "value": 8.5,
              "code": "mg/dL",
              "system": "http://unitsofmeasure.org"
            }
          },
          {
            "high": {
              "value": 10.5,
              "code": "mg/dL",
              "system": "http://unitsofmeasure.org"
            }
          }
        ],
        "text": {
          "status": "generated",
          "div": "<div xmlns=\"http://www.w3.org/1999/xhtml\"><table class=\"hl7__eu__lab__report\"><tr><th>Test</th><th>06-Apr-2022</th><th>Reference&#xA0;Range</th><th>Unit</th></tr><tr><td>Calcium [Mass/volume] in Serum or Plasma</td><td>10.0</td><td>8.5 - 10.5</td><td></td><td>mg/dL</td></tr></table></div>"
        },
        "status": "final",
        "subject": {
          "reference": "urn:uuid:3a4fea34-2f9b-47d3-8121-cf3faf4cd3ad",
          "display": "Θεμιστοκλής Λιναρδάκη"
        },
        "effectiveDateTime": "2022-04-06T06:16:00Z",
        "specimen": {
          "reference": "urn:uuid:416b558b-b5a4-4bbc-a116-7da89ef31a5e"
        }
      }
    },
    {
      "fullUrl": "urn:uuid:cda13bbd-71c0-437a-b9ce-1a5693931c0b",
      "resource": {
        "resourceType": "Observation",
        "id": "cda13bbd-71c0-437a-b9ce-1a5693931c0b",
        "meta": {
          "profile": [
            "http://hl7.eu/fhir/laboratory/StructureDefinition/Observation-resultslab-eu-lab"
          ]
        },
        "performer": [
          {
            "display": "The Central European Lab"
          }
        ],
        "category": [
          {
            "coding": [
              {
                "system": "http://terminology.hl7.org/CodeSystem/observation-category",
                "code": "laboratory"
              }
            ]
          }
        ],
        "code": {
          "coding": [
            {
              "code": "2951-2",
              "system": "http://loinc.org",
              "display": "Sodium [Moles/volume] in Serum or Plasma"
            }
          ],
          "text": "Sodium [Moles/volume] in Serum or Plasma"
        },
        "valueQuantity": {
          "system": "http://unitsofmeasure.org",
          "value": 143.9,
          "unit": "mmol/L",
          "code": "mmol/L"
        },
        "referenceRange": [
          {
            "low": {
              "value": 135,
              "code": "mmol/L",
              "system": "http://unitsofmeasure.org"
            }
          },
          {
            "high": {
              "value": 145,
              "code": "mmol/L",
              "system": "http://unitsofmeasure.org"
            }
          }
        ],
        "text": {
          "status": "generated",
          "div": "<div xmlns=\"http://www.w3.org/1999/xhtml\"><table class=\"hl7__eu__lab__report\"><tr><th>Test</th><th>06-Apr-2022</th><th>Reference&#xA0;Range</th><th>Unit</th></tr><tr><td>Sodium [Moles/volume] in Serum or Plasma</td><td>143.9</td><td>135 - 145</td><td></td><td>mmol/L</td></tr></table></div>"
        },
        "status": "final",
        "subject": {
          "reference": "urn:uuid:3a4fea34-2f9b-47d3-8121-cf3faf4cd3ad",
          "display": "Θεμιστοκλής Λιναρδάκη"
        },
        "effectiveDateTime": "2022-04-06T06:16:00Z",
        "specimen": {
          "reference": "urn:uuid:416b558b-b5a4-4bbc-a116-7da89ef31a5e"
        }
      }
    },
    {
      "fullUrl": "urn:uuid:94669aea-2491-4358-abc6-2f37d4dd57f9",
      "resource": {
        "resourceType": "Observation",
        "id": "94669aea-2491-4358-abc6-2f37d4dd57f9",
        "meta": {
          "profile": [
            "http://hl7.eu/fhir/laboratory/StructureDefinition/Observation-resultslab-eu-lab"
          ]
        },
        "performer": [
          {
            "display": "The Central European Lab"
          }
        ],
        "category": [
          {
            "coding": [
              {
                "system": "http://terminology.hl7.org/CodeSystem/observation-category",
                "code": "laboratory"
              }
            ]
          }
        ],
        "code": {
          "coding": [
            {
              "code": "2823-3",
              "system": "http://loinc.org",
              "display": "Potassium [Moles/volume] in Serum or Plasma"
            }
          ],
          "text": "Potassium [Moles/volume] in Serum or Plasma"
        },
        "valueQuantity": {
          "system": "http://unitsofmeasure.org",
          "value": 4.2,
          "unit": "mmol/L",
          "code": "mmol/L"
        },
        "referenceRange": [
          {
            "low": {
              "value": 3.5,
              "code": "mmol/L",
              "system": "http://unitsofmeasure.org"
            }
          },
          {
            "high": {
              "value": 5,
              "code": "mmol/L",
              "system": "http://unitsofmeasure.org"
            }
          }
        ],
        "text": {
          "status": "generated",
          "div": "<div xmlns=\"http://www.w3.org/1999/xhtml\"><table class=\"hl7__eu__lab__report\"><tr><th>Test</th><th>06-Apr-2022</th><th>Reference&#xA0;Range</th><th>Unit</th></tr><tr><td>Potassium [Moles/volume] in Serum or Plasma</td><td>4.2</td><td>3.5 - 5</td><td></td><td>mmol/L</td></tr></table></div>"
        },
        "status": "final",
        "subject": {
          "reference": "urn:uuid:3a4fea34-2f9b-47d3-8121-cf3faf4cd3ad",
          "display": "Θεμιστοκλής Λιναρδάκη"
        },
        "effectiveDateTime": "2022-04-06T06:16:00Z",
        "specimen": {
          "reference": "urn:uuid:416b558b-b5a4-4bbc-a116-7da89ef31a5e"
        }
      }
    },
    {
      "fullUrl": "urn:uuid:3b100084-c14a-481b-ba7f-b686a3d3a144",
      "resource": {
        "resourceType": "Observation",
        "id": "3b100084-c14a-481b-ba7f-b686a3d3a144",
        "meta": {
          "profile": [
            "http://hl7.eu/fhir/laboratory/StructureDefinition/Observation-resultslab-eu-lab"
          ]
        },
        "performer": [
          {
            "display": "The Central European Lab"
          }
        ],
        "category": [
          {
            "coding": [
              {
                "system": "http://terminology.hl7.org/CodeSystem/observation-category",
                "code": "laboratory"
              }
            ]
          }
        ],
        "code": {
          "coding": [
            {
              "code": "2075-0",
              "system": "http://loinc.org",
              "display": "Chloride [Moles/volume] in Serum or Plasma"
            }
          ],
          "text": "Chloride [Moles/volume] in Serum or Plasma"
        },
        "valueQuantity": {
          "system": "http://unitsofmeasure.org",
          "value": 103,
          "unit": "mmol/L",
          "code": "mmol/L"
        },
        "referenceRange": [
          {
            "low": {
              "value": 98,
              "code": "mmol/L",
              "system": "http://unitsofmeasure.org"
            }
          },
          {
            "high": {
              "value": 108,
              "code": "mmol/L",
              "system": "http://unitsofmeasure.org"
            }
          }
        ],
        "text": {
          "status": "generated",
          "div": "<div xmlns=\"http://www.w3.org/1999/xhtml\"><table class=\"hl7__eu__lab__report\"><tr><th>Test</th><th>06-Apr-2022</th><th>Reference&#xA0;Range</th><th>Unit</th></tr><tr><td>Chloride [Moles/volume] in Serum or Plasma</td><td>103.0</td><td>98 - 108</td><td></td><td>mmol/L</td></tr></table></div>"
        },
        "status": "final",
        "subject": {
          "reference": "urn:uuid:3a4fea34-2f9b-47d3-8121-cf3faf4cd3ad",
          "display": "Θεμιστοκλής Λιναρδάκη"
        },
        "effectiveDateTime": "2022-04-06T06:16:00Z",
        "specimen": {
          "reference": "urn:uuid:416b558b-b5a4-4bbc-a116-7da89ef31a5e"
        }
      }
    },
    {
      "fullUrl": "urn:uuid:66b27065-7fb6-4088-b2c9-10be0c336cdb",
      "resource": {
        "resourceType": "Observation",
        "id": "66b27065-7fb6-4088-b2c9-10be0c336cdb",
        "meta": {
          "profile": [
            "http://hl7.eu/fhir/laboratory/StructureDefinition/Observation-resultslab-eu-lab"
          ]
        },
        "performer": [
          {
            "display": "The Central European Lab"
          }
        ],
        "category": [
          {
            "coding": [
              {
                "system": "http://terminology.hl7.org/CodeSystem/observation-category",
                "code": "laboratory"
              }
            ]
          }
        ],
        "code": {
          "coding": [
            {
              "code": "2028-9",
              "system": "http://loinc.org",
              "display": "Carbon dioxide, total [Moles/volume] in Serum or Plasma"
            }
          ],
          "text": "Carbon dioxide, total [Moles/volume] in Serum or Plasma"
        },
        "valueQuantity": {
          "system": "http://unitsofmeasure.org",
          "value": 28.1,
          "unit": "mmol/L",
          "code": "mmol/L"
        },
        "referenceRange": [
          {
            "low": {
              "value": 22,
              "code": "mmol/L",
              "system": "http://unitsofmeasure.org"
            }
          },
          {
            "high": {
              "value": 29,
              "code": "mmol/L",
              "system": "http://unitsofmeasure.org"
            }
          }
        ],
        "text": {
          "status": "generated",
          "div": "<div xmlns=\"http://www.w3.org/1999/xhtml\"><table class=\"hl7__eu__lab__report\"><tr><th>Test</th><th>06-Apr-2022</th><th>Reference&#xA0;Range</th><th>Unit</th></tr><tr><td>Carbon dioxide, total [Moles/volume] in Serum or Plasma</td><td>28.1</td><td>22 - 29</td><td></td><td>mmol/L</td></tr></table></div>"
        },
        "status": "final",
        "subject": {
          "reference": "urn:uuid:3a4fea34-2f9b-47d3-8121-cf3faf4cd3ad",
          "display": "Θεμιστοκλής Λιναρδάκη"
        },
        "effectiveDateTime": "2022-04-06T06:16:00Z",
        "specimen": {
          "reference": "urn:uuid:416b558b-b5a4-4bbc-a116-7da89ef31a5e"
        }
      }
    },
    {
      "fullUrl": "urn:uuid:75e702be-6337-4443-96c5-cdf29bb636eb",
      "resource": {
        "resourceType": "Observation",
        "id": "75e702be-6337-4443-96c5-cdf29bb636eb",
        "meta": {
          "profile": [
            "http://hl7.eu/fhir/laboratory/StructureDefinition/Observation-resultslab-eu-lab"
          ]
        },
        "performer": [
          {
            "display": "The Central European Lab"
          }
        ],
        "category": [
          {
            "coding": [
              {
                "system": "http://terminology.hl7.org/CodeSystem/observation-category",
                "code": "laboratory"
              }
            ]
          }
        ],
        "code": {
          "coding": [
            {
              "code": "5767-9",
              "system": "http://loinc.org",
              "display": "Appearance of Urine"
            }
          ],
          "text": "Appearance of Urine"
        },
        "text": {
          "status": "generated",
          "div": "<div xmlns=\"http://www.w3.org/1999/xhtml\"><table class=\"hl7__eu__lab__report\"><tr><th>Test</th><th>06-Apr-2022</th><th>Reference&#xA0;Range</th><th>Unit</th></tr><tr><td>Appearance of Urine</td></tr></table></div>"
        },
        "status": "final",
        "subject": {
          "reference": "urn:uuid:3a4fea34-2f9b-47d3-8121-cf3faf4cd3ad",
          "display": "Θεμιστοκλής Λιναρδάκη"
        },
        "effectiveDateTime": "2022-04-06T06:16:00Z",
        "specimen": {
          "reference": "urn:uuid:cd2edc04-8b10-41d5-9b41-d781532f919f"
        }
      }
    },
    {
      "fullUrl": "urn:uuid:6ef5fdb9-da0b-45bc-90f0-9a376168ff86",
      "resource": {
        "resourceType": "Observation",
        "id": "6ef5fdb9-da0b-45bc-90f0-9a376168ff86",
        "meta": {
          "profile": [
            "http://hl7.eu/fhir/laboratory/StructureDefinition/Observation-resultslab-eu-lab"
          ]
        },
        "performer": [
          {
            "display": "The Central European Lab"
          }
        ],
        "category": [
          {
            "coding": [
              {
                "system": "http://terminology.hl7.org/CodeSystem/observation-category",
                "code": "laboratory"
              }
            ]
          }
        ],
        "code": {
          "coding": [
            {
              "code": "34533-0",
              "system": "http://loinc.org",
              "display": "Odor of Urine"
            }
          ],
          "text": "Odor of Urine"
        },
        "text": {
          "status": "generated",
          "div": "<div xmlns=\"http://www.w3.org/1999/xhtml\"><table class=\"hl7__eu__lab__report\"><tr><th>Test</th><th>06-Apr-2022</th><th>Reference&#xA0;Range</th><th>Unit</th></tr><tr><td>Odor of Urine</td></tr></table></div>"
        },
        "status": "final",
        "subject": {
          "reference": "urn:uuid:3a4fea34-2f9b-47d3-8121-cf3faf4cd3ad",
          "display": "Θεμιστοκλής Λιναρδάκη"
        },
        "effectiveDateTime": "2022-04-06T06:16:00Z",
        "specimen": {
          "reference": "urn:uuid:cd2edc04-8b10-41d5-9b41-d781532f919f"
        }
      }
    },
    {
      "fullUrl": "urn:uuid:9ab5cf9f-6c31-4431-8bdc-4cefdc717d14",
      "resource": {
        "resourceType": "Observation",
        "id": "9ab5cf9f-6c31-4431-8bdc-4cefdc717d14",
        "meta": {
          "profile": [
            "http://hl7.eu/fhir/laboratory/StructureDefinition/Observation-resultslab-eu-lab"
          ]
        },
        "performer": [
          {
            "display": "The Central European Lab"
          }
        ],
        "category": [
          {
            "coding": [
              {
                "system": "http://terminology.hl7.org/CodeSystem/observation-category",
                "code": "laboratory"
              }
            ]
          }
        ],
        "code": {
          "coding": [
            {
              "code": "32167-9",
              "system": "http://loinc.org",
              "display": "Clarity of Urine"
            }
          ],
          "text": "Clarity of Urine"
        },
        "text": {
          "status": "generated",
          "div": "<div xmlns=\"http://www.w3.org/1999/xhtml\"><table class=\"hl7__eu__lab__report\"><tr><th>Test</th><th>06-Apr-2022</th><th>Reference&#xA0;Range</th><th>Unit</th></tr><tr><td>Clarity of Urine</td></tr></table></div>"
        },
        "status": "final",
        "subject": {
          "reference": "urn:uuid:3a4fea34-2f9b-47d3-8121-cf3faf4cd3ad",
          "display": "Θεμιστοκλής Λιναρδάκη"
        },
        "effectiveDateTime": "2022-04-06T06:16:00Z",
        "specimen": {
          "reference": "urn:uuid:cd2edc04-8b10-41d5-9b41-d781532f919f"
        }
      }
    },
    {
      "fullUrl": "urn:uuid:9c83207f-02a4-4fe9-a717-f3e5e30fea81",
      "resource": {
        "resourceType": "Observation",
        "id": "9c83207f-02a4-4fe9-a717-f3e5e30fea81",
        "meta": {
          "profile": [
            "http://hl7.eu/fhir/laboratory/StructureDefinition/Observation-resultslab-eu-lab"
          ]
        },
        "performer": [
          {
            "display": "The Central European Lab"
          }
        ],
        "category": [
          {
            "coding": [
              {
                "system": "http://terminology.hl7.org/CodeSystem/observation-category",
                "code": "laboratory"
              }
            ]
          }
        ],
        "code": {
          "coding": [
            {
              "code": "5778-6",
              "system": "http://loinc.org",
              "display": "Color of Urine"
            }
          ],
          "text": "Color of Urine"
        },
        "text": {
          "status": "generated",
          "div": "<div xmlns=\"http://www.w3.org/1999/xhtml\"><table class=\"hl7__eu__lab__report\"><tr><th>Test</th><th>06-Apr-2022</th><th>Reference&#xA0;Range</th><th>Unit</th></tr><tr><td>Color of Urine</td></tr></table></div>"
        },
        "status": "final",
        "subject": {
          "reference": "urn:uuid:3a4fea34-2f9b-47d3-8121-cf3faf4cd3ad",
          "display": "Θεμιστοκλής Λιναρδάκη"
        },
        "effectiveDateTime": "2022-04-06T06:16:00Z",
        "specimen": {
          "reference": "urn:uuid:cd2edc04-8b10-41d5-9b41-d781532f919f"
        }
      }
    },
    {
      "fullUrl": "urn:uuid:aa0dcd29-9020-4b61-9ad0-d8a45ad24a86",
      "resource": {
        "resourceType": "Observation",
        "id": "aa0dcd29-9020-4b61-9ad0-d8a45ad24a86",
        "meta": {
          "profile": [
            "http://hl7.eu/fhir/laboratory/StructureDefinition/Observation-resultslab-eu-lab"
          ]
        },
        "performer": [
          {
            "display": "The Central European Lab"
          }
        ],
        "category": [
          {
            "coding": [
              {
                "system": "http://terminology.hl7.org/CodeSystem/observation-category",
                "code": "laboratory"
              }
            ]
          }
        ],
        "code": {
          "coding": [
            {
              "code": "5792-7",
              "system": "http://loinc.org",
              "display": "Glucose [Mass/volume] in Urine by Test strip"
            }
          ],
          "text": "Glucose [Mass/volume] in Urine by Test strip"
        },
        "valueQuantity": {
          "system": "http://unitsofmeasure.org",
          "value": 0.9,
          "unit": "mg/dL",
          "code": "mg/dL"
        },
        "referenceRange": [
          {
            "low": {
              "value": 0,
              "code": "mg/dL",
              "system": "http://unitsofmeasure.org"
            }
          },
          {
            "high": {
              "value": 0.8,
              "code": "mg/dL",
              "system": "http://unitsofmeasure.org"
            }
          }
        ],
        "interpretation": [
          {
            "coding": [
              {
                "code": "H",
                "system": "http://terminology.hl7.org/CodeSystem/v3-ObservationInterpretation",
                "display": "High"
              }
            ]
          }
        ],
        "text": {
          "status": "generated",
          "div": "<div xmlns=\"http://www.w3.org/1999/xhtml\"><table class=\"hl7__eu__lab__report\"><tr><th>Test</th><th>06-Apr-2022</th><th>Reference&#xA0;Range</th><th>Unit</th></tr><tr><td>Glucose [Mass/volume] in Urine by Test strip</td><td>0.9</td><td>0 - 0.8</td><td>H</td><td>mg/dL</td></tr></table></div>"
        },
        "status": "final",
        "subject": {
          "reference": "urn:uuid:3a4fea34-2f9b-47d3-8121-cf3faf4cd3ad",
          "display": "Θεμιστοκλής Λιναρδάκη"
        },
        "effectiveDateTime": "2022-04-06T06:16:00Z",
        "specimen": {
          "reference": "urn:uuid:cd2edc04-8b10-41d5-9b41-d781532f919f"
        }
      }
    },
    {
      "fullUrl": "urn:uuid:6d8d909f-644e-4881-9d8a-e28ab7d20bf1",
      "resource": {
        "resourceType": "Observation",
        "id": "6d8d909f-644e-4881-9d8a-e28ab7d20bf1",
        "meta": {
          "profile": [
            "http://hl7.eu/fhir/laboratory/StructureDefinition/Observation-resultslab-eu-lab"
          ]
        },
        "performer": [
          {
            "display": "The Central European Lab"
          }
        ],
        "category": [
          {
            "coding": [
              {
                "system": "http://terminology.hl7.org/CodeSystem/observation-category",
                "code": "laboratory"
              }
            ]
          }
        ],
        "code": {
          "coding": [
            {
              "code": "25428-4",
              "system": "http://loinc.org",
              "display": "Glucose [Presence] in Urine by Test strip"
            }
          ],
          "text": "Glucose [Presence] in Urine by Test strip"
        },
        "text": {
          "status": "generated",
          "div": "<div xmlns=\"http://www.w3.org/1999/xhtml\"><table class=\"hl7__eu__lab__report\"><tr><th>Test</th><th>06-Apr-2022</th><th>Reference&#xA0;Range</th><th>Unit</th></tr><tr><td>Glucose [Presence] in Urine by Test strip</td></tr></table></div>"
        },
        "status": "final",
        "subject": {
          "reference": "urn:uuid:3a4fea34-2f9b-47d3-8121-cf3faf4cd3ad",
          "display": "Θεμιστοκλής Λιναρδάκη"
        },
        "effectiveDateTime": "2022-04-06T06:16:00Z",
        "specimen": {
          "reference": "urn:uuid:cd2edc04-8b10-41d5-9b41-d781532f919f"
        }
      }
    },
    {
      "fullUrl": "urn:uuid:e7254e2d-61c6-41b5-a6bc-54bdf56459fe",
      "resource": {
        "resourceType": "Observation",
        "id": "e7254e2d-61c6-41b5-a6bc-54bdf56459fe",
        "meta": {
          "profile": [
            "http://hl7.eu/fhir/laboratory/StructureDefinition/Observation-resultslab-eu-lab"
          ]
        },
        "performer": [
          {
            "display": "The Central European Lab"
          }
        ],
        "category": [
          {
            "coding": [
              {
                "system": "http://terminology.hl7.org/CodeSystem/observation-category",
                "code": "laboratory"
              }
            ]
          }
        ],
        "code": {
          "coding": [
            {
              "code": "20505-4",
              "system": "http://loinc.org",
              "display": "Bilirubin.total [Mass/volume] in Urine by Test strip"
            }
          ],
          "text": "Bilirubin.total [Mass/volume] in Urine by Test strip"
        },
        "valueQuantity": {
          "system": "http://unitsofmeasure.org",
          "value": 0.6,
          "unit": "mg/dL",
          "code": "mg/dL"
        },
        "referenceRange": [
          {
            "low": {
              "value": 0.2,
              "code": "mg/dL",
              "system": "http://unitsofmeasure.org"
            }
          },
          {
            "high": {
              "value": 1,
              "code": "mg/dL",
              "system": "http://unitsofmeasure.org"
            }
          }
        ],
        "text": {
          "status": "generated",
          "div": "<div xmlns=\"http://www.w3.org/1999/xhtml\"><table class=\"hl7__eu__lab__report\"><tr><th>Test</th><th>06-Apr-2022</th><th>Reference&#xA0;Range</th><th>Unit</th></tr><tr><td>Bilirubin.total [Mass/volume] in Urine by Test strip</td><td>0.6</td><td>0.2 - 1</td><td></td><td>mg/dL</td></tr></table></div>"
        },
        "status": "final",
        "subject": {
          "reference": "urn:uuid:3a4fea34-2f9b-47d3-8121-cf3faf4cd3ad",
          "display": "Θεμιστοκλής Λιναρδάκη"
        },
        "effectiveDateTime": "2022-04-06T06:16:00Z",
        "specimen": {
          "reference": "urn:uuid:cd2edc04-8b10-41d5-9b41-d781532f919f"
        }
      }
    },
    {
      "fullUrl": "urn:uuid:2296e32d-d7d1-4931-9364-819040ecebc9",
      "resource": {
        "resourceType": "Observation",
        "id": "2296e32d-d7d1-4931-9364-819040ecebc9",
        "meta": {
          "profile": [
            "http://hl7.eu/fhir/laboratory/StructureDefinition/Observation-resultslab-eu-lab"
          ]
        },
        "performer": [
          {
            "display": "The Central European Lab"
          }
        ],
        "category": [
          {
            "coding": [
              {
                "system": "http://terminology.hl7.org/CodeSystem/observation-category",
                "code": "laboratory"
              }
            ]
          }
        ],
        "code": {
          "coding": [
            {
              "code": "5770-3",
              "system": "http://loinc.org",
              "display": "Bilirubin.total [Presence] in Urine by Test strip"
            }
          ],
          "text": "Bilirubin.total [Presence] in Urine by Test strip"
        },
        "text": {
          "status": "generated",
          "div": "<div xmlns=\"http://www.w3.org/1999/xhtml\"><table class=\"hl7__eu__lab__report\"><tr><th>Test</th><th>06-Apr-2022</th><th>Reference&#xA0;Range</th><th>Unit</th></tr><tr><td>Bilirubin.total [Presence] in Urine by Test strip</td></tr></table></div>"
        },
        "status": "final",
        "subject": {
          "reference": "urn:uuid:3a4fea34-2f9b-47d3-8121-cf3faf4cd3ad",
          "display": "Θεμιστοκλής Λιναρδάκη"
        },
        "effectiveDateTime": "2022-04-06T06:16:00Z",
        "specimen": {
          "reference": "urn:uuid:cd2edc04-8b10-41d5-9b41-d781532f919f"
        }
      }
    },
    {
      "fullUrl": "urn:uuid:bde57e29-6f31-48bc-bb52-e078b1730f7e",
      "resource": {
        "resourceType": "Observation",
        "id": "bde57e29-6f31-48bc-bb52-e078b1730f7e",
        "meta": {
          "profile": [
            "http://hl7.eu/fhir/laboratory/StructureDefinition/Observation-resultslab-eu-lab"
          ]
        },
        "performer": [
          {
            "display": "The Central European Lab"
          }
        ],
        "category": [
          {
            "coding": [
              {
                "system": "http://terminology.hl7.org/CodeSystem/observation-category",
                "code": "laboratory"
              }
            ]
          }
        ],
        "code": {
          "coding": [
            {
              "code": "5797-6",
              "system": "http://loinc.org",
              "display": "Ketones [Mass/volume] in Urine by Test strip"
            }
          ],
          "text": "Ketones [Mass/volume] in Urine by Test strip"
        },
        "valueQuantity": {
          "system": "http://unitsofmeasure.org",
          "value": 9,
          "unit": "mg/dL",
          "code": "mg/dL"
        },
        "referenceRange": [
          {
            "low": {
              "value": 0,
              "code": "mg/dL",
              "system": "http://unitsofmeasure.org"
            }
          },
          {
            "high": {
              "value": 5,
              "code": "mg/dL",
              "system": "http://unitsofmeasure.org"
            }
          }
        ],
        "interpretation": [
          {
            "coding": [
              {
                "code": "H",
                "system": "http://terminology.hl7.org/CodeSystem/v3-ObservationInterpretation",
                "display": "High"
              }
            ]
          }
        ],
        "text": {
          "status": "generated",
          "div": "<div xmlns=\"http://www.w3.org/1999/xhtml\"><table class=\"hl7__eu__lab__report\"><tr><th>Test</th><th>06-Apr-2022</th><th>Reference&#xA0;Range</th><th>Unit</th></tr><tr><td>Ketones [Mass/volume] in Urine by Test strip</td><td>9.0</td><td>0 - 5</td><td>H</td><td>mg/dL</td></tr></table></div>"
        },
        "status": "final",
        "subject": {
          "reference": "urn:uuid:3a4fea34-2f9b-47d3-8121-cf3faf4cd3ad",
          "display": "Θεμιστοκλής Λιναρδάκη"
        },
        "effectiveDateTime": "2022-04-06T06:16:00Z",
        "specimen": {
          "reference": "urn:uuid:cd2edc04-8b10-41d5-9b41-d781532f919f"
        }
      }
    },
    {
      "fullUrl": "urn:uuid:3e21fec7-95ca-4127-ac78-0432f75977ed",
      "resource": {
        "resourceType": "Observation",
        "id": "3e21fec7-95ca-4127-ac78-0432f75977ed",
        "meta": {
          "profile": [
            "http://hl7.eu/fhir/laboratory/StructureDefinition/Observation-resultslab-eu-lab"
          ]
        },
        "performer": [
          {
            "display": "The Central European Lab"
          }
        ],
        "category": [
          {
            "coding": [
              {
                "system": "http://terminology.hl7.org/CodeSystem/observation-category",
                "code": "laboratory"
              }
            ]
          }
        ],
        "code": {
          "coding": [
            {
              "code": "2514-8",
              "system": "http://loinc.org",
              "display": "Ketones [Presence] in Urine by Test strip"
            }
          ],
          "text": "Ketones [Presence] in Urine by Test strip"
        },
        "text": {
          "status": "generated",
          "div": "<div xmlns=\"http://www.w3.org/1999/xhtml\"><table class=\"hl7__eu__lab__report\"><tr><th>Test</th><th>06-Apr-2022</th><th>Reference&#xA0;Range</th><th>Unit</th></tr><tr><td>Ketones [Presence] in Urine by Test strip</td></tr></table></div>"
        },
        "status": "final",
        "subject": {
          "reference": "urn:uuid:3a4fea34-2f9b-47d3-8121-cf3faf4cd3ad",
          "display": "Θεμιστοκλής Λιναρδάκη"
        },
        "effectiveDateTime": "2022-04-06T06:16:00Z",
        "specimen": {
          "reference": "urn:uuid:cd2edc04-8b10-41d5-9b41-d781532f919f"
        }
      }
    },
    {
      "fullUrl": "urn:uuid:2a228573-517b-45a5-baea-b19ddb90690b",
      "resource": {
        "resourceType": "Observation",
        "id": "2a228573-517b-45a5-baea-b19ddb90690b",
        "meta": {
          "profile": [
            "http://hl7.eu/fhir/laboratory/StructureDefinition/Observation-resultslab-eu-lab"
          ]
        },
        "performer": [
          {
            "display": "The Central European Lab"
          }
        ],
        "category": [
          {
            "coding": [
              {
                "system": "http://terminology.hl7.org/CodeSystem/observation-category",
                "code": "laboratory"
              }
            ]
          }
        ],
        "code": {
          "coding": [
            {
              "code": "5811-5",
              "system": "http://loinc.org",
              "display": "Specific gravity of Urine by Test strip"
            }
          ],
          "text": "Specific gravity of Urine by Test strip"
        },
        "valueQuantity": {
          "system": "http://unitsofmeasure.org",
          "value": 1,
          "unit": "{nominal}",
          "code": "{nominal}"
        },
        "referenceRange": [
          {
            "low": {
              "value": 1.005,
              "code": "g/mL",
              "system": "http://unitsofmeasure.org"
            }
          },
          {
            "high": {
              "value": 1.03,
              "code": "g/mL",
              "system": "http://unitsofmeasure.org"
            }
          }
        ],
        "interpretation": [
          {
            "coding": [
              {
                "code": "L",
                "system": "http://terminology.hl7.org/CodeSystem/v3-ObservationInterpretation",
                "display": "Low"
              }
            ]
          }
        ],
        "text": {
          "status": "generated",
          "div": "<div xmlns=\"http://www.w3.org/1999/xhtml\"><table class=\"hl7__eu__lab__report\"><tr><th>Test</th><th>06-Apr-2022</th><th>Reference&#xA0;Range</th><th>Unit</th></tr><tr><td>Specific gravity of Urine by Test strip</td><td>1.0</td><td>1.005 - 1.03</td><td>L</td><td>{nominal}</td></tr></table></div>"
        },
        "status": "final",
        "subject": {
          "reference": "urn:uuid:3a4fea34-2f9b-47d3-8121-cf3faf4cd3ad",
          "display": "Θεμιστοκλής Λιναρδάκη"
        },
        "effectiveDateTime": "2022-04-06T06:16:00Z",
        "specimen": {
          "reference": "urn:uuid:cd2edc04-8b10-41d5-9b41-d781532f919f"
        }
      }
    },
    {
      "fullUrl": "urn:uuid:aed7f505-d793-4663-a56c-4b6bae8c2ff5",
      "resource": {
        "resourceType": "Observation",
        "id": "aed7f505-d793-4663-a56c-4b6bae8c2ff5",
        "meta": {
          "profile": [
            "http://hl7.eu/fhir/laboratory/StructureDefinition/Observation-resultslab-eu-lab"
          ]
        },
        "performer": [
          {
            "display": "The Central European Lab"
          }
        ],
        "category": [
          {
            "coding": [
              {
                "system": "http://terminology.hl7.org/CodeSystem/observation-category",
                "code": "laboratory"
              }
            ]
          }
        ],
        "code": {
          "coding": [
            {
              "code": "5803-2",
              "system": "http://loinc.org",
              "display": "pH of Urine by Test strip"
            }
          ],
          "text": "pH of Urine by Test strip"
        },
        "valueQuantity": {
          "system": "http://unitsofmeasure.org",
          "value": 5.6,
          "unit": "pH",
          "code": "pH"
        },
        "referenceRange": [
          {
            "low": {
              "value": 4.6,
              "code": "pH",
              "system": "http://unitsofmeasure.org"
            }
          },
          {
            "high": {
              "value": 7,
              "code": "pH",
              "system": "http://unitsofmeasure.org"
            }
          }
        ],
        "text": {
          "status": "generated",
          "div": "<div xmlns=\"http://www.w3.org/1999/xhtml\"><table class=\"hl7__eu__lab__report\"><tr><th>Test</th><th>06-Apr-2022</th><th>Reference&#xA0;Range</th><th>Unit</th></tr><tr><td>pH of Urine by Test strip</td><td>5.6</td><td>4.6 - 7</td><td></td><td>pH</td></tr></table></div>"
        },
        "status": "final",
        "subject": {
          "reference": "urn:uuid:3a4fea34-2f9b-47d3-8121-cf3faf4cd3ad",
          "display": "Θεμιστοκλής Λιναρδάκη"
        },
        "effectiveDateTime": "2022-04-06T06:16:00Z",
        "specimen": {
          "reference": "urn:uuid:cd2edc04-8b10-41d5-9b41-d781532f919f"
        }
      }
    },
    {
      "fullUrl": "urn:uuid:90702dc9-fd20-4cb5-9271-01cf6a2d8564",
      "resource": {
        "resourceType": "Observation",
        "id": "90702dc9-fd20-4cb5-9271-01cf6a2d8564",
        "meta": {
          "profile": [
            "http://hl7.eu/fhir/laboratory/StructureDefinition/Observation-resultslab-eu-lab"
          ]
        },
        "performer": [
          {
            "display": "The Central European Lab"
          }
        ],
        "category": [
          {
            "coding": [
              {
                "system": "http://terminology.hl7.org/CodeSystem/observation-category",
                "code": "laboratory"
              }
            ]
          }
        ],
        "code": {
          "coding": [
            {
              "code": "5804-0",
              "system": "http://loinc.org",
              "display": "Protein [Mass/volume] in Urine by Test strip"
            }
          ],
          "text": "Protein [Mass/volume] in Urine by Test strip"
        },
        "valueQuantity": {
          "system": "http://unitsofmeasure.org",
          "value": 347.9,
          "unit": "mg/dL",
          "code": "mg/dL"
        },
        "referenceRange": [
          {
            "low": {
              "value": 0,
              "code": "mg/dL",
              "system": "http://unitsofmeasure.org"
            }
          },
          {
            "high": {
              "value": 150,
              "code": "mg/dL",
              "system": "http://unitsofmeasure.org"
            }
          }
        ],
        "interpretation": [
          {
            "coding": [
              {
                "code": "H",
                "system": "http://terminology.hl7.org/CodeSystem/v3-ObservationInterpretation",
                "display": "High"
              }
            ]
          }
        ],
        "text": {
          "status": "generated",
          "div": "<div xmlns=\"http://www.w3.org/1999/xhtml\"><table class=\"hl7__eu__lab__report\"><tr><th>Test</th><th>06-Apr-2022</th><th>Reference&#xA0;Range</th><th>Unit</th></tr><tr><td>Protein [Mass/volume] in Urine by Test strip</td><td>347.9</td><td>0 - 150</td><td>H</td><td>mg/dL</td></tr></table></div>"
        },
        "status": "final",
        "subject": {
          "reference": "urn:uuid:3a4fea34-2f9b-47d3-8121-cf3faf4cd3ad",
          "display": "Θεμιστοκλής Λιναρδάκη"
        },
        "effectiveDateTime": "2022-04-06T06:16:00Z",
        "specimen": {
          "reference": "urn:uuid:cd2edc04-8b10-41d5-9b41-d781532f919f"
        }
      }
    },
    {
      "fullUrl": "urn:uuid:28c0529b-6653-42e3-acdc-84749558efa9",
      "resource": {
        "resourceType": "Observation",
        "id": "28c0529b-6653-42e3-acdc-84749558efa9",
        "meta": {
          "profile": [
            "http://hl7.eu/fhir/laboratory/StructureDefinition/Observation-resultslab-eu-lab"
          ]
        },
        "performer": [
          {
            "display": "The Central European Lab"
          }
        ],
        "category": [
          {
            "coding": [
              {
                "system": "http://terminology.hl7.org/CodeSystem/observation-category",
                "code": "laboratory"
              }
            ]
          }
        ],
        "code": {
          "coding": [
            {
              "code": "20454-5",
              "system": "http://loinc.org",
              "display": "Protein [Presence] in Urine by Test strip"
            }
          ],
          "text": "Protein [Presence] in Urine by Test strip"
        },
        "text": {
          "status": "generated",
          "div": "<div xmlns=\"http://www.w3.org/1999/xhtml\"><table class=\"hl7__eu__lab__report\"><tr><th>Test</th><th>06-Apr-2022</th><th>Reference&#xA0;Range</th><th>Unit</th></tr><tr><td>Protein [Presence] in Urine by Test strip</td></tr></table></div>"
        },
        "status": "final",
        "subject": {
          "reference": "urn:uuid:3a4fea34-2f9b-47d3-8121-cf3faf4cd3ad",
          "display": "Θεμιστοκλής Λιναρδάκη"
        },
        "effectiveDateTime": "2022-04-06T06:16:00Z",
        "specimen": {
          "reference": "urn:uuid:cd2edc04-8b10-41d5-9b41-d781532f919f"
        }
      }
    },
    {
      "fullUrl": "urn:uuid:ebf7e17b-5a5d-4e8a-94a7-5b3eb318c68b",
      "resource": {
        "resourceType": "Observation",
        "id": "ebf7e17b-5a5d-4e8a-94a7-5b3eb318c68b",
        "meta": {
          "profile": [
            "http://hl7.eu/fhir/laboratory/StructureDefinition/Observation-resultslab-eu-lab"
          ]
        },
        "performer": [
          {
            "display": "The Central European Lab"
          }
        ],
        "category": [
          {
            "coding": [
              {
                "system": "http://terminology.hl7.org/CodeSystem/observation-category",
                "code": "laboratory"
              }
            ]
          }
        ],
        "code": {
          "coding": [
            {
              "code": "5802-4",
              "system": "http://loinc.org",
              "display": "Nitrite [Presence] in Urine by Test strip"
            }
          ],
          "text": "Nitrite [Presence] in Urine by Test strip"
        },
        "text": {
          "status": "generated",
          "div": "<div xmlns=\"http://www.w3.org/1999/xhtml\"><table class=\"hl7__eu__lab__report\"><tr><th>Test</th><th>06-Apr-2022</th><th>Reference&#xA0;Range</th><th>Unit</th></tr><tr><td>Nitrite [Presence] in Urine by Test strip</td></tr></table></div>"
        },
        "status": "final",
        "subject": {
          "reference": "urn:uuid:3a4fea34-2f9b-47d3-8121-cf3faf4cd3ad",
          "display": "Θεμιστοκλής Λιναρδάκη"
        },
        "effectiveDateTime": "2022-04-06T06:16:00Z",
        "specimen": {
          "reference": "urn:uuid:cd2edc04-8b10-41d5-9b41-d781532f919f"
        }
      }
    },
    {
      "fullUrl": "urn:uuid:d040ce7c-a0c4-4bec-8eee-71705b5bf825",
      "resource": {
        "resourceType": "Observation",
        "id": "d040ce7c-a0c4-4bec-8eee-71705b5bf825",
        "meta": {
          "profile": [
            "http://hl7.eu/fhir/laboratory/StructureDefinition/Observation-resultslab-eu-lab"
          ]
        },
        "performer": [
          {
            "display": "The Central European Lab"
          }
        ],
        "category": [
          {
            "coding": [
              {
                "system": "http://terminology.hl7.org/CodeSystem/observation-category",
                "code": "laboratory"
              }
            ]
          }
        ],
        "code": {
          "coding": [
            {
              "code": "5794-3",
              "system": "http://loinc.org",
              "display": "Hemoglobin [Presence] in Urine by Test strip"
            }
          ],
          "text": "Hemoglobin [Presence] in Urine by Test strip"
        },
        "text": {
          "status": "generated",
          "div": "<div xmlns=\"http://www.w3.org/1999/xhtml\"><table class=\"hl7__eu__lab__report\"><tr><th>Test</th><th>06-Apr-2022</th><th>Reference&#xA0;Range</th><th>Unit</th></tr><tr><td>Hemoglobin [Presence] in Urine by Test strip</td></tr></table></div>"
        },
        "status": "final",
        "subject": {
          "reference": "urn:uuid:3a4fea34-2f9b-47d3-8121-cf3faf4cd3ad",
          "display": "Θεμιστοκλής Λιναρδάκη"
        },
        "effectiveDateTime": "2022-04-06T06:16:00Z",
        "specimen": {
          "reference": "urn:uuid:cd2edc04-8b10-41d5-9b41-d781532f919f"
        }
      }
    },
    {
      "fullUrl": "urn:uuid:9d0af21c-922c-40bd-8ff8-a9e97076dfef",
      "resource": {
        "resourceType": "Observation",
        "id": "9d0af21c-922c-40bd-8ff8-a9e97076dfef",
        "meta": {
          "profile": [
            "http://hl7.eu/fhir/laboratory/StructureDefinition/Observation-resultslab-eu-lab"
          ]
        },
        "performer": [
          {
            "display": "The Central European Lab"
          }
        ],
        "category": [
          {
            "coding": [
              {
                "system": "http://terminology.hl7.org/CodeSystem/observation-category",
                "code": "laboratory"
              }
            ]
          }
        ],
        "code": {
          "coding": [
            {
              "code": "5799-2",
              "system": "http://loinc.org",
              "display": "Leukocyte esterase [Presence] in Urine by Test strip"
            }
          ],
          "text": "Leukocyte esterase [Presence] in Urine by Test strip"
        },
        "text": {
          "status": "generated",
          "div": "<div xmlns=\"http://www.w3.org/1999/xhtml\"><table class=\"hl7__eu__lab__report\"><tr><th>Test</th><th>06-Apr-2022</th><th>Reference&#xA0;Range</th><th>Unit</th></tr><tr><td>Leukocyte esterase [Presence] in Urine by Test strip</td></tr></table></div>"
        },
        "status": "final",
        "subject": {
          "reference": "urn:uuid:3a4fea34-2f9b-47d3-8121-cf3faf4cd3ad",
          "display": "Θεμιστοκλής Λιναρδάκη"
        },
        "effectiveDateTime": "2022-04-06T06:16:00Z",
        "specimen": {
          "reference": "urn:uuid:cd2edc04-8b10-41d5-9b41-d781532f919f"
        }
      }
    },
    {
      "fullUrl": "urn:uuid:09fb1271-46aa-46c4-8f7f-578d282dd838",
      "resource": {
        "resourceType": "Observation",
        "id": "09fb1271-46aa-46c4-8f7f-578d282dd838",
        "meta": {
          "profile": [
            "http://hl7.eu/fhir/laboratory/StructureDefinition/Observation-resultslab-eu-lab"
          ]
        },
        "performer": [
          {
            "display": "The Central European Lab"
          }
        ],
        "category": [
          {
            "coding": [
              {
                "system": "http://terminology.hl7.org/CodeSystem/observation-category",
                "code": "laboratory"
              }
            ]
          }
        ],
        "code": {
          "coding": [
            {
              "code": "4548-4",
              "system": "http://loinc.org",
              "display": "Hemoglobin A1c/Hemoglobin.total in Blood"
            }
          ],
          "text": "Hemoglobin A1c/Hemoglobin.total in Blood"
        },
        "valueQuantity": {
          "system": "http://unitsofmeasure.org",
          "value": 2.9,
          "unit": "%",
          "code": "%"
        },
        "referenceRange": [
          {
            "low": {
              "value": 4.3,
              "code": "%",
              "system": "http://unitsofmeasure.org"
            }
          },
          {
            "high": {
              "value": 6.4,
              "code": "%",
              "system": "http://unitsofmeasure.org"
            }
          }
        ],
        "interpretation": [
          {
            "coding": [
              {
                "code": "L",
                "system": "http://terminology.hl7.org/CodeSystem/v3-ObservationInterpretation",
                "display": "Low"
              }
            ]
          }
        ],
        "text": {
          "status": "generated",
          "div": "<div xmlns=\"http://www.w3.org/1999/xhtml\"><table class=\"hl7__eu__lab__report\"><tr><th>Test</th><th>06-Apr-2022</th><th>Reference&#xA0;Range</th><th>Unit</th></tr><tr><td>Hemoglobin A1c/Hemoglobin.total in Blood</td><td>2.9</td><td>4.3 - 6.4</td><td>L</td><td>%</td></tr></table></div>"
        },
        "status": "final",
        "subject": {
          "reference": "urn:uuid:3a4fea34-2f9b-47d3-8121-cf3faf4cd3ad",
          "display": "Θεμιστοκλής Λιναρδάκη"
        },
        "effectiveDateTime": "2022-04-06T06:16:00Z",
        "specimen": {
          "reference": "urn:uuid:ffc11427-3f0d-4bf8-a273-c2b3c0ab311e"
        }
      }
    },
    {
      "fullUrl": "urn:uuid:85447738-3169-4b7e-a5ee-cde9023ec4bb",
      "resource": {
        "resourceType": "Observation",
        "id": "85447738-3169-4b7e-a5ee-cde9023ec4bb",
        "meta": {
          "profile": [
            "http://hl7.eu/fhir/laboratory/StructureDefinition/Observation-resultslab-eu-lab"
          ]
        },
        "performer": [
          {
            "display": "The Central European Lab"
          }
        ],
        "category": [
          {
            "coding": [
              {
                "system": "http://terminology.hl7.org/CodeSystem/observation-category",
                "code": "laboratory"
              }
            ]
          }
        ],
        "code": {
          "coding": [
            {
              "code": "2339-0",
              "system": "http://loinc.org",
              "display": "Glucose [Mass/volume] in Blood"
            }
          ],
          "text": "Glucose [Mass/volume] in Blood"
        },
        "valueQuantity": {
          "system": "http://unitsofmeasure.org",
          "value": 89.2,
          "unit": "mg/dL",
          "code": "mg/dL"
        },
        "referenceRange": [
          {
            "low": {
              "value": 70,
              "code": "mg/dL",
              "system": "http://unitsofmeasure.org"
            }
          },
          {
            "high": {
              "value": 140,
              "code": "mg/dL",
              "system": "http://unitsofmeasure.org"
            }
          }
        ],
        "text": {
          "status": "generated",
          "div": "<div xmlns=\"http://www.w3.org/1999/xhtml\"><table class=\"hl7__eu__lab__report\"><tr><th>Test</th><th>06-Apr-2022</th><th>Reference&#xA0;Range</th><th>Unit</th></tr><tr><td>Glucose [Mass/volume] in Blood</td><td>89.2</td><td>70 - 140</td><td></td><td>mg/dL</td></tr></table></div>"
        },
        "status": "final",
        "subject": {
          "reference": "urn:uuid:3a4fea34-2f9b-47d3-8121-cf3faf4cd3ad",
          "display": "Θεμιστοκλής Λιναρδάκη"
        },
        "effectiveDateTime": "2022-04-06T06:16:00Z",
        "specimen": {
          "reference": "urn:uuid:ffc11427-3f0d-4bf8-a273-c2b3c0ab311e"
        }
      }
    },
    {
      "fullUrl": "urn:uuid:335df937-68b0-4fc9-b46a-5eecc7cb9597",
      "resource": {
        "resourceType": "Observation",
        "id": "335df937-68b0-4fc9-b46a-5eecc7cb9597",
        "meta": {
          "profile": [
            "http://hl7.eu/fhir/laboratory/StructureDefinition/Observation-resultslab-eu-lab"
          ]
        },
        "performer": [
          {
            "display": "The Central European Lab"
          }
        ],
        "category": [
          {
            "coding": [
              {
                "system": "http://terminology.hl7.org/CodeSystem/observation-category",
                "code": "laboratory"
              }
            ]
          }
        ],
        "code": {
          "coding": [
            {
              "code": "6299-2",
              "system": "http://loinc.org",
              "display": "Urea nitrogen [Mass/volume] in Blood"
            }
          ],
          "text": "Urea nitrogen [Mass/volume] in Blood"
        },
        "valueQuantity": {
          "system": "http://unitsofmeasure.org",
          "value": 13.6,
          "unit": "mg/dL",
          "code": "mg/dL"
        },
        "referenceRange": [
          {
            "low": {
              "value": 7,
              "code": "mg/dL",
              "system": "http://unitsofmeasure.org"
            }
          },
          {
            "high": {
              "value": 20,
              "code": "mg/dL",
              "system": "http://unitsofmeasure.org"
            }
          }
        ],
        "text": {
          "status": "generated",
          "div": "<div xmlns=\"http://www.w3.org/1999/xhtml\"><table class=\"hl7__eu__lab__report\"><tr><th>Test</th><th>06-Apr-2022</th><th>Reference&#xA0;Range</th><th>Unit</th></tr><tr><td>Urea nitrogen [Mass/volume] in Blood</td><td>13.6</td><td>7 - 20</td><td></td><td>mg/dL</td></tr></table></div>"
        },
        "status": "final",
        "subject": {
          "reference": "urn:uuid:3a4fea34-2f9b-47d3-8121-cf3faf4cd3ad",
          "display": "Θεμιστοκλής Λιναρδάκη"
        },
        "effectiveDateTime": "2022-04-06T06:16:00Z",
        "specimen": {
          "reference": "urn:uuid:ffc11427-3f0d-4bf8-a273-c2b3c0ab311e"
        }
      }
    },
    {
      "fullUrl": "urn:uuid:eff9a814-0ac8-46a6-90e3-8057f65520ce",
      "resource": {
        "resourceType": "Observation",
        "id": "eff9a814-0ac8-46a6-90e3-8057f65520ce",
        "meta": {
          "profile": [
            "http://hl7.eu/fhir/laboratory/StructureDefinition/Observation-resultslab-eu-lab"
          ]
        },
        "performer": [
          {
            "display": "The Central European Lab"
          }
        ],
        "category": [
          {
            "coding": [
              {
                "system": "http://terminology.hl7.org/CodeSystem/observation-category",
                "code": "laboratory"
              }
            ]
          }
        ],
        "code": {
          "coding": [
            {
              "code": "38483-4",
              "system": "http://loinc.org",
              "display": "Creatinine [Mass/volume] in Blood"
            }
          ],
          "text": "Creatinine [Mass/volume] in Blood"
        },
        "valueQuantity": {
          "system": "http://unitsofmeasure.org",
          "value": 5.3,
          "unit": "mg/dL",
          "code": "mg/dL"
        },
        "referenceRange": [
          {
            "low": {
              "value": 0.6,
              "code": "mg/dL",
              "system": "http://unitsofmeasure.org"
            }
          },
          {
            "high": {
              "value": 1.3,
              "code": "mg/dL",
              "system": "http://unitsofmeasure.org"
            }
          }
        ],
        "interpretation": [
          {
            "coding": [
              {
                "code": "H",
                "system": "http://terminology.hl7.org/CodeSystem/v3-ObservationInterpretation",
                "display": "High"
              }
            ]
          }
        ],
        "text": {
          "status": "generated",
          "div": "<div xmlns=\"http://www.w3.org/1999/xhtml\"><table class=\"hl7__eu__lab__report\"><tr><th>Test</th><th>06-Apr-2022</th><th>Reference&#xA0;Range</th><th>Unit</th></tr><tr><td>Creatinine [Mass/volume] in Blood</td><td>5.3</td><td>0.6 - 1.3</td><td>H</td><td>mg/dL</td></tr></table></div>"
        },
        "status": "final",
        "subject": {
          "reference": "urn:uuid:3a4fea34-2f9b-47d3-8121-cf3faf4cd3ad",
          "display": "Θεμιστοκλής Λιναρδάκη"
        },
        "effectiveDateTime": "2022-04-06T06:16:00Z",
        "specimen": {
          "reference": "urn:uuid:ffc11427-3f0d-4bf8-a273-c2b3c0ab311e"
        }
      }
    },
    {
      "fullUrl": "urn:uuid:1f805cdf-35e8-4a17-a8e5-4eb793ee9586",
      "resource": {
        "resourceType": "Observation",
        "id": "1f805cdf-35e8-4a17-a8e5-4eb793ee9586",
        "meta": {
          "profile": [
            "http://hl7.eu/fhir/laboratory/StructureDefinition/Observation-resultslab-eu-lab"
          ]
        },
        "performer": [
          {
            "display": "The Central European Lab"
          }
        ],
        "category": [
          {
            "coding": [
              {
                "system": "http://terminology.hl7.org/CodeSystem/observation-category",
                "code": "laboratory"
              }
            ]
          }
        ],
        "code": {
          "coding": [
            {
              "code": "49765-1",
              "system": "http://loinc.org",
              "display": "Calcium [Mass/volume] in Blood"
            }
          ],
          "text": "Calcium [Mass/volume] in Blood"
        },
        "valueQuantity": {
          "system": "http://unitsofmeasure.org",
          "value": 10,
          "unit": "mg/dL",
          "code": "mg/dL"
        },
        "referenceRange": [
          {
            "low": {
              "value": 8.5,
              "code": "mg/dL",
              "system": "http://unitsofmeasure.org"
            }
          },
          {
            "high": {
              "value": 10.5,
              "code": "mg/dL",
              "system": "http://unitsofmeasure.org"
            }
          }
        ],
        "text": {
          "status": "generated",
          "div": "<div xmlns=\"http://www.w3.org/1999/xhtml\"><table class=\"hl7__eu__lab__report\"><tr><th>Test</th><th>06-Apr-2022</th><th>Reference&#xA0;Range</th><th>Unit</th></tr><tr><td>Calcium [Mass/volume] in Blood</td><td>10.0</td><td>8.5 - 10.5</td><td></td><td>mg/dL</td></tr></table></div>"
        },
        "status": "final",
        "subject": {
          "reference": "urn:uuid:3a4fea34-2f9b-47d3-8121-cf3faf4cd3ad",
          "display": "Θεμιστοκλής Λιναρδάκη"
        },
        "effectiveDateTime": "2022-04-06T06:16:00Z",
        "specimen": {
          "reference": "urn:uuid:ffc11427-3f0d-4bf8-a273-c2b3c0ab311e"
        }
      }
    },
    {
      "fullUrl": "urn:uuid:ac8ec82e-bcc2-4006-9886-4930adc968bc",
      "resource": {
        "resourceType": "Observation",
        "id": "ac8ec82e-bcc2-4006-9886-4930adc968bc",
        "meta": {
          "profile": [
            "http://hl7.eu/fhir/laboratory/StructureDefinition/Observation-resultslab-eu-lab"
          ]
        },
        "performer": [
          {
            "display": "The Central European Lab"
          }
        ],
        "category": [
          {
            "coding": [
              {
                "system": "http://terminology.hl7.org/CodeSystem/observation-category",
                "code": "laboratory"
              }
            ]
          }
        ],
        "code": {
          "coding": [
            {
              "code": "2947-0",
              "system": "http://loinc.org",
              "display": "Sodium [Moles/volume] in Blood"
            }
          ],
          "text": "Sodium [Moles/volume] in Blood"
        },
        "valueQuantity": {
          "system": "http://unitsofmeasure.org",
          "value": 143.9,
          "unit": "mmol/L",
          "code": "mmol/L"
        },
        "referenceRange": [
          {
            "low": {
              "value": 135,
              "code": "mmol/L",
              "system": "http://unitsofmeasure.org"
            }
          },
          {
            "high": {
              "value": 145,
              "code": "mmol/L",
              "system": "http://unitsofmeasure.org"
            }
          }
        ],
        "text": {
          "status": "generated",
          "div": "<div xmlns=\"http://www.w3.org/1999/xhtml\"><table class=\"hl7__eu__lab__report\"><tr><th>Test</th><th>06-Apr-2022</th><th>Reference&#xA0;Range</th><th>Unit</th></tr><tr><td>Sodium [Moles/volume] in Blood</td><td>143.9</td><td>135 - 145</td><td></td><td>mmol/L</td></tr></table></div>"
        },
        "status": "final",
        "subject": {
          "reference": "urn:uuid:3a4fea34-2f9b-47d3-8121-cf3faf4cd3ad",
          "display": "Θεμιστοκλής Λιναρδάκη"
        },
        "effectiveDateTime": "2022-04-06T06:16:00Z",
        "specimen": {
          "reference": "urn:uuid:ffc11427-3f0d-4bf8-a273-c2b3c0ab311e"
        }
      }
    },
    {
      "fullUrl": "urn:uuid:6c99db7e-0e2a-41c0-9709-9818557820c5",
      "resource": {
        "resourceType": "Observation",
        "id": "6c99db7e-0e2a-41c0-9709-9818557820c5",
        "meta": {
          "profile": [
            "http://hl7.eu/fhir/laboratory/StructureDefinition/Observation-resultslab-eu-lab"
          ]
        },
        "performer": [
          {
            "display": "The Central European Lab"
          }
        ],
        "category": [
          {
            "coding": [
              {
                "system": "http://terminology.hl7.org/CodeSystem/observation-category",
                "code": "laboratory"
              }
            ]
          }
        ],
        "code": {
          "coding": [
            {
              "code": "6298-4",
              "system": "http://loinc.org",
              "display": "Potassium [Moles/volume] in Blood"
            }
          ],
          "text": "Potassium [Moles/volume] in Blood"
        },
        "valueQuantity": {
          "system": "http://unitsofmeasure.org",
          "value": 4.2,
          "unit": "mmol/L",
          "code": "mmol/L"
        },
        "referenceRange": [
          {
            "low": {
              "value": 3.5,
              "code": "mmol/L",
              "system": "http://unitsofmeasure.org"
            }
          },
          {
            "high": {
              "value": 5.3,
              "code": "mmol/L",
              "system": "http://unitsofmeasure.org"
            }
          }
        ],
        "text": {
          "status": "generated",
          "div": "<div xmlns=\"http://www.w3.org/1999/xhtml\"><table class=\"hl7__eu__lab__report\"><tr><th>Test</th><th>06-Apr-2022</th><th>Reference&#xA0;Range</th><th>Unit</th></tr><tr><td>Potassium [Moles/volume] in Blood</td><td>4.2</td><td>3.5 - 5.3</td><td></td><td>mmol/L</td></tr></table></div>"
        },
        "status": "final",
        "subject": {
          "reference": "urn:uuid:3a4fea34-2f9b-47d3-8121-cf3faf4cd3ad",
          "display": "Θεμιστοκλής Λιναρδάκη"
        },
        "effectiveDateTime": "2022-04-06T06:16:00Z",
        "specimen": {
          "reference": "urn:uuid:ffc11427-3f0d-4bf8-a273-c2b3c0ab311e"
        }
      }
    },
    {
      "fullUrl": "urn:uuid:4359e848-1441-40c7-83ca-1dd9bd20aa2c",
      "resource": {
        "resourceType": "Observation",
        "id": "4359e848-1441-40c7-83ca-1dd9bd20aa2c",
        "meta": {
          "profile": [
            "http://hl7.eu/fhir/laboratory/StructureDefinition/Observation-resultslab-eu-lab"
          ]
        },
        "performer": [
          {
            "display": "The Central European Lab"
          }
        ],
        "category": [
          {
            "coding": [
              {
                "system": "http://terminology.hl7.org/CodeSystem/observation-category",
                "code": "laboratory"
              }
            ]
          }
        ],
        "code": {
          "coding": [
            {
              "code": "2069-3",
              "system": "http://loinc.org",
              "display": "Chloride [Moles/volume] in Blood"
            }
          ],
          "text": "Chloride [Moles/volume] in Blood"
        },
        "valueQuantity": {
          "system": "http://unitsofmeasure.org",
          "value": 103,
          "unit": "mmol/L",
          "code": "mmol/L"
        },
        "referenceRange": [
          {
            "low": {
              "value": 98,
              "code": "mmol/L",
              "system": "http://unitsofmeasure.org"
            }
          },
          {
            "high": {
              "value": 110,
              "code": "mmol/L",
              "system": "http://unitsofmeasure.org"
            }
          }
        ],
        "text": {
          "status": "generated",
          "div": "<div xmlns=\"http://www.w3.org/1999/xhtml\"><table class=\"hl7__eu__lab__report\"><tr><th>Test</th><th>06-Apr-2022</th><th>Reference&#xA0;Range</th><th>Unit</th></tr><tr><td>Chloride [Moles/volume] in Blood</td><td>103.0</td><td>98 - 110</td><td></td><td>mmol/L</td></tr></table></div>"
        },
        "status": "final",
        "subject": {
          "reference": "urn:uuid:3a4fea34-2f9b-47d3-8121-cf3faf4cd3ad",
          "display": "Θεμιστοκλής Λιναρδάκη"
        },
        "effectiveDateTime": "2022-04-06T06:16:00Z",
        "specimen": {
          "reference": "urn:uuid:ffc11427-3f0d-4bf8-a273-c2b3c0ab311e"
        }
      }
    },
    {
      "fullUrl": "urn:uuid:caccba5c-44cb-43bc-a763-d99513d346f0",
      "resource": {
        "resourceType": "Observation",
        "id": "caccba5c-44cb-43bc-a763-d99513d346f0",
        "meta": {
          "profile": [
            "http://hl7.eu/fhir/laboratory/StructureDefinition/Observation-resultslab-eu-lab"
          ]
        },
        "performer": [
          {
            "display": "The Central European Lab"
          }
        ],
        "category": [
          {
            "coding": [
              {
                "system": "http://terminology.hl7.org/CodeSystem/observation-category",
                "code": "laboratory"
              }
            ]
          }
        ],
        "code": {
          "coding": [
            {
              "code": "20565-8",
              "system": "http://loinc.org",
              "display": "Carbon dioxide, total [Moles/volume] in Blood"
            }
          ],
          "text": "Carbon dioxide, total [Moles/volume] in Blood"
        },
        "valueQuantity": {
          "system": "http://unitsofmeasure.org",
          "value": 28.1,
          "unit": "mmol/L",
          "code": "mmol/L"
        },
        "referenceRange": [
          {
            "low": {
              "value": 22,
              "code": "mmol/L",
              "system": "http://unitsofmeasure.org"
            }
          },
          {
            "high": {
              "value": 29,
              "code": "mmol/L",
              "system": "http://unitsofmeasure.org"
            }
          }
        ],
        "text": {
          "status": "generated",
          "div": "<div xmlns=\"http://www.w3.org/1999/xhtml\"><table class=\"hl7__eu__lab__report\"><tr><th>Test</th><th>06-Apr-2022</th><th>Reference&#xA0;Range</th><th>Unit</th></tr><tr><td>Carbon dioxide, total [Moles/volume] in Blood</td><td>28.1</td><td>22 - 29</td><td></td><td>mmol/L</td></tr></table></div>"
        },
        "status": "final",
        "subject": {
          "reference": "urn:uuid:3a4fea34-2f9b-47d3-8121-cf3faf4cd3ad",
          "display": "Θεμιστοκλής Λιναρδάκη"
        },
        "effectiveDateTime": "2022-04-06T06:16:00Z",
        "specimen": {
          "reference": "urn:uuid:ffc11427-3f0d-4bf8-a273-c2b3c0ab311e"
        }
      }
    },
    {
      "fullUrl": "urn:uuid:8aca5073-dc30-4f6a-9ed4-57d8584f77a6",
      "resource": {
        "resourceType": "Device",
        "id": "8aca5073-dc30-4f6a-9ed4-57d8584f77a6",
        "deviceName": [
          {
            "name": "SYNDERAI Synthetic Generator",
            "type": "manufacturer-name"
          }
        ],
        "version": [
          {
            "value": "5.0"
          }
        ],
        "text": {
          "status": "generated",
          "div": "<div xmlns=\"http://www.w3.org/1999/xhtml\">SYNDERAI Synthetic Generator v5.0</div>"
        },
        "status": "active\"",
        "distinctIdentifier": "synderai-generator-50",
        "manufacturer": "SYNDERAI Project"
      }
    },
    {
      "fullUrl": "urn:uuid:53b0f7ee-dcad-4544-abcd-ada9ae550c48",
      "resource": {
        "resourceType": "Provenance",
        "id": "53b0f7ee-dcad-4544-abcd-ada9ae550c48",
        "target": [
          {
            "reference": "Patient/3a4fea34-2f9b-47d3-8121-cf3faf4cd3ad"
          },
          {
            "reference": "Bundle/953f802e-1785-480e-a56c-343698dda097"
          },
          {
            "reference": "Composition/7985ae2f-cc5d-4a14-8634-f19d67aef35c"
          },
          {
            "reference": "PractitionerRole/61e9dd01-8e3e-4e40-80ec-886712484736"
          },
          {
            "reference": "Practitioner/7f4770e4-940b-44c7-91e2-7a0c61be61c2"
          },
          {
            "reference": "PractitionerRole/0dd4eb3d-c827-41b1-9350-574f547fb495"
          },
          {
            "reference": "Organization/5c900f4e-1e91-427f-a4d0-7e1e7da472ad"
          }
        ],
        "activity": {
          "text": "Synthetic Example Data Generation"
        },
        "policy": [
          "https://synderai.net/synderai-synthetic-data-policy"
        ],
        "agent": [
          {
            "type": {
              "text": "author"
            },
            "who": {
              "reference": "Device/8aca5073-dc30-4f6a-9ed4-57d8584f77a6"
            }
          }
        ],
        "reason": [
          {
            "text": "Interoperability Testing and Training (non-clinical use)"
          }
        ],
        "text": {
          "status": "generated",
          "div": "<div xmlns=\"http://www.w3.org/1999/xhtml\">Provenance for SYNDERAI Synthetic Example Data Resource</div>"
        },
        "recorded": "2022-04-06T08:16:00Z"
      }
    },
    {
      "fullUrl": "urn:uuid:61e9dd01-8e3e-4e40-80ec-886712484736",
      "resource": {
        "resourceType": "PractitionerRole",
        "id": "61e9dd01-8e3e-4e40-80ec-886712484736",
        "meta": {
          "profile": [
            "http://hl7.eu/fhir/base/StructureDefinition/practitionerRole-eu"
          ]
        },
        "text": {
          "status": "generated",
          "div": "<div xmlns=\"http://www.w3.org/1999/xhtml\">Laboratory Role Id: 61e9dd01-8e3e-4e40-80ec-886712484736</div>"
        },
        "practitioner": {
          "reference": "urn:uuid:7f4770e4-940b-44c7-91e2-7a0c61be61c2"
        }
      }
    },
    {
      "fullUrl": "urn:uuid:7f4770e4-940b-44c7-91e2-7a0c61be61c2",
      "resource": {
        "resourceType": "Practitioner",
        "id": "7f4770e4-940b-44c7-91e2-7a0c61be61c2",
        "meta": {
          "profile": [
            "http://hl7.eu/fhir/base/StructureDefinition/practitioner-eu"
          ]
        },
        "identifier": [
          {
            "assigner": {
              "display": "HL7 Europe"
            },
            "system": "urn:oid:2.16.840.1.113883.2.51.999",
            "value": "c4b23419-f46a-49b4-b7f7-cd6333cb826a"
          }
        ],
        "name": [
          {
            "prefix": [
              "dr"
            ],
            "given": [
              "Ex"
            ],
            "family": "Ample"
          }
        ],
        "address": [
          {
            "line": [
              "Laboratoire Central Européenne",
              "Boulevard du Jardin Botanique 32"
            ],
            "postalCode": "1000",
            "city": "Brussels",
            "country": "Belgium"
          }
        ],
        "text": {
          "status": "generated",
          "div": "<div xmlns=\"http://www.w3.org/1999/xhtml\">Laboratory: Laboratoire Central Européenne, 1000 Brussels, Belgium</div>"
        }
      }
    }
  ],
  "type": "document",
  "timestamp": "2022-04-06T08:16:00Z"
}
