{
  "resourceType": "Bundle",
  "id": "8fc32732-5416-41be-88b1-77be84934fa6",
  "meta": {
    "profile": [
      "http://hl7.eu/fhir/laboratory/StructureDefinition/Bundle-eu-lab"
    ]
  },
  "identifier": {
    "assigner": {
      "display": "HL7 Europe"
    },
    "system": "urn:oid:2.16.840.1.113883.2.51.999",
    "value": "553342f6-fdf2-4836-b1f6-fcd02b1f923e"
  },
  "entry": [
    {
      "fullUrl": "urn:uuid:60470645-66ae-4402-8cb5-3922c2cd2921",
      "resource": {
        "resourceType": "Composition",
        "id": "60470645-66ae-4402-8cb5-3922c2cd2921",
        "meta": {
          "profile": [
            "http://hl7.eu/fhir/laboratory/StructureDefinition/Composition-eu-lab"
          ]
        },
        "identifier": {
          "assigner": {
            "display": "HL7 Europe"
          },
          "system": "urn:oid:2.16.840.1.113883.2.51.999",
          "value": "a17fdb96-ca55-47cc-8988-f5a1761572ef"
        },
        "author": [
          {
            "reference": "urn:uuid:82f03201-59fd-4765-bad7-84725a7275d9"
          }
        ],
        "category": [
          {
            "coding": [
              {
                "code": "26436-6",
                "system": "http://loinc.org",
                "display": "Laboratory studies (set)"
              }
            ]
          }
        ],
        "type": {
          "coding": [
            {
              "code": "11502-2",
              "system": "http://loinc.org",
              "display": "Laboratory report"
            }
          ],
          "text": "Laboratory Report"
        },
        "section": [
          {
            "code": {
              "coding": [
                {
                  "code": "26436-6",
                  "system": "http://loinc.org",
                  "display": "Laboratory studies (set)"
                }
              ],
              "text": "Laboratory studies"
            },
            "section": [
              {
                "code": {
                  "coding": [
                    {
                      "code": "$18719-5",
                      "system": "http://loinc.org",
                      "display": "Chemistry studies (set)"
                    }
                  ],
                  "text": "Chemistry"
                },
                "entry": [
                  {
                    "reference": "urn:uuid:75f2a031-897a-4468-9616-dc0e74177b03"
                  },
                  {
                    "reference": "urn:uuid:addae575-9c38-4c03-8ee0-cfc47f640c0a"
                  },
                  {
                    "reference": "urn:uuid:d4be4c5c-dd1a-4f18-a33d-d7d60d668ddb"
                  },
                  {
                    "reference": "urn:uuid:d5d1e150-43dc-4ae8-9860-d51d56acc077"
                  },
                  {
                    "reference": "urn:uuid:7add1779-cbad-46f9-86ea-2912a21a2046"
                  },
                  {
                    "reference": "urn:uuid:6e53b7df-daad-4ed9-9d3d-02e62fef52e5"
                  },
                  {
                    "reference": "urn:uuid:60cdc35a-1755-45d9-a50c-924b30228f4f"
                  },
                  {
                    "reference": "urn:uuid:5be51e2e-3d57-4cb2-aab6-f6b49362ddd3"
                  },
                  {
                    "reference": "urn:uuid:67270eb0-8090-4ec6-a1e1-c39ad17d38bd"
                  },
                  {
                    "reference": "urn:uuid:3519cb37-b2e2-45fd-a82b-0ff681a770e5"
                  },
                  {
                    "reference": "urn:uuid:bb946e56-36e9-49dc-a0bd-dabf8e98a8c6"
                  },
                  {
                    "reference": "urn:uuid:9017250d-5f2b-4a38-a09e-bf5a0ef6a060"
                  },
                  {
                    "reference": "urn:uuid:d58ad71d-ea4b-4dc0-bdd2-ccbfbf73f1bd"
                  },
                  {
                    "reference": "urn:uuid:37ca8b0c-73e9-4255-9fc8-cb524233c136"
                  },
                  {
                    "reference": "urn:uuid:7fe1ae6d-1f0d-49b7-a2aa-187de2ea9098"
                  },
                  {
                    "reference": "urn:uuid:f0cb0119-1935-4e39-8586-5fd85808a85e"
                  },
                  {
                    "reference": "urn:uuid:d169dcdd-0a7c-4910-b4ed-710082242f65"
                  },
                  {
                    "reference": "urn:uuid:c03294f3-ca13-4809-94d3-a8ef656e0ea0"
                  },
                  {
                    "reference": "urn:uuid:618d3f56-982d-4d91-9065-6c4a7cffbf02"
                  }
                ],
                "text": {
                  "status": "generated",
                  "div": "<div xmlns=\"http://www.w3.org/1999/xhtml\"><h3>Chemistry</h3><table class=\"hl7__eu__lab__report\"><thead><tr><th>Test</th><th>27-DEC-2020</th><th>Reference&#xA0;Range</th><th>Unit</th></tr></thead><tbody><tr><td>Glucose [Mass/volume] in Blood</td><td>79.3</td><td>70 - 140</td><td>mg/dL</td></tr><tr><td>Urea nitrogen [Mass/volume] in Blood</td><td>11.0</td><td>7 - 20</td><td>mg/dL</td></tr><tr><td>Creatinine [Mass/volume] in Blood</td><td><strong>3.1 H</strong></td><td>0.9 - 1.3</td><td>mg/dL</td></tr><tr><td>Calcium [Mass/volume] in Blood</td><td>9.5</td><td>8.5 - 10.5</td><td>mg/dL</td></tr><tr><td>Sodium [Moles/volume] in Blood</td><td>141.5</td><td>135 - 145</td><td>mmol/L</td></tr><tr><td>Potassium [Moles/volume] in Blood</td><td>5.1</td><td>3.5 - 5.1</td><td>mmol/L</td></tr><tr><td>Chloride [Moles/volume] in Blood</td><td>102.5</td><td>98 - 108</td><td>mmol/L</td></tr><tr><td>Carbon dioxide, total [Moles/volume] in Blood</td><td>27.2</td><td>22 - 29</td><td>mmol/L</td></tr><tr><td>Protein [Mass/volume] in Serum or Plasma</td><td>7.1</td><td>6 - 8.3</td><td>g/dL</td></tr><tr><td>Albumin [Mass/volume] in Serum or Plasma</td><td>4.9</td><td>3.5 - 5.5</td><td>g/dL</td></tr><tr><td>Globulin [Mass/volume] in Serum by calculation</td><td>2.2</td><td>2 - 3.5</td><td>g/L</td></tr><tr><td>Bilirubin.total [Mass/volume] in Serum or Plasma</td><td>0.8</td><td>0.3 - 1.2</td><td>mg/dL</td></tr><tr><td>Alkaline phosphatase [Enzymatic activity/volume] in Serum or Plasma</td><td>56.5</td><td>39 - 147</td><td>U/L</td></tr><tr><td>Alanine aminotransferase [Enzymatic activity/volume] in Serum or Plasma</td><td>44.9</td><td>10 - 63</td><td>U/L</td></tr><tr><td>Aspartate aminotransferase [Enzymatic activity/volume] in Serum or Plasma</td><td><strong>7.0 L</strong></td><td>10 - 40</td><td>U/L</td></tr><tr><td>Cholesterol [Mass/volume] in Serum or Plasma</td><td>166.8</td><td>0 - 200</td><td>mg/dL</td></tr><tr><td>Triglyceride [Mass/volume] in Serum or Plasma</td><td>114.1</td><td>0 - 199</td><td>mg/dL</td></tr><tr><td>Cholesterol in LDL [Mass/volume] in Serum or Plasma by Direct assay</td><td>122.5</td><td>0 - 130</td><td>mg/dL</td></tr><tr><td>Cholesterol in HDL [Mass/volume] in Serum or Plasma</td><td><strong>39.8 L</strong></td><td>40 - 100</td><td>mg/dL</td></tr></tbody></table></div>"
                },
                "title": "Chemistry"
              }
            ],
            "title": "Laboratory Report"
          },
          {
            "text": {
              "status": "generated",
              "div": "<div xmlns=\"http://www.w3.org/1999/xhtml\"><h3>Annotation</h3><table class=\"hl7__eu__lab__report\"><tr><th>Conclusion and Recommendations based on this report and previous findings known to us</th></tr><tr><td>Renal function is impaired as indicated by elevated creatinine. All other parameters, including glucose, electrolytes, liver enzymes, and lipids, are within or near normal limits, except for mildly low AST and HDL cholesterol. No acute metabolic derangements are evident. Recommend clinical correlation for renal insufficiency and monitoring of cardiovascular risk factors.</td></tr></table></div>"
            },
            "code": {
              "coding": [
                {
                  "system": "http://loinc.org",
                  "code": "48767-8",
                  "display": "Annotation comment"
                }
              ]
            },
            "title": "Annotation comment"
          }
        ],
        "status": "final",
        "subject": {
          "reference": "urn:uuid:07297d44-074c-4571-9c3d-5faf6f8d0b5c",
          "display": "Victor Lagarde"
        },
        "date": "2020-12-27T05:48:18Z",
        "title": "Laboratory Report",
        "confidentiality": "N"
      }
    },
    {
      "fullUrl": "urn:uuid:90f2f451-db7e-4860-9425-235d1423098a",
      "resource": {
        "resourceType": "DiagnosticReport",
        "id": "90f2f451-db7e-4860-9425-235d1423098a",
        "meta": {
          "profile": [
            "http://hl7.eu/fhir/laboratory/StructureDefinition/DiagnosticReport-eu-lab"
          ]
        },
        "identifier": [
          {
            "assigner": {
              "display": "HL7 Europe"
            },
            "system": "urn:oid:2.16.840.1.113883.2.51.999",
            "value": "77a07e68-a162-4911-8744-b8d655ce0f49"
          }
        ],
        "extension": [
          {
            "url": "http://hl7.org/fhir/5.0/StructureDefinition/extension-DiagnosticReport.composition",
            "valueReference": {
              "reference": "urn:uuid:a17fdb96-ca55-47cc-8988-f5a1761572ef"
            }
          }
        ],
        "category": [
          {
            "coding": [
              {
                "code": "26436-6",
                "system": "http://loinc.org",
                "display": "Laboratory studies (set)"
              }
            ]
          }
        ],
        "specimen": [
          {
            "reference": "urn:uuid:5f112a31-95f5-4637-b622-264cf337dfdc"
          },
          {
            "reference": "urn:uuid:0529afcb-3083-4fa1-b809-418478554939"
          },
          {
            "reference": "urn:uuid:c8261a81-9663-4b20-b6e4-e07f156cbe5a"
          }
        ],
        "result": [
          {
            "reference": "urn:uuid:75f2a031-897a-4468-9616-dc0e74177b03"
          },
          {
            "reference": "urn:uuid:addae575-9c38-4c03-8ee0-cfc47f640c0a"
          },
          {
            "reference": "urn:uuid:d4be4c5c-dd1a-4f18-a33d-d7d60d668ddb"
          },
          {
            "reference": "urn:uuid:d5d1e150-43dc-4ae8-9860-d51d56acc077"
          },
          {
            "reference": "urn:uuid:7add1779-cbad-46f9-86ea-2912a21a2046"
          },
          {
            "reference": "urn:uuid:6e53b7df-daad-4ed9-9d3d-02e62fef52e5"
          },
          {
            "reference": "urn:uuid:60cdc35a-1755-45d9-a50c-924b30228f4f"
          },
          {
            "reference": "urn:uuid:5be51e2e-3d57-4cb2-aab6-f6b49362ddd3"
          },
          {
            "reference": "urn:uuid:67270eb0-8090-4ec6-a1e1-c39ad17d38bd"
          },
          {
            "reference": "urn:uuid:3519cb37-b2e2-45fd-a82b-0ff681a770e5"
          },
          {
            "reference": "urn:uuid:bb946e56-36e9-49dc-a0bd-dabf8e98a8c6"
          },
          {
            "reference": "urn:uuid:9017250d-5f2b-4a38-a09e-bf5a0ef6a060"
          },
          {
            "reference": "urn:uuid:d58ad71d-ea4b-4dc0-bdd2-ccbfbf73f1bd"
          },
          {
            "reference": "urn:uuid:37ca8b0c-73e9-4255-9fc8-cb524233c136"
          },
          {
            "reference": "urn:uuid:7fe1ae6d-1f0d-49b7-a2aa-187de2ea9098"
          },
          {
            "reference": "urn:uuid:f0cb0119-1935-4e39-8586-5fd85808a85e"
          },
          {
            "reference": "urn:uuid:d169dcdd-0a7c-4910-b4ed-710082242f65"
          },
          {
            "reference": "urn:uuid:c03294f3-ca13-4809-94d3-a8ef656e0ea0"
          },
          {
            "reference": "urn:uuid:618d3f56-982d-4d91-9065-6c4a7cffbf02"
          }
        ],
        "status": "registered",
        "code": {
          "coding": [
            {
              "code": "11502-2",
              "system": "http://loinc.org",
              "display": "Laboratory report"
            }
          ]
        },
        "subject": {
          "reference": "urn:uuid:07297d44-074c-4571-9c3d-5faf6f8d0b5c",
          "display": "Victor Lagarde"
        }
      }
    },
    {
      "fullUrl": "urn:uuid:07297d44-074c-4571-9c3d-5faf6f8d0b5c",
      "resource": {
        "resourceType": "Patient",
        "id": "07297d44-074c-4571-9c3d-5faf6f8d0b5c",
        "meta": {
          "security": [
            {
              "system": "http://terminology.hl7.org/CodeSystem/v3-ActReason",
              "code": "HTEST"
            },
            {
              "system": "http://terminology.hl7.org/CodeSystem/v3-ActReason",
              "code": "TRAIN"
            }
          ],
          "tag": [
            {
              "system": "https://synderai.net/fhir/CodeSystem/tags",
              "code": "synthetic",
              "display": "SYNDERAI Synthetic data"
            }
          ],
          "profile": [
            "http://hl7.eu/fhir/base/StructureDefinition/patient-eu-core"
          ]
        },
        "identifier": [
          {
            "type": {
              "coding": [
                {
                  "code": "PT",
                  "system": "http://terminology.hl7.org/CodeSystem/v2-0203"
                }
              ]
            },
            "system": "http://ec.europa.eu/identifier/eci",
            "value": "9925-001801-9"
          },
          {
            "type": {
              "coding": [
                {
                  "code": "MR",
                  "system": "http://terminology.hl7.org/CodeSystem/v2-0203"
                }
              ]
            },
            "system": "http://local.setting.eu/identifier",
            "value": "22c2dfd0-ac57-8833-2532-848f180896a4"
          }
        ],
        "name": [
          {
            "family": "Lagarde"
          },
          {
            "given": [
              "Victor"
            ]
          },
          {
            "text": "Victor Lagarde"
          }
        ],
        "address": [
          {
            "line": [
              "avenue Robert"
            ],
            "use": "home",
            "type": "physical",
            "postalCode": "80300",
            "city": "Albert",
            "country": "France"
          }
        ],
        "telecom": [
          {
            "system": "phone",
            "value": "0177941801"
          }
        ],
        "extension": [
          {
            "url": "http://hl7.org/fhir/StructureDefinition/patient-nationality",
            "valueCodeableConcept": {
              "coding": [
                {
                  "code": "FR",
                  "system": "http://hl7.org/fhir/ValueSet/country"
                }
              ]
            }
          }
        ],
        "text": {
          "status": "generated",
          "div": "<div xmlns=\"http://www.w3.org/1999/xhtml\"><table class=\"hl7__ips\"><tr><td>Victor Lagarde</td><td>male</td><td>31-Aug-1939</td></tr></table></div>"
        },
        "gender": "male",
        "birthDate": "1939-08-31"
      }
    },
    {
      "fullUrl": "urn:uuid:ed7bafd6-a86a-47a3-b52b-160c73098c32",
      "resource": {
        "resourceType": "ServiceRequest",
        "id": "ed7bafd6-a86a-47a3-b52b-160c73098c32",
        "meta": {
          "profile": [
            "http://hl7.eu/fhir/laboratory/StructureDefinition/ServiceRequest-eu-lab"
          ]
        },
        "identifier": [
          {
            "system": "http://example.org",
            "value": "841c5a90-5dc3-4d0c-9c7e-7844db433a9f"
          }
        ],
        "specimen": [
          {
            "reference": "urn:uuid:5f112a31-95f5-4637-b622-264cf337dfdc"
          },
          {
            "reference": "urn:uuid:0529afcb-3083-4fa1-b809-418478554939"
          },
          {
            "reference": "urn:uuid:c8261a81-9663-4b20-b6e4-e07f156cbe5a"
          }
        ],
        "reasonCode": [
          {
            "coding": [
              {
                "code": "433144002",
                "system": "http://snomed.info/sct",
                "display": "Chronic kidney disease stage 3"
              }
            ]
          },
          {
            "coding": [
              {
                "code": "157141000119108",
                "system": "http://snomed.info/sct",
                "display": "Proteinuria due to type 2 diabetes mellitus"
              }
            ]
          },
          {
            "coding": [
              {
                "code": "431856006",
                "system": "http://snomed.info/sct",
                "display": "Chronic kidney disease stage 2"
              }
            ]
          },
          {
            "coding": [
              {
                "code": "90781000119102",
                "system": "http://snomed.info/sct",
                "display": "Microalbuminuria due to type 2 diabetes mellitus"
              }
            ]
          },
          {
            "coding": [
              {
                "code": "127013003",
                "system": "http://snomed.info/sct",
                "display": "Disorder of kidney due to diabetes mellitus"
              }
            ]
          },
          {
            "coding": [
              {
                "code": "431855005",
                "system": "http://snomed.info/sct",
                "display": "Chronic kidney disease stage 1"
              }
            ]
          },
          {
            "coding": [
              {
                "code": "55822004",
                "system": "http://snomed.info/sct",
                "display": "Hyperlipidemia"
              }
            ]
          },
          {
            "coding": [
              {
                "code": "59621000",
                "system": "http://snomed.info/sct",
                "display": "Essential hypertension"
              }
            ]
          },
          {
            "coding": [
              {
                "code": "237602007",
                "system": "http://snomed.info/sct",
                "display": "Metabolic syndrome X"
              }
            ]
          },
          {
            "coding": [
              {
                "code": "414545008",
                "system": "http://snomed.info/sct",
                "display": "Ischemic heart disease"
              }
            ]
          },
          {
            "coding": [
              {
                "code": "40055000",
                "system": "http://snomed.info/sct",
                "display": "Chronic sinusitis"
              }
            ]
          },
          {
            "coding": [
              {
                "code": "15777000",
                "system": "http://snomed.info/sct",
                "display": "Prediabetes"
              }
            ]
          },
          {
            "coding": [
              {
                "code": "271737000",
                "system": "http://snomed.info/sct",
                "display": "Anemia"
              }
            ]
          }
        ],
        "status": "active",
        "intent": "order",
        "code": {
          "coding": [
            {
              "code": "108252007",
              "system": "http://snomed.info/sct",
              "display": "Laboratory procedure"
            }
          ]
        },
        "subject": {
          "reference": "urn:uuid:07297d44-074c-4571-9c3d-5faf6f8d0b5c",
          "display": "Victor Lagarde"
        },
        "requester": {
          "reference": "urn:uuid:b4fb7dfa-4e3a-4c14-a2b4-167fa64f8b15"
        }
      }
    },
    {
      "fullUrl": "urn:uuid:b4fb7dfa-4e3a-4c14-a2b4-167fa64f8b15",
      "resource": {
        "resourceType": "PractitionerRole",
        "id": "b4fb7dfa-4e3a-4c14-a2b4-167fa64f8b15",
        "meta": {
          "profile": [
            "http://hl7.eu/fhir/base/StructureDefinition/practitionerRole-eu"
          ]
        },
        "text": {
          "status": "generated",
          "div": "<div xmlns=\"http://www.w3.org/1999/xhtml\">Provider Role Id: b4fb7dfa-4e3a-4c14-a2b4-167fa64f8b15</div>"
        },
        "organization": {
          "reference": "urn:uuid:465c377a-c55f-47a0-be19-03e0403d186c"
        }
      }
    },
    {
      "fullUrl": "urn:uuid:465c377a-c55f-47a0-be19-03e0403d186c",
      "resource": {
        "resourceType": "Organization",
        "id": "465c377a-c55f-47a0-be19-03e0403d186c",
        "meta": {
          "profile": [
            "http://hl7.eu/fhir/base/StructureDefinition/organization-eu"
          ]
        },
        "identifier": [
          {
            "assigner": {
              "display": "HL7 Europe"
            },
            "system": "urn:oid:2.16.840.1.113883.2.51.999",
            "value": "6235dd4c-fbb3-4a81-94f8-cae4def4f820"
          }
        ],
        "address": [
          {
            "city": "Auxerre",
            "postalCode": "89000",
            "country": "France"
          }
        ],
        "text": {
          "status": "generated",
          "div": "<div xmlns=\"http://www.w3.org/1999/xhtml\">Provider Organization: Thiriot Didier (Cardiologie)</div>"
        },
        "name": "Thiriot Didier (Cardiologie)"
      }
    },
    {
      "fullUrl": "urn:uuid:5f112a31-95f5-4637-b622-264cf337dfdc",
      "resource": {
        "resourceType": "Specimen",
        "id": "5f112a31-95f5-4637-b622-264cf337dfdc",
        "meta": {
          "profile": [
            "http://hl7.eu/fhir/laboratory/StructureDefinition/Specimen-eu-lab"
          ]
        },
        "collection": {
          "collectedDateTime": "2020-12-27"
        },
        "text": {
          "status": "generated",
          "div": "<div xmlns=\"http://www.w3.org/1999/xhtml\"><table class=\"hl7__eu__lab__report\"><tr><th>Specimen</th><th>Collection Date</th></tr><tr><td>Whole blood specimen (specimen)</td><td><span class=\"nb\">27-Dec-2020</span></td></tr></table></div>"
        },
        "type": {
          "coding": [
            {
              "code": "258580003",
              "system": "http://snomed.info/sct",
              "display": "Whole blood specimen (specimen)"
            }
          ]
        }
      }
    },
    {
      "fullUrl": "urn:uuid:0529afcb-3083-4fa1-b809-418478554939",
      "resource": {
        "resourceType": "Specimen",
        "id": "0529afcb-3083-4fa1-b809-418478554939",
        "meta": {
          "profile": [
            "http://hl7.eu/fhir/laboratory/StructureDefinition/Specimen-eu-lab"
          ]
        },
        "collection": {
          "collectedDateTime": "2020-12-27"
        },
        "text": {
          "status": "generated",
          "div": "<div xmlns=\"http://www.w3.org/1999/xhtml\"><table class=\"hl7__eu__lab__report\"><tr><th>Specimen</th><th>Collection Date</th></tr><tr><td>Acellular blood (serum or plasma) specimen</td><td><span class=\"nb\">27-Dec-2020</span></td></tr></table></div>"
        },
        "type": {
          "coding": [
            {
              "code": "122592007",
              "system": "http://snomed.info/sct",
              "display": "Acellular blood (serum or plasma) specimen"
            }
          ]
        }
      }
    },
    {
      "fullUrl": "urn:uuid:c8261a81-9663-4b20-b6e4-e07f156cbe5a",
      "resource": {
        "resourceType": "Specimen",
        "id": "c8261a81-9663-4b20-b6e4-e07f156cbe5a",
        "meta": {
          "profile": [
            "http://hl7.eu/fhir/laboratory/StructureDefinition/Specimen-eu-lab"
          ]
        },
        "collection": {
          "collectedDateTime": "2020-12-27"
        },
        "text": {
          "status": "generated",
          "div": "<div xmlns=\"http://www.w3.org/1999/xhtml\"><table class=\"hl7__eu__lab__report\"><tr><th>Specimen</th><th>Collection Date</th></tr><tr><td>Serum specimen</td><td><span class=\"nb\">27-Dec-2020</span></td></tr></table></div>"
        },
        "type": {
          "coding": [
            {
              "code": "119364003",
              "system": "http://snomed.info/sct",
              "display": "Serum specimen"
            }
          ]
        }
      }
    },
    {
      "fullUrl": "urn:uuid:75f2a031-897a-4468-9616-dc0e74177b03",
      "resource": {
        "resourceType": "Observation",
        "id": "75f2a031-897a-4468-9616-dc0e74177b03",
        "meta": {
          "profile": [
            "http://hl7.eu/fhir/laboratory/StructureDefinition/Observation-resultslab-eu-lab"
          ]
        },
        "performer": [
          {
            "display": "The Central European Lab"
          }
        ],
        "category": [
          {
            "coding": [
              {
                "system": "http://terminology.hl7.org/CodeSystem/observation-category",
                "code": "laboratory"
              }
            ]
          }
        ],
        "code": {
          "coding": [
            {
              "code": "2339-0",
              "system": "http://loinc.org",
              "display": "Glucose [Mass/volume] in Blood"
            }
          ],
          "text": "Glucose [Mass/volume] in Blood"
        },
        "valueQuantity": {
          "system": "http://unitsofmeasure.org",
          "value": 79.3,
          "unit": "mg/dL",
          "code": "mg/dL"
        },
        "referenceRange": [
          {
            "low": {
              "value": 70,
              "code": "mg/dL",
              "system": "http://unitsofmeasure.org"
            }
          },
          {
            "high": {
              "value": 140,
              "code": "mg/dL",
              "system": "http://unitsofmeasure.org"
            }
          }
        ],
        "text": {
          "status": "generated",
          "div": "<div xmlns=\"http://www.w3.org/1999/xhtml\"><table class=\"hl7__eu__lab__report\"><tr><th>Test</th><th>27-Dec-2020</th><th>Reference&#xA0;Range</th><th>Unit</th></tr><tr><td>Glucose [Mass/volume] in Blood</td><td>79.3</td><td>70 - 140</td><td></td><td>mg/dL</td></tr></table></div>"
        },
        "status": "final",
        "subject": {
          "reference": "urn:uuid:07297d44-074c-4571-9c3d-5faf6f8d0b5c",
          "display": "Victor Lagarde"
        },
        "effectiveDateTime": "2020-12-27T04:48:18Z",
        "specimen": {
          "reference": "urn:uuid:5f112a31-95f5-4637-b622-264cf337dfdc"
        }
      }
    },
    {
      "fullUrl": "urn:uuid:addae575-9c38-4c03-8ee0-cfc47f640c0a",
      "resource": {
        "resourceType": "Observation",
        "id": "addae575-9c38-4c03-8ee0-cfc47f640c0a",
        "meta": {
          "profile": [
            "http://hl7.eu/fhir/laboratory/StructureDefinition/Observation-resultslab-eu-lab"
          ]
        },
        "performer": [
          {
            "display": "The Central European Lab"
          }
        ],
        "category": [
          {
            "coding": [
              {
                "system": "http://terminology.hl7.org/CodeSystem/observation-category",
                "code": "laboratory"
              }
            ]
          }
        ],
        "code": {
          "coding": [
            {
              "code": "6299-2",
              "system": "http://loinc.org",
              "display": "Urea nitrogen [Mass/volume] in Blood"
            }
          ],
          "text": "Urea nitrogen [Mass/volume] in Blood"
        },
        "valueQuantity": {
          "system": "http://unitsofmeasure.org",
          "value": 11,
          "unit": "mg/dL",
          "code": "mg/dL"
        },
        "referenceRange": [
          {
            "low": {
              "value": 7,
              "code": "mg/dL",
              "system": "http://unitsofmeasure.org"
            }
          },
          {
            "high": {
              "value": 20,
              "code": "mg/dL",
              "system": "http://unitsofmeasure.org"
            }
          }
        ],
        "text": {
          "status": "generated",
          "div": "<div xmlns=\"http://www.w3.org/1999/xhtml\"><table class=\"hl7__eu__lab__report\"><tr><th>Test</th><th>27-Dec-2020</th><th>Reference&#xA0;Range</th><th>Unit</th></tr><tr><td>Urea nitrogen [Mass/volume] in Blood</td><td>11.0</td><td>7 - 20</td><td></td><td>mg/dL</td></tr></table></div>"
        },
        "status": "final",
        "subject": {
          "reference": "urn:uuid:07297d44-074c-4571-9c3d-5faf6f8d0b5c",
          "display": "Victor Lagarde"
        },
        "effectiveDateTime": "2020-12-27T04:48:18Z",
        "specimen": {
          "reference": "urn:uuid:5f112a31-95f5-4637-b622-264cf337dfdc"
        }
      }
    },
    {
      "fullUrl": "urn:uuid:d4be4c5c-dd1a-4f18-a33d-d7d60d668ddb",
      "resource": {
        "resourceType": "Observation",
        "id": "d4be4c5c-dd1a-4f18-a33d-d7d60d668ddb",
        "meta": {
          "profile": [
            "http://hl7.eu/fhir/laboratory/StructureDefinition/Observation-resultslab-eu-lab"
          ]
        },
        "performer": [
          {
            "display": "The Central European Lab"
          }
        ],
        "category": [
          {
            "coding": [
              {
                "system": "http://terminology.hl7.org/CodeSystem/observation-category",
                "code": "laboratory"
              }
            ]
          }
        ],
        "code": {
          "coding": [
            {
              "code": "38483-4",
              "system": "http://loinc.org",
              "display": "Creatinine [Mass/volume] in Blood"
            }
          ],
          "text": "Creatinine [Mass/volume] in Blood"
        },
        "valueQuantity": {
          "system": "http://unitsofmeasure.org",
          "value": 3.1,
          "unit": "mg/dL",
          "code": "mg/dL"
        },
        "referenceRange": [
          {
            "low": {
              "value": 0.9,
              "code": "mg/dL",
              "system": "http://unitsofmeasure.org"
            }
          },
          {
            "high": {
              "value": 1.3,
              "code": "mg/dL",
              "system": "http://unitsofmeasure.org"
            }
          }
        ],
        "interpretation": [
          {
            "coding": [
              {
                "code": "H",
                "system": "http://terminology.hl7.org/CodeSystem/v3-ObservationInterpretation",
                "display": "High"
              }
            ]
          }
        ],
        "text": {
          "status": "generated",
          "div": "<div xmlns=\"http://www.w3.org/1999/xhtml\"><table class=\"hl7__eu__lab__report\"><tr><th>Test</th><th>27-Dec-2020</th><th>Reference&#xA0;Range</th><th>Unit</th></tr><tr><td>Creatinine [Mass/volume] in Blood</td><td>3.1</td><td>0.9 - 1.3</td><td>H</td><td>mg/dL</td></tr></table></div>"
        },
        "status": "final",
        "subject": {
          "reference": "urn:uuid:07297d44-074c-4571-9c3d-5faf6f8d0b5c",
          "display": "Victor Lagarde"
        },
        "effectiveDateTime": "2020-12-27T04:48:18Z",
        "specimen": {
          "reference": "urn:uuid:5f112a31-95f5-4637-b622-264cf337dfdc"
        }
      }
    },
    {
      "fullUrl": "urn:uuid:d5d1e150-43dc-4ae8-9860-d51d56acc077",
      "resource": {
        "resourceType": "Observation",
        "id": "d5d1e150-43dc-4ae8-9860-d51d56acc077",
        "meta": {
          "profile": [
            "http://hl7.eu/fhir/laboratory/StructureDefinition/Observation-resultslab-eu-lab"
          ]
        },
        "performer": [
          {
            "display": "The Central European Lab"
          }
        ],
        "category": [
          {
            "coding": [
              {
                "system": "http://terminology.hl7.org/CodeSystem/observation-category",
                "code": "laboratory"
              }
            ]
          }
        ],
        "code": {
          "coding": [
            {
              "code": "49765-1",
              "system": "http://loinc.org",
              "display": "Calcium [Mass/volume] in Blood"
            }
          ],
          "text": "Calcium [Mass/volume] in Blood"
        },
        "valueQuantity": {
          "system": "http://unitsofmeasure.org",
          "value": 9.5,
          "unit": "mg/dL",
          "code": "mg/dL"
        },
        "referenceRange": [
          {
            "low": {
              "value": 8.5,
              "code": "mg/dL",
              "system": "http://unitsofmeasure.org"
            }
          },
          {
            "high": {
              "value": 10.5,
              "code": "mg/dL",
              "system": "http://unitsofmeasure.org"
            }
          }
        ],
        "text": {
          "status": "generated",
          "div": "<div xmlns=\"http://www.w3.org/1999/xhtml\"><table class=\"hl7__eu__lab__report\"><tr><th>Test</th><th>27-Dec-2020</th><th>Reference&#xA0;Range</th><th>Unit</th></tr><tr><td>Calcium [Mass/volume] in Blood</td><td>9.5</td><td>8.5 - 10.5</td><td></td><td>mg/dL</td></tr></table></div>"
        },
        "status": "final",
        "subject": {
          "reference": "urn:uuid:07297d44-074c-4571-9c3d-5faf6f8d0b5c",
          "display": "Victor Lagarde"
        },
        "effectiveDateTime": "2020-12-27T04:48:18Z",
        "specimen": {
          "reference": "urn:uuid:5f112a31-95f5-4637-b622-264cf337dfdc"
        }
      }
    },
    {
      "fullUrl": "urn:uuid:7add1779-cbad-46f9-86ea-2912a21a2046",
      "resource": {
        "resourceType": "Observation",
        "id": "7add1779-cbad-46f9-86ea-2912a21a2046",
        "meta": {
          "profile": [
            "http://hl7.eu/fhir/laboratory/StructureDefinition/Observation-resultslab-eu-lab"
          ]
        },
        "performer": [
          {
            "display": "The Central European Lab"
          }
        ],
        "category": [
          {
            "coding": [
              {
                "system": "http://terminology.hl7.org/CodeSystem/observation-category",
                "code": "laboratory"
              }
            ]
          }
        ],
        "code": {
          "coding": [
            {
              "code": "2947-0",
              "system": "http://loinc.org",
              "display": "Sodium [Moles/volume] in Blood"
            }
          ],
          "text": "Sodium [Moles/volume] in Blood"
        },
        "valueQuantity": {
          "system": "http://unitsofmeasure.org",
          "value": 141.5,
          "unit": "mmol/L",
          "code": "mmol/L"
        },
        "referenceRange": [
          {
            "low": {
              "value": 135,
              "code": "mmol/L",
              "system": "http://unitsofmeasure.org"
            }
          },
          {
            "high": {
              "value": 145,
              "code": "mmol/L",
              "system": "http://unitsofmeasure.org"
            }
          }
        ],
        "text": {
          "status": "generated",
          "div": "<div xmlns=\"http://www.w3.org/1999/xhtml\"><table class=\"hl7__eu__lab__report\"><tr><th>Test</th><th>27-Dec-2020</th><th>Reference&#xA0;Range</th><th>Unit</th></tr><tr><td>Sodium [Moles/volume] in Blood</td><td>141.5</td><td>135 - 145</td><td></td><td>mmol/L</td></tr></table></div>"
        },
        "status": "final",
        "subject": {
          "reference": "urn:uuid:07297d44-074c-4571-9c3d-5faf6f8d0b5c",
          "display": "Victor Lagarde"
        },
        "effectiveDateTime": "2020-12-27T04:48:18Z",
        "specimen": {
          "reference": "urn:uuid:5f112a31-95f5-4637-b622-264cf337dfdc"
        }
      }
    },
    {
      "fullUrl": "urn:uuid:6e53b7df-daad-4ed9-9d3d-02e62fef52e5",
      "resource": {
        "resourceType": "Observation",
        "id": "6e53b7df-daad-4ed9-9d3d-02e62fef52e5",
        "meta": {
          "profile": [
            "http://hl7.eu/fhir/laboratory/StructureDefinition/Observation-resultslab-eu-lab"
          ]
        },
        "performer": [
          {
            "display": "The Central European Lab"
          }
        ],
        "category": [
          {
            "coding": [
              {
                "system": "http://terminology.hl7.org/CodeSystem/observation-category",
                "code": "laboratory"
              }
            ]
          }
        ],
        "code": {
          "coding": [
            {
              "code": "6298-4",
              "system": "http://loinc.org",
              "display": "Potassium [Moles/volume] in Blood"
            }
          ],
          "text": "Potassium [Moles/volume] in Blood"
        },
        "valueQuantity": {
          "system": "http://unitsofmeasure.org",
          "value": 5.1,
          "unit": "mmol/L",
          "code": "mmol/L"
        },
        "referenceRange": [
          {
            "low": {
              "value": 3.5,
              "code": "mmol/L",
              "system": "http://unitsofmeasure.org"
            }
          },
          {
            "high": {
              "value": 5.1,
              "code": "mmol/L",
              "system": "http://unitsofmeasure.org"
            }
          }
        ],
        "text": {
          "status": "generated",
          "div": "<div xmlns=\"http://www.w3.org/1999/xhtml\"><table class=\"hl7__eu__lab__report\"><tr><th>Test</th><th>27-Dec-2020</th><th>Reference&#xA0;Range</th><th>Unit</th></tr><tr><td>Potassium [Moles/volume] in Blood</td><td>5.1</td><td>3.5 - 5.1</td><td></td><td>mmol/L</td></tr></table></div>"
        },
        "status": "final",
        "subject": {
          "reference": "urn:uuid:07297d44-074c-4571-9c3d-5faf6f8d0b5c",
          "display": "Victor Lagarde"
        },
        "effectiveDateTime": "2020-12-27T04:48:18Z",
        "specimen": {
          "reference": "urn:uuid:5f112a31-95f5-4637-b622-264cf337dfdc"
        }
      }
    },
    {
      "fullUrl": "urn:uuid:60cdc35a-1755-45d9-a50c-924b30228f4f",
      "resource": {
        "resourceType": "Observation",
        "id": "60cdc35a-1755-45d9-a50c-924b30228f4f",
        "meta": {
          "profile": [
            "http://hl7.eu/fhir/laboratory/StructureDefinition/Observation-resultslab-eu-lab"
          ]
        },
        "performer": [
          {
            "display": "The Central European Lab"
          }
        ],
        "category": [
          {
            "coding": [
              {
                "system": "http://terminology.hl7.org/CodeSystem/observation-category",
                "code": "laboratory"
              }
            ]
          }
        ],
        "code": {
          "coding": [
            {
              "code": "2069-3",
              "system": "http://loinc.org",
              "display": "Chloride [Moles/volume] in Blood"
            }
          ],
          "text": "Chloride [Moles/volume] in Blood"
        },
        "valueQuantity": {
          "system": "http://unitsofmeasure.org",
          "value": 102.5,
          "unit": "mmol/L",
          "code": "mmol/L"
        },
        "referenceRange": [
          {
            "low": {
              "value": 98,
              "code": "mmol/L",
              "system": "http://unitsofmeasure.org"
            }
          },
          {
            "high": {
              "value": 108,
              "code": "mmol/L",
              "system": "http://unitsofmeasure.org"
            }
          }
        ],
        "text": {
          "status": "generated",
          "div": "<div xmlns=\"http://www.w3.org/1999/xhtml\"><table class=\"hl7__eu__lab__report\"><tr><th>Test</th><th>27-Dec-2020</th><th>Reference&#xA0;Range</th><th>Unit</th></tr><tr><td>Chloride [Moles/volume] in Blood</td><td>102.5</td><td>98 - 108</td><td></td><td>mmol/L</td></tr></table></div>"
        },
        "status": "final",
        "subject": {
          "reference": "urn:uuid:07297d44-074c-4571-9c3d-5faf6f8d0b5c",
          "display": "Victor Lagarde"
        },
        "effectiveDateTime": "2020-12-27T04:48:18Z",
        "specimen": {
          "reference": "urn:uuid:5f112a31-95f5-4637-b622-264cf337dfdc"
        }
      }
    },
    {
      "fullUrl": "urn:uuid:5be51e2e-3d57-4cb2-aab6-f6b49362ddd3",
      "resource": {
        "resourceType": "Observation",
        "id": "5be51e2e-3d57-4cb2-aab6-f6b49362ddd3",
        "meta": {
          "profile": [
            "http://hl7.eu/fhir/laboratory/StructureDefinition/Observation-resultslab-eu-lab"
          ]
        },
        "performer": [
          {
            "display": "The Central European Lab"
          }
        ],
        "category": [
          {
            "coding": [
              {
                "system": "http://terminology.hl7.org/CodeSystem/observation-category",
                "code": "laboratory"
              }
            ]
          }
        ],
        "code": {
          "coding": [
            {
              "code": "20565-8",
              "system": "http://loinc.org",
              "display": "Carbon dioxide, total [Moles/volume] in Blood"
            }
          ],
          "text": "Carbon dioxide, total [Moles/volume] in Blood"
        },
        "valueQuantity": {
          "system": "http://unitsofmeasure.org",
          "value": 27.2,
          "unit": "mmol/L",
          "code": "mmol/L"
        },
        "referenceRange": [
          {
            "low": {
              "value": 22,
              "code": "mmol/L",
              "system": "http://unitsofmeasure.org"
            }
          },
          {
            "high": {
              "value": 29,
              "code": "mmol/L",
              "system": "http://unitsofmeasure.org"
            }
          }
        ],
        "text": {
          "status": "generated",
          "div": "<div xmlns=\"http://www.w3.org/1999/xhtml\"><table class=\"hl7__eu__lab__report\"><tr><th>Test</th><th>27-Dec-2020</th><th>Reference&#xA0;Range</th><th>Unit</th></tr><tr><td>Carbon dioxide, total [Moles/volume] in Blood</td><td>27.2</td><td>22 - 29</td><td></td><td>mmol/L</td></tr></table></div>"
        },
        "status": "final",
        "subject": {
          "reference": "urn:uuid:07297d44-074c-4571-9c3d-5faf6f8d0b5c",
          "display": "Victor Lagarde"
        },
        "effectiveDateTime": "2020-12-27T04:48:18Z",
        "specimen": {
          "reference": "urn:uuid:5f112a31-95f5-4637-b622-264cf337dfdc"
        }
      }
    },
    {
      "fullUrl": "urn:uuid:67270eb0-8090-4ec6-a1e1-c39ad17d38bd",
      "resource": {
        "resourceType": "Observation",
        "id": "67270eb0-8090-4ec6-a1e1-c39ad17d38bd",
        "meta": {
          "profile": [
            "http://hl7.eu/fhir/laboratory/StructureDefinition/Observation-resultslab-eu-lab"
          ]
        },
        "performer": [
          {
            "display": "The Central European Lab"
          }
        ],
        "category": [
          {
            "coding": [
              {
                "system": "http://terminology.hl7.org/CodeSystem/observation-category",
                "code": "laboratory"
              }
            ]
          }
        ],
        "code": {
          "coding": [
            {
              "code": "2885-2",
              "system": "http://loinc.org",
              "display": "Protein [Mass/volume] in Serum or Plasma"
            }
          ],
          "text": "Protein [Mass/volume] in Serum or Plasma"
        },
        "valueQuantity": {
          "system": "http://unitsofmeasure.org",
          "value": 7.1,
          "unit": "g/dL",
          "code": "g/dL"
        },
        "referenceRange": [
          {
            "low": {
              "value": 6,
              "code": "g/dL",
              "system": "http://unitsofmeasure.org"
            }
          },
          {
            "high": {
              "value": 8.3,
              "code": "g/dL",
              "system": "http://unitsofmeasure.org"
            }
          }
        ],
        "text": {
          "status": "generated",
          "div": "<div xmlns=\"http://www.w3.org/1999/xhtml\"><table class=\"hl7__eu__lab__report\"><tr><th>Test</th><th>27-Dec-2020</th><th>Reference&#xA0;Range</th><th>Unit</th></tr><tr><td>Protein [Mass/volume] in Serum or Plasma</td><td>7.1</td><td>6 - 8.3</td><td></td><td>g/dL</td></tr></table></div>"
        },
        "status": "final",
        "subject": {
          "reference": "urn:uuid:07297d44-074c-4571-9c3d-5faf6f8d0b5c",
          "display": "Victor Lagarde"
        },
        "effectiveDateTime": "2020-12-27T04:48:18Z",
        "specimen": {
          "reference": "urn:uuid:0529afcb-3083-4fa1-b809-418478554939"
        }
      }
    },
    {
      "fullUrl": "urn:uuid:3519cb37-b2e2-45fd-a82b-0ff681a770e5",
      "resource": {
        "resourceType": "Observation",
        "id": "3519cb37-b2e2-45fd-a82b-0ff681a770e5",
        "meta": {
          "profile": [
            "http://hl7.eu/fhir/laboratory/StructureDefinition/Observation-resultslab-eu-lab"
          ]
        },
        "performer": [
          {
            "display": "The Central European Lab"
          }
        ],
        "category": [
          {
            "coding": [
              {
                "system": "http://terminology.hl7.org/CodeSystem/observation-category",
                "code": "laboratory"
              }
            ]
          }
        ],
        "code": {
          "coding": [
            {
              "code": "1751-7",
              "system": "http://loinc.org",
              "display": "Albumin [Mass/volume] in Serum or Plasma"
            }
          ],
          "text": "Albumin [Mass/volume] in Serum or Plasma"
        },
        "valueQuantity": {
          "system": "http://unitsofmeasure.org",
          "value": 4.9,
          "unit": "g/dL",
          "code": "g/dL"
        },
        "referenceRange": [
          {
            "low": {
              "value": 3.5,
              "code": "g/dL",
              "system": "http://unitsofmeasure.org"
            }
          },
          {
            "high": {
              "value": 5.5,
              "code": "g/dL",
              "system": "http://unitsofmeasure.org"
            }
          }
        ],
        "text": {
          "status": "generated",
          "div": "<div xmlns=\"http://www.w3.org/1999/xhtml\"><table class=\"hl7__eu__lab__report\"><tr><th>Test</th><th>27-Dec-2020</th><th>Reference&#xA0;Range</th><th>Unit</th></tr><tr><td>Albumin [Mass/volume] in Serum or Plasma</td><td>4.9</td><td>3.5 - 5.5</td><td></td><td>g/dL</td></tr></table></div>"
        },
        "status": "final",
        "subject": {
          "reference": "urn:uuid:07297d44-074c-4571-9c3d-5faf6f8d0b5c",
          "display": "Victor Lagarde"
        },
        "effectiveDateTime": "2020-12-27T04:48:18Z",
        "specimen": {
          "reference": "urn:uuid:0529afcb-3083-4fa1-b809-418478554939"
        }
      }
    },
    {
      "fullUrl": "urn:uuid:bb946e56-36e9-49dc-a0bd-dabf8e98a8c6",
      "resource": {
        "resourceType": "Observation",
        "id": "bb946e56-36e9-49dc-a0bd-dabf8e98a8c6",
        "meta": {
          "profile": [
            "http://hl7.eu/fhir/laboratory/StructureDefinition/Observation-resultslab-eu-lab"
          ]
        },
        "performer": [
          {
            "display": "The Central European Lab"
          }
        ],
        "category": [
          {
            "coding": [
              {
                "system": "http://terminology.hl7.org/CodeSystem/observation-category",
                "code": "laboratory"
              }
            ]
          }
        ],
        "code": {
          "coding": [
            {
              "code": "10834-0",
              "system": "http://loinc.org",
              "display": "Globulin [Mass/volume] in Serum by calculation"
            }
          ],
          "text": "Globulin [Mass/volume] in Serum by calculation"
        },
        "valueQuantity": {
          "system": "http://unitsofmeasure.org",
          "value": 2.2,
          "unit": "g/L",
          "code": "g/L"
        },
        "referenceRange": [
          {
            "low": {
              "value": 2,
              "code": "g/L",
              "system": "http://unitsofmeasure.org"
            }
          },
          {
            "high": {
              "value": 3.5,
              "code": "g/L",
              "system": "http://unitsofmeasure.org"
            }
          }
        ],
        "text": {
          "status": "generated",
          "div": "<div xmlns=\"http://www.w3.org/1999/xhtml\"><table class=\"hl7__eu__lab__report\"><tr><th>Test</th><th>27-Dec-2020</th><th>Reference&#xA0;Range</th><th>Unit</th></tr><tr><td>Globulin [Mass/volume] in Serum by calculation</td><td>2.2</td><td>2 - 3.5</td><td></td><td>g/L</td></tr></table></div>"
        },
        "status": "final",
        "subject": {
          "reference": "urn:uuid:07297d44-074c-4571-9c3d-5faf6f8d0b5c",
          "display": "Victor Lagarde"
        },
        "effectiveDateTime": "2020-12-27T04:48:18Z",
        "specimen": {
          "reference": "urn:uuid:c8261a81-9663-4b20-b6e4-e07f156cbe5a"
        }
      }
    },
    {
      "fullUrl": "urn:uuid:9017250d-5f2b-4a38-a09e-bf5a0ef6a060",
      "resource": {
        "resourceType": "Observation",
        "id": "9017250d-5f2b-4a38-a09e-bf5a0ef6a060",
        "meta": {
          "profile": [
            "http://hl7.eu/fhir/laboratory/StructureDefinition/Observation-resultslab-eu-lab"
          ]
        },
        "performer": [
          {
            "display": "The Central European Lab"
          }
        ],
        "category": [
          {
            "coding": [
              {
                "system": "http://terminology.hl7.org/CodeSystem/observation-category",
                "code": "laboratory"
              }
            ]
          }
        ],
        "code": {
          "coding": [
            {
              "code": "1975-2",
              "system": "http://loinc.org",
              "display": "Bilirubin.total [Mass/volume] in Serum or Plasma"
            }
          ],
          "text": "Bilirubin.total [Mass/volume] in Serum or Plasma"
        },
        "valueQuantity": {
          "system": "http://unitsofmeasure.org",
          "value": 0.8,
          "unit": "mg/dL",
          "code": "mg/dL"
        },
        "referenceRange": [
          {
            "low": {
              "value": 0.3,
              "code": "mg/dL",
              "system": "http://unitsofmeasure.org"
            }
          },
          {
            "high": {
              "value": 1.2,
              "code": "mg/dL",
              "system": "http://unitsofmeasure.org"
            }
          }
        ],
        "text": {
          "status": "generated",
          "div": "<div xmlns=\"http://www.w3.org/1999/xhtml\"><table class=\"hl7__eu__lab__report\"><tr><th>Test</th><th>27-Dec-2020</th><th>Reference&#xA0;Range</th><th>Unit</th></tr><tr><td>Bilirubin.total [Mass/volume] in Serum or Plasma</td><td>0.8</td><td>0.3 - 1.2</td><td></td><td>mg/dL</td></tr></table></div>"
        },
        "status": "final",
        "subject": {
          "reference": "urn:uuid:07297d44-074c-4571-9c3d-5faf6f8d0b5c",
          "display": "Victor Lagarde"
        },
        "effectiveDateTime": "2020-12-27T04:48:18Z",
        "specimen": {
          "reference": "urn:uuid:0529afcb-3083-4fa1-b809-418478554939"
        }
      }
    },
    {
      "fullUrl": "urn:uuid:d58ad71d-ea4b-4dc0-bdd2-ccbfbf73f1bd",
      "resource": {
        "resourceType": "Observation",
        "id": "d58ad71d-ea4b-4dc0-bdd2-ccbfbf73f1bd",
        "meta": {
          "profile": [
            "http://hl7.eu/fhir/laboratory/StructureDefinition/Observation-resultslab-eu-lab"
          ]
        },
        "performer": [
          {
            "display": "The Central European Lab"
          }
        ],
        "category": [
          {
            "coding": [
              {
                "system": "http://terminology.hl7.org/CodeSystem/observation-category",
                "code": "laboratory"
              }
            ]
          }
        ],
        "code": {
          "coding": [
            {
              "code": "6768-6",
              "system": "http://loinc.org",
              "display": "Alkaline phosphatase [Enzymatic activity/volume] in Serum or Plasma"
            }
          ],
          "text": "Alkaline phosphatase [Enzymatic activity/volume] in Serum or Plasma"
        },
        "valueQuantity": {
          "system": "http://unitsofmeasure.org",
          "value": 56.5,
          "unit": "U/L",
          "code": "U/L"
        },
        "referenceRange": [
          {
            "low": {
              "value": 39,
              "code": "U/L",
              "system": "http://unitsofmeasure.org"
            }
          },
          {
            "high": {
              "value": 147,
              "code": "U/L",
              "system": "http://unitsofmeasure.org"
            }
          }
        ],
        "text": {
          "status": "generated",
          "div": "<div xmlns=\"http://www.w3.org/1999/xhtml\"><table class=\"hl7__eu__lab__report\"><tr><th>Test</th><th>27-Dec-2020</th><th>Reference&#xA0;Range</th><th>Unit</th></tr><tr><td>Alkaline phosphatase [Enzymatic activity/volume] in Serum or Plasma</td><td>56.5</td><td>39 - 147</td><td></td><td>U/L</td></tr></table></div>"
        },
        "status": "final",
        "subject": {
          "reference": "urn:uuid:07297d44-074c-4571-9c3d-5faf6f8d0b5c",
          "display": "Victor Lagarde"
        },
        "effectiveDateTime": "2020-12-27T04:48:18Z",
        "specimen": {
          "reference": "urn:uuid:0529afcb-3083-4fa1-b809-418478554939"
        }
      }
    },
    {
      "fullUrl": "urn:uuid:37ca8b0c-73e9-4255-9fc8-cb524233c136",
      "resource": {
        "resourceType": "Observation",
        "id": "37ca8b0c-73e9-4255-9fc8-cb524233c136",
        "meta": {
          "profile": [
            "http://hl7.eu/fhir/laboratory/StructureDefinition/Observation-resultslab-eu-lab"
          ]
        },
        "performer": [
          {
            "display": "The Central European Lab"
          }
        ],
        "category": [
          {
            "coding": [
              {
                "system": "http://terminology.hl7.org/CodeSystem/observation-category",
                "code": "laboratory"
              }
            ]
          }
        ],
        "code": {
          "coding": [
            {
              "code": "1742-6",
              "system": "http://loinc.org",
              "display": "Alanine aminotransferase [Enzymatic activity/volume] in Serum or Plasma"
            }
          ],
          "text": "Alanine aminotransferase [Enzymatic activity/volume] in Serum or Plasma"
        },
        "valueQuantity": {
          "system": "http://unitsofmeasure.org",
          "value": 44.9,
          "unit": "U/L",
          "code": "U/L"
        },
        "referenceRange": [
          {
            "low": {
              "value": 10,
              "code": "U/L",
              "system": "http://unitsofmeasure.org"
            }
          },
          {
            "high": {
              "value": 63,
              "code": "U/L",
              "system": "http://unitsofmeasure.org"
            }
          }
        ],
        "text": {
          "status": "generated",
          "div": "<div xmlns=\"http://www.w3.org/1999/xhtml\"><table class=\"hl7__eu__lab__report\"><tr><th>Test</th><th>27-Dec-2020</th><th>Reference&#xA0;Range</th><th>Unit</th></tr><tr><td>Alanine aminotransferase [Enzymatic activity/volume] in Serum or Plasma</td><td>44.9</td><td>10 - 63</td><td></td><td>U/L</td></tr></table></div>"
        },
        "status": "final",
        "subject": {
          "reference": "urn:uuid:07297d44-074c-4571-9c3d-5faf6f8d0b5c",
          "display": "Victor Lagarde"
        },
        "effectiveDateTime": "2020-12-27T04:48:18Z",
        "specimen": {
          "reference": "urn:uuid:0529afcb-3083-4fa1-b809-418478554939"
        }
      }
    },
    {
      "fullUrl": "urn:uuid:7fe1ae6d-1f0d-49b7-a2aa-187de2ea9098",
      "resource": {
        "resourceType": "Observation",
        "id": "7fe1ae6d-1f0d-49b7-a2aa-187de2ea9098",
        "meta": {
          "profile": [
            "http://hl7.eu/fhir/laboratory/StructureDefinition/Observation-resultslab-eu-lab"
          ]
        },
        "performer": [
          {
            "display": "The Central European Lab"
          }
        ],
        "category": [
          {
            "coding": [
              {
                "system": "http://terminology.hl7.org/CodeSystem/observation-category",
                "code": "laboratory"
              }
            ]
          }
        ],
        "code": {
          "coding": [
            {
              "code": "1920-8",
              "system": "http://loinc.org",
              "display": "Aspartate aminotransferase [Enzymatic activity/volume] in Serum or Plasma"
            }
          ],
          "text": "Aspartate aminotransferase [Enzymatic activity/volume] in Serum or Plasma"
        },
        "valueQuantity": {
          "system": "http://unitsofmeasure.org",
          "value": 7,
          "unit": "U/L",
          "code": "U/L"
        },
        "referenceRange": [
          {
            "low": {
              "value": 10,
              "code": "U/L",
              "system": "http://unitsofmeasure.org"
            }
          },
          {
            "high": {
              "value": 40,
              "code": "U/L",
              "system": "http://unitsofmeasure.org"
            }
          }
        ],
        "interpretation": [
          {
            "coding": [
              {
                "code": "L",
                "system": "http://terminology.hl7.org/CodeSystem/v3-ObservationInterpretation",
                "display": "Low"
              }
            ]
          }
        ],
        "text": {
          "status": "generated",
          "div": "<div xmlns=\"http://www.w3.org/1999/xhtml\"><table class=\"hl7__eu__lab__report\"><tr><th>Test</th><th>27-Dec-2020</th><th>Reference&#xA0;Range</th><th>Unit</th></tr><tr><td>Aspartate aminotransferase [Enzymatic activity/volume] in Serum or Plasma</td><td>7.0</td><td>10 - 40</td><td>L</td><td>U/L</td></tr></table></div>"
        },
        "status": "final",
        "subject": {
          "reference": "urn:uuid:07297d44-074c-4571-9c3d-5faf6f8d0b5c",
          "display": "Victor Lagarde"
        },
        "effectiveDateTime": "2020-12-27T04:48:18Z",
        "specimen": {
          "reference": "urn:uuid:0529afcb-3083-4fa1-b809-418478554939"
        }
      }
    },
    {
      "fullUrl": "urn:uuid:f0cb0119-1935-4e39-8586-5fd85808a85e",
      "resource": {
        "resourceType": "Observation",
        "id": "f0cb0119-1935-4e39-8586-5fd85808a85e",
        "meta": {
          "profile": [
            "http://hl7.eu/fhir/laboratory/StructureDefinition/Observation-resultslab-eu-lab"
          ]
        },
        "performer": [
          {
            "display": "The Central European Lab"
          }
        ],
        "category": [
          {
            "coding": [
              {
                "system": "http://terminology.hl7.org/CodeSystem/observation-category",
                "code": "laboratory"
              }
            ]
          }
        ],
        "code": {
          "coding": [
            {
              "code": "2093-3",
              "system": "http://loinc.org",
              "display": "Cholesterol [Mass/volume] in Serum or Plasma"
            }
          ],
          "text": "Cholesterol [Mass/volume] in Serum or Plasma"
        },
        "valueQuantity": {
          "system": "http://unitsofmeasure.org",
          "value": 166.8,
          "unit": "mg/dL",
          "code": "mg/dL"
        },
        "referenceRange": [
          {
            "low": {
              "value": 0,
              "code": "mg/dL",
              "system": "http://unitsofmeasure.org"
            }
          },
          {
            "high": {
              "value": 200,
              "code": "mg/dL",
              "system": "http://unitsofmeasure.org"
            }
          }
        ],
        "text": {
          "status": "generated",
          "div": "<div xmlns=\"http://www.w3.org/1999/xhtml\"><table class=\"hl7__eu__lab__report\"><tr><th>Test</th><th>27-Dec-2020</th><th>Reference&#xA0;Range</th><th>Unit</th></tr><tr><td>Cholesterol [Mass/volume] in Serum or Plasma</td><td>166.8</td><td>0 - 200</td><td></td><td>mg/dL</td></tr></table></div>"
        },
        "status": "final",
        "subject": {
          "reference": "urn:uuid:07297d44-074c-4571-9c3d-5faf6f8d0b5c",
          "display": "Victor Lagarde"
        },
        "effectiveDateTime": "2020-12-27T04:48:18Z",
        "specimen": {
          "reference": "urn:uuid:0529afcb-3083-4fa1-b809-418478554939"
        }
      }
    },
    {
      "fullUrl": "urn:uuid:d169dcdd-0a7c-4910-b4ed-710082242f65",
      "resource": {
        "resourceType": "Observation",
        "id": "d169dcdd-0a7c-4910-b4ed-710082242f65",
        "meta": {
          "profile": [
            "http://hl7.eu/fhir/laboratory/StructureDefinition/Observation-resultslab-eu-lab"
          ]
        },
        "performer": [
          {
            "display": "The Central European Lab"
          }
        ],
        "category": [
          {
            "coding": [
              {
                "system": "http://terminology.hl7.org/CodeSystem/observation-category",
                "code": "laboratory"
              }
            ]
          }
        ],
        "code": {
          "coding": [
            {
              "code": "2571-8",
              "system": "http://loinc.org",
              "display": "Triglyceride [Mass/volume] in Serum or Plasma"
            }
          ],
          "text": "Triglyceride [Mass/volume] in Serum or Plasma"
        },
        "valueQuantity": {
          "system": "http://unitsofmeasure.org",
          "value": 114.1,
          "unit": "mg/dL",
          "code": "mg/dL"
        },
        "referenceRange": [
          {
            "low": {
              "value": 0,
              "code": "mg/dL",
              "system": "http://unitsofmeasure.org"
            }
          },
          {
            "high": {
              "value": 199,
              "code": "mg/dL",
              "system": "http://unitsofmeasure.org"
            }
          }
        ],
        "text": {
          "status": "generated",
          "div": "<div xmlns=\"http://www.w3.org/1999/xhtml\"><table class=\"hl7__eu__lab__report\"><tr><th>Test</th><th>27-Dec-2020</th><th>Reference&#xA0;Range</th><th>Unit</th></tr><tr><td>Triglyceride [Mass/volume] in Serum or Plasma</td><td>114.1</td><td>0 - 199</td><td></td><td>mg/dL</td></tr></table></div>"
        },
        "status": "final",
        "subject": {
          "reference": "urn:uuid:07297d44-074c-4571-9c3d-5faf6f8d0b5c",
          "display": "Victor Lagarde"
        },
        "effectiveDateTime": "2020-12-27T04:48:18Z",
        "specimen": {
          "reference": "urn:uuid:0529afcb-3083-4fa1-b809-418478554939"
        }
      }
    },
    {
      "fullUrl": "urn:uuid:c03294f3-ca13-4809-94d3-a8ef656e0ea0",
      "resource": {
        "resourceType": "Observation",
        "id": "c03294f3-ca13-4809-94d3-a8ef656e0ea0",
        "meta": {
          "profile": [
            "http://hl7.eu/fhir/laboratory/StructureDefinition/Observation-resultslab-eu-lab"
          ]
        },
        "performer": [
          {
            "display": "The Central European Lab"
          }
        ],
        "category": [
          {
            "coding": [
              {
                "system": "http://terminology.hl7.org/CodeSystem/observation-category",
                "code": "laboratory"
              }
            ]
          }
        ],
        "code": {
          "coding": [
            {
              "code": "18262-6",
              "system": "http://loinc.org",
              "display": "Cholesterol in LDL [Mass/volume] in Serum or Plasma by Direct assay"
            }
          ],
          "text": "Cholesterol in LDL [Mass/volume] in Serum or Plasma by Direct assay"
        },
        "valueQuantity": {
          "system": "http://unitsofmeasure.org",
          "value": 122.5,
          "unit": "mg/dL",
          "code": "mg/dL"
        },
        "referenceRange": [
          {
            "low": {
              "value": 0,
              "code": "mg/dL",
              "system": "http://unitsofmeasure.org"
            }
          },
          {
            "high": {
              "value": 130,
              "code": "mg/dL",
              "system": "http://unitsofmeasure.org"
            }
          }
        ],
        "text": {
          "status": "generated",
          "div": "<div xmlns=\"http://www.w3.org/1999/xhtml\"><table class=\"hl7__eu__lab__report\"><tr><th>Test</th><th>27-Dec-2020</th><th>Reference&#xA0;Range</th><th>Unit</th></tr><tr><td>Cholesterol in LDL [Mass/volume] in Serum or Plasma by Direct assay</td><td>122.5</td><td>0 - 130</td><td></td><td>mg/dL</td></tr></table></div>"
        },
        "status": "final",
        "subject": {
          "reference": "urn:uuid:07297d44-074c-4571-9c3d-5faf6f8d0b5c",
          "display": "Victor Lagarde"
        },
        "effectiveDateTime": "2020-12-27T04:48:18Z",
        "specimen": {
          "reference": "urn:uuid:0529afcb-3083-4fa1-b809-418478554939"
        }
      }
    },
    {
      "fullUrl": "urn:uuid:618d3f56-982d-4d91-9065-6c4a7cffbf02",
      "resource": {
        "resourceType": "Observation",
        "id": "618d3f56-982d-4d91-9065-6c4a7cffbf02",
        "meta": {
          "profile": [
            "http://hl7.eu/fhir/laboratory/StructureDefinition/Observation-resultslab-eu-lab"
          ]
        },
        "performer": [
          {
            "display": "The Central European Lab"
          }
        ],
        "category": [
          {
            "coding": [
              {
                "system": "http://terminology.hl7.org/CodeSystem/observation-category",
                "code": "laboratory"
              }
            ]
          }
        ],
        "code": {
          "coding": [
            {
              "code": "2085-9",
              "system": "http://loinc.org",
              "display": "Cholesterol in HDL [Mass/volume] in Serum or Plasma"
            }
          ],
          "text": "Cholesterol in HDL [Mass/volume] in Serum or Plasma"
        },
        "valueQuantity": {
          "system": "http://unitsofmeasure.org",
          "value": 39.8,
          "unit": "mg/dL",
          "code": "mg/dL"
        },
        "referenceRange": [
          {
            "low": {
              "value": 40,
              "code": "mg/dL",
              "system": "http://unitsofmeasure.org"
            }
          },
          {
            "high": {
              "value": 100,
              "code": "mg/dL",
              "system": "http://unitsofmeasure.org"
            }
          }
        ],
        "interpretation": [
          {
            "coding": [
              {
                "code": "L",
                "system": "http://terminology.hl7.org/CodeSystem/v3-ObservationInterpretation",
                "display": "Low"
              }
            ]
          }
        ],
        "text": {
          "status": "generated",
          "div": "<div xmlns=\"http://www.w3.org/1999/xhtml\"><table class=\"hl7__eu__lab__report\"><tr><th>Test</th><th>27-Dec-2020</th><th>Reference&#xA0;Range</th><th>Unit</th></tr><tr><td>Cholesterol in HDL [Mass/volume] in Serum or Plasma</td><td>39.8</td><td>40 - 100</td><td>L</td><td>mg/dL</td></tr></table></div>"
        },
        "status": "final",
        "subject": {
          "reference": "urn:uuid:07297d44-074c-4571-9c3d-5faf6f8d0b5c",
          "display": "Victor Lagarde"
        },
        "effectiveDateTime": "2020-12-27T04:48:18Z",
        "specimen": {
          "reference": "urn:uuid:0529afcb-3083-4fa1-b809-418478554939"
        }
      }
    },
    {
      "fullUrl": "urn:uuid:11f30c28-8e6c-47b2-8a71-f204961117a3",
      "resource": {
        "resourceType": "Device",
        "id": "11f30c28-8e6c-47b2-8a71-f204961117a3",
        "deviceName": [
          {
            "name": "SYNDERAI Synthetic Generator",
            "type": "manufacturer-name"
          }
        ],
        "version": [
          {
            "value": "5.0"
          }
        ],
        "text": {
          "status": "generated",
          "div": "<div xmlns=\"http://www.w3.org/1999/xhtml\">SYNDERAI Synthetic Generator v5.0</div>"
        },
        "status": "active\"",
        "distinctIdentifier": "synderai-generator-50",
        "manufacturer": "SYNDERAI Project"
      }
    },
    {
      "fullUrl": "urn:uuid:99174cf8-5b1b-4480-9a76-c12c997c5bf2",
      "resource": {
        "resourceType": "Provenance",
        "id": "99174cf8-5b1b-4480-9a76-c12c997c5bf2",
        "target": [
          {
            "reference": "Patient/07297d44-074c-4571-9c3d-5faf6f8d0b5c"
          },
          {
            "reference": "Bundle/8fc32732-5416-41be-88b1-77be84934fa6"
          },
          {
            "reference": "Composition/60470645-66ae-4402-8cb5-3922c2cd2921"
          },
          {
            "reference": "PractitionerRole/82f03201-59fd-4765-bad7-84725a7275d9"
          },
          {
            "reference": "Practitioner/442518c8-09a5-43b7-a8ad-dd37f8a014a8"
          },
          {
            "reference": "PractitionerRole/b4fb7dfa-4e3a-4c14-a2b4-167fa64f8b15"
          },
          {
            "reference": "Organization/465c377a-c55f-47a0-be19-03e0403d186c"
          }
        ],
        "activity": {
          "text": "Synthetic Example Data Generation"
        },
        "policy": [
          "https://synderai.net/synderai-synthetic-data-policy"
        ],
        "agent": [
          {
            "type": {
              "text": "author"
            },
            "who": {
              "reference": "Device/11f30c28-8e6c-47b2-8a71-f204961117a3"
            }
          }
        ],
        "reason": [
          {
            "text": "Interoperability Testing and Training (non-clinical use)"
          }
        ],
        "text": {
          "status": "generated",
          "div": "<div xmlns=\"http://www.w3.org/1999/xhtml\">Provenance for SYNDERAI Synthetic Example Data Resource</div>"
        },
        "recorded": "2020-12-27T05:48:18Z"
      }
    },
    {
      "fullUrl": "urn:uuid:82f03201-59fd-4765-bad7-84725a7275d9",
      "resource": {
        "resourceType": "PractitionerRole",
        "id": "82f03201-59fd-4765-bad7-84725a7275d9",
        "meta": {
          "profile": [
            "http://hl7.eu/fhir/base/StructureDefinition/practitionerRole-eu"
          ]
        },
        "text": {
          "status": "generated",
          "div": "<div xmlns=\"http://www.w3.org/1999/xhtml\">Laboratory Role Id: 82f03201-59fd-4765-bad7-84725a7275d9</div>"
        },
        "practitioner": {
          "reference": "urn:uuid:442518c8-09a5-43b7-a8ad-dd37f8a014a8"
        }
      }
    },
    {
      "fullUrl": "urn:uuid:442518c8-09a5-43b7-a8ad-dd37f8a014a8",
      "resource": {
        "resourceType": "Practitioner",
        "id": "442518c8-09a5-43b7-a8ad-dd37f8a014a8",
        "meta": {
          "profile": [
            "http://hl7.eu/fhir/base/StructureDefinition/practitioner-eu"
          ]
        },
        "identifier": [
          {
            "assigner": {
              "display": "HL7 Europe"
            },
            "system": "urn:oid:2.16.840.1.113883.2.51.999",
            "value": "e2865392-6f68-4e44-9d7d-940c6d95e830"
          }
        ],
        "name": [
          {
            "prefix": [
              "dr"
            ],
            "given": [
              "Ex"
            ],
            "family": "Ample"
          }
        ],
        "address": [
          {
            "line": [
              "Laboratoire Central Europenne",
              "Boulevard du Jardin Botanique 32"
            ],
            "postalCode": "1000",
            "city": "Brussels",
            "country": "Belgium"
          }
        ],
        "text": {
          "status": "generated",
          "div": "<div xmlns=\"http://www.w3.org/1999/xhtml\">Laboratory: Laboratoire Central Europenne, 1000 Brussels, Belgium</div>"
        }
      }
    }
  ],
  "type": "document",
  "timestamp": "2020-12-27T05:48:18Z"
}
