{
  "resourceType": "Bundle",
  "id": "c457a9e8-1188-40e1-a55d-70199997d477",
  "meta": {
    "profile": [
      "http://hl7.eu/fhir/laboratory/StructureDefinition/Bundle-eu-lab"
    ]
  },
  "identifier": {
    "assigner": {
      "display": "HL7 Europe"
    },
    "system": "urn:oid:2.16.840.1.113883.2.51.999",
    "value": "ff3a9565-a2b0-4395-b199-34a10bdae87e"
  },
  "entry": [
    {
      "fullUrl": "urn:uuid:fb4f2144-b30b-4290-8df8-2055f5d00b09",
      "resource": {
        "resourceType": "Composition",
        "id": "fb4f2144-b30b-4290-8df8-2055f5d00b09",
        "meta": {
          "profile": [
            "http://hl7.eu/fhir/laboratory/StructureDefinition/Composition-eu-lab"
          ]
        },
        "identifier": {
          "assigner": {
            "display": "HL7 Europe"
          },
          "system": "urn:oid:2.16.840.1.113883.2.51.999",
          "value": "c0a11267-b4a8-453b-b84e-b1772bb3f9ac"
        },
        "author": [
          {
            "reference": "urn:uuid:f1900e70-414e-49e4-a0fc-c77336c71f0a"
          }
        ],
        "category": [
          {
            "coding": [
              {
                "code": "26436-6",
                "system": "http://loinc.org",
                "display": "Laboratory studies (set)"
              }
            ]
          }
        ],
        "type": {
          "coding": [
            {
              "code": "11502-2",
              "system": "http://loinc.org",
              "display": "Laboratory report"
            }
          ],
          "text": "Laboratory Report"
        },
        "section": [
          {
            "code": {
              "coding": [
                {
                  "code": "26436-6",
                  "system": "http://loinc.org",
                  "display": "Laboratory studies (set)"
                }
              ],
              "text": "Laboratory studies"
            },
            "section": [
              {
                "code": {
                  "coding": [
                    {
                      "code": "$18723-7",
                      "system": "http://loinc.org",
                      "display": "Hematology studies (set)"
                    }
                  ],
                  "text": "Hematology"
                },
                "entry": [
                  {
                    "reference": "urn:uuid:859ceaf1-87bb-4f63-bbeb-646f3d198c4a"
                  },
                  {
                    "reference": "urn:uuid:a9cf00ee-d183-4a4a-9bec-2662341975d3"
                  },
                  {
                    "reference": "urn:uuid:e5ece940-3b53-4f50-96c9-0810fc4cdb9a"
                  },
                  {
                    "reference": "urn:uuid:e80e00e7-59f9-4b81-8848-b1e4995a29f4"
                  },
                  {
                    "reference": "urn:uuid:a915de44-84fc-4f5f-b93a-7047a1f1fbc9"
                  },
                  {
                    "reference": "urn:uuid:884ac92c-e075-4849-b89c-a67f26fcd32b"
                  },
                  {
                    "reference": "urn:uuid:1329a592-0a1c-4047-a7c2-30e871788f29"
                  },
                  {
                    "reference": "urn:uuid:9987d3fd-ac4a-4c46-97ab-979ad9b65190"
                  },
                  {
                    "reference": "urn:uuid:d26a8efa-86c1-4855-a018-0b99d75ebd19"
                  },
                  {
                    "reference": "urn:uuid:ec099938-5e67-4a77-a949-f5c93b3f56d2"
                  },
                  {
                    "reference": "urn:uuid:63973389-5ae4-4fe0-a18d-83402796bcc4"
                  }
                ],
                "text": {
                  "status": "generated",
                  "div": "<div xmlns=\"http://www.w3.org/1999/xhtml\"><h3>Hematology</h3><table class=\"hl7__eu__lab__report\"><thead><tr><th>Test</th><th>11-AUG-2015</th><th>Reference&#xA0;Range</th><th>Unit</th></tr></thead><tbody><tr><td>Leukocytes [#/volume] in Blood by Automated count</td><td>6.4</td><td>3.5 - 10.5</td><td>10*3/uL</td></tr><tr><td>Erythrocytes [#/volume] in Blood by Automated count</td><td>5.1</td><td>4.2 - 6.2</td><td>10*6/uL</td></tr><tr><td>Hemoglobin [Mass/volume] in Blood</td><td>13.9</td><td>13.5 - 17.5</td><td>g/dL</td></tr><tr><td>Hematocrit [Volume Fraction] of Blood by Automated count</td><td><strong>35.4 L</strong></td><td>37 - 52</td><td>%</td></tr><tr><td>MCV [Entitic volume] by Automated count</td><td>91.9</td><td>80 - 105</td><td>fL</td></tr><tr><td>MCH [Entitic mass] by Automated count</td><td>27.1</td><td>27 - 33</td><td>pg</td></tr><tr><td>MCHC [Mass/volume] by Automated count</td><td>34.7</td><td>31 - 36</td><td>g/dL</td></tr><tr><td>Erythrocyte distribution width [Entitic volume] by Automated count</td><td>45.8</td><td>36 - 55</td><td>fL</td></tr><tr><td>Platelets [#/volume] in Blood by Automated count</td><td>197.2</td><td>150 - 350</td><td>10*3/uL</td></tr><tr><td>Platelet distribution width [Entitic volume] in Blood by Automated count</td><td><strong>402.3 H</strong></td><td>144 - 366</td><td>fL</td></tr><tr><td>Platelet mean volume [Entitic volume] in Blood by Automated count</td><td>11.0</td><td>7.2 - 13.5</td><td>fL</td></tr></tbody></table></div>"
                },
                "title": "Hematology"
              },
              {
                "code": {
                  "coding": [
                    {
                      "code": "$18719-5",
                      "system": "http://loinc.org",
                      "display": "Chemistry studies (set)"
                    }
                  ],
                  "text": "Chemistry"
                },
                "entry": [
                  {
                    "reference": "urn:uuid:7efa5df5-0996-4f25-9ab8-222ae9a9ee17"
                  },
                  {
                    "reference": "urn:uuid:532e73f2-62f4-4fc2-ab35-cbc0e1344e1a"
                  },
                  {
                    "reference": "urn:uuid:4d846af5-894c-4a8f-bbe9-8419774b99e6"
                  },
                  {
                    "reference": "urn:uuid:a6a27dde-0af0-44fe-afb2-3eadb78ecee7"
                  },
                  {
                    "reference": "urn:uuid:8f66ea30-9750-4735-b824-f37516f596b6"
                  },
                  {
                    "reference": "urn:uuid:8f9c2436-976f-45da-a6f7-a8c6db7fe8ef"
                  },
                  {
                    "reference": "urn:uuid:5fad7c4c-c418-4ccc-a6f7-a23c0c927ecb"
                  },
                  {
                    "reference": "urn:uuid:ef4e1698-e079-466f-b778-5ade841a39a5"
                  },
                  {
                    "reference": "urn:uuid:cb7dbfb8-7642-420b-9356-5fec7a5c8a5b"
                  }
                ],
                "text": {
                  "status": "generated",
                  "div": "<div xmlns=\"http://www.w3.org/1999/xhtml\"><h3>Chemistry</h3><table class=\"hl7__eu__lab__report\"><thead><tr><th>Test</th><th>11-AUG-2015</th><th>Reference&#xA0;Range</th><th>Unit</th></tr></thead><tbody><tr><td>Hemoglobin A1c/Hemoglobin.total in Blood</td><td>6.0</td><td>4.5 - 6.4</td><td>%</td></tr><tr><td>Glucose [Mass/volume] in Blood</td><td>90.4</td><td>70 - 99</td><td>mg/dL</td></tr><tr><td>Urea nitrogen [Mass/volume] in Blood</td><td>7.2</td><td>7 - 20</td><td>mg/dL</td></tr><tr><td>Creatinine [Mass/volume] in Blood</td><td>1.1</td><td>0.9 - 1.3</td><td>mg/dL</td></tr><tr><td>Calcium [Mass/volume] in Blood</td><td>9.0</td><td>8.6 - 10.2</td><td>mg/dL</td></tr><tr><td>Sodium [Moles/volume] in Blood</td><td>142.4</td><td>135 - 145</td><td>mmol/L</td></tr><tr><td>Potassium [Moles/volume] in Blood</td><td>4.8</td><td>3.5 - 5.1</td><td>mmol/L</td></tr><tr><td>Chloride [Moles/volume] in Blood</td><td>105.2</td><td>98 - 108</td><td>mmol/L</td></tr><tr><td>Carbon dioxide, total [Moles/volume] in Blood</td><td>28.9</td><td>22 - 29</td><td>mmol/L</td></tr></tbody></table></div>"
                },
                "title": "Chemistry"
              }
            ],
            "title": "Laboratory Report"
          },
          {
            "text": {
              "status": "generated",
              "div": "<div xmlns=\"http://www.w3.org/1999/xhtml\"><h3>Annotation</h3><table class=\"hl7__eu__lab__report\"><tr><th>Conclusion and Recommendations based on this report and previous findings known to us</th></tr><tr><td>All measured values are within or close to normal ranges, except for a mildly decreased hematocrit and a slightly elevated platelet distribution width. These findings may suggest mild anemia and some platelet size variability, but are not clinically alarming in isolation. No evidence of acute metabolic, renal, or hematologic derangement. Recommend clinical correlation and follow-up if symptoms or risk factors are present.</td></tr></table></div>"
            },
            "code": {
              "coding": [
                {
                  "system": "http://loinc.org",
                  "code": "48767-8",
                  "display": "Annotation comment"
                }
              ]
            },
            "title": "Annotation comment"
          }
        ],
        "status": "final",
        "subject": {
          "reference": "urn:uuid:56b6326e-daec-413b-b1f5-a7bc688a9e3b",
          "display": "Khalid Nilsson"
        },
        "date": "2015-08-11T01:04:23Z",
        "title": "Laboratory Report",
        "confidentiality": "N"
      }
    },
    {
      "fullUrl": "urn:uuid:80e1e5cc-1dcb-44ba-b8c9-6954b9108ca6",
      "resource": {
        "resourceType": "DiagnosticReport",
        "id": "80e1e5cc-1dcb-44ba-b8c9-6954b9108ca6",
        "meta": {
          "profile": [
            "http://hl7.eu/fhir/laboratory/StructureDefinition/DiagnosticReport-eu-lab"
          ]
        },
        "identifier": [
          {
            "assigner": {
              "display": "HL7 Europe"
            },
            "system": "urn:oid:2.16.840.1.113883.2.51.999",
            "value": "07b852f9-56e6-4fd4-9d94-012c850923f8"
          }
        ],
        "extension": [
          {
            "url": "http://hl7.org/fhir/5.0/StructureDefinition/extension-DiagnosticReport.composition",
            "valueReference": {
              "reference": "urn:uuid:c0a11267-b4a8-453b-b84e-b1772bb3f9ac"
            }
          }
        ],
        "category": [
          {
            "coding": [
              {
                "code": "26436-6",
                "system": "http://loinc.org",
                "display": "Laboratory studies (set)"
              }
            ]
          }
        ],
        "specimen": [
          {
            "reference": "urn:uuid:b9712e4d-ac52-4a8a-80ef-d0719dd7c356"
          },
          {
            "reference": "urn:uuid:b9712e4d-ac52-4a8a-80ef-d0719dd7c356"
          }
        ],
        "result": [
          {
            "reference": "urn:uuid:7efa5df5-0996-4f25-9ab8-222ae9a9ee17"
          },
          {
            "reference": "urn:uuid:532e73f2-62f4-4fc2-ab35-cbc0e1344e1a"
          },
          {
            "reference": "urn:uuid:4d846af5-894c-4a8f-bbe9-8419774b99e6"
          },
          {
            "reference": "urn:uuid:a6a27dde-0af0-44fe-afb2-3eadb78ecee7"
          },
          {
            "reference": "urn:uuid:8f66ea30-9750-4735-b824-f37516f596b6"
          },
          {
            "reference": "urn:uuid:8f9c2436-976f-45da-a6f7-a8c6db7fe8ef"
          },
          {
            "reference": "urn:uuid:5fad7c4c-c418-4ccc-a6f7-a23c0c927ecb"
          },
          {
            "reference": "urn:uuid:ef4e1698-e079-466f-b778-5ade841a39a5"
          },
          {
            "reference": "urn:uuid:cb7dbfb8-7642-420b-9356-5fec7a5c8a5b"
          },
          {
            "reference": "urn:uuid:859ceaf1-87bb-4f63-bbeb-646f3d198c4a"
          },
          {
            "reference": "urn:uuid:a9cf00ee-d183-4a4a-9bec-2662341975d3"
          },
          {
            "reference": "urn:uuid:e5ece940-3b53-4f50-96c9-0810fc4cdb9a"
          },
          {
            "reference": "urn:uuid:e80e00e7-59f9-4b81-8848-b1e4995a29f4"
          },
          {
            "reference": "urn:uuid:a915de44-84fc-4f5f-b93a-7047a1f1fbc9"
          },
          {
            "reference": "urn:uuid:884ac92c-e075-4849-b89c-a67f26fcd32b"
          },
          {
            "reference": "urn:uuid:1329a592-0a1c-4047-a7c2-30e871788f29"
          },
          {
            "reference": "urn:uuid:9987d3fd-ac4a-4c46-97ab-979ad9b65190"
          },
          {
            "reference": "urn:uuid:d26a8efa-86c1-4855-a018-0b99d75ebd19"
          },
          {
            "reference": "urn:uuid:ec099938-5e67-4a77-a949-f5c93b3f56d2"
          },
          {
            "reference": "urn:uuid:63973389-5ae4-4fe0-a18d-83402796bcc4"
          }
        ],
        "status": "registered",
        "code": {
          "coding": [
            {
              "code": "11502-2",
              "system": "http://loinc.org",
              "display": "Laboratory report"
            }
          ]
        },
        "subject": {
          "reference": "urn:uuid:56b6326e-daec-413b-b1f5-a7bc688a9e3b",
          "display": "Khalid Nilsson"
        }
      }
    },
    {
      "fullUrl": "urn:uuid:56b6326e-daec-413b-b1f5-a7bc688a9e3b",
      "resource": {
        "resourceType": "Patient",
        "id": "56b6326e-daec-413b-b1f5-a7bc688a9e3b",
        "meta": {
          "security": [
            {
              "system": "http://terminology.hl7.org/CodeSystem/v3-ActReason",
              "code": "HTEST"
            },
            {
              "system": "http://terminology.hl7.org/CodeSystem/v3-ActReason",
              "code": "TRAIN"
            }
          ],
          "tag": [
            {
              "system": "https://synderai.net/fhir/CodeSystem/tags",
              "code": "synthetic",
              "display": "SYNDERAI Synthetic data"
            }
          ],
          "profile": [
            "http://hl7.eu/fhir/base/StructureDefinition/patient-eu-core"
          ]
        },
        "identifier": [
          {
            "type": {
              "coding": [
                {
                  "code": "PT",
                  "system": "http://terminology.hl7.org/CodeSystem/v2-0203"
                }
              ]
            },
            "system": "http://ec.europa.eu/identifier/eci",
            "value": "8339-594203-6"
          },
          {
            "type": {
              "coding": [
                {
                  "code": "MR",
                  "system": "http://terminology.hl7.org/CodeSystem/v2-0203"
                }
              ]
            },
            "system": "http://local.setting.eu/identifier",
            "value": "db9680f4-3d2c-0551-cb1c-61573f88f405"
          }
        ],
        "name": [
          {
            "family": "Nilsson"
          },
          {
            "given": [
              "Khalid"
            ]
          },
          {
            "text": "Khalid Nilsson"
          }
        ],
        "address": [
          {
            "line": [
              "Gengränd 482"
            ],
            "use": "home",
            "type": "physical",
            "postalCode": "691 31",
            "city": "Karlskoga",
            "country": "Sweden"
          }
        ],
        "telecom": [
          {
            "system": "phone",
            "value": "+46 (0)8 888 657 95"
          }
        ],
        "extension": [
          {
            "url": "http://hl7.org/fhir/StructureDefinition/patient-nationality",
            "valueCodeableConcept": {
              "coding": [
                {
                  "code": "SE",
                  "system": "http://hl7.org/fhir/ValueSet/country"
                }
              ]
            }
          }
        ],
        "text": {
          "status": "generated",
          "div": "<div xmlns=\"http://www.w3.org/1999/xhtml\"><table class=\"hl7__ips\"><tr><td>Khalid Nilsson</td><td>male</td><td>10-Apr-1952</td></tr></table></div>"
        },
        "gender": "male",
        "birthDate": "1952-04-10"
      }
    },
    {
      "fullUrl": "urn:uuid:827db3d9-ef54-42f3-aefd-f22ebc4aee66",
      "resource": {
        "resourceType": "ServiceRequest",
        "id": "827db3d9-ef54-42f3-aefd-f22ebc4aee66",
        "meta": {
          "profile": [
            "http://hl7.eu/fhir/laboratory/StructureDefinition/ServiceRequest-eu-lab"
          ]
        },
        "identifier": [
          {
            "system": "http://example.org",
            "value": "96742e46-f691-4226-95b1-3b64a26d22f3"
          }
        ],
        "specimen": [
          {
            "reference": "urn:uuid:b9712e4d-ac52-4a8a-80ef-d0719dd7c356"
          }
        ],
        "reasonCode": [
          {
            "coding": [
              {
                "code": "64859006",
                "system": "http://snomed.info/sct",
                "display": "Osteoporosis"
              }
            ]
          },
          {
            "coding": [
              {
                "code": "196416002",
                "system": "http://snomed.info/sct",
                "display": "Impacted molars"
              }
            ]
          },
          {
            "coding": [
              {
                "code": "414545008",
                "system": "http://snomed.info/sct",
                "display": "Ischemic heart disease"
              }
            ]
          },
          {
            "coding": [
              {
                "code": "40055000",
                "system": "http://snomed.info/sct",
                "display": "Chronic sinusitis"
              }
            ]
          },
          {
            "coding": [
              {
                "code": "197927001",
                "system": "http://snomed.info/sct",
                "display": "Recurrent urinary tract infection"
              }
            ]
          },
          {
            "coding": [
              {
                "code": "15777000",
                "system": "http://snomed.info/sct",
                "display": "Prediabetes"
              }
            ]
          },
          {
            "coding": [
              {
                "code": "271737000",
                "system": "http://snomed.info/sct",
                "display": "Anemia"
              }
            ]
          }
        ],
        "status": "active",
        "intent": "order",
        "code": {
          "coding": [
            {
              "code": "108252007",
              "system": "http://snomed.info/sct",
              "display": "Laboratory procedure"
            }
          ]
        },
        "subject": {
          "reference": "urn:uuid:56b6326e-daec-413b-b1f5-a7bc688a9e3b",
          "display": "Khalid Nilsson"
        },
        "requester": {
          "reference": "urn:uuid:589ba668-cb57-478d-8758-d9bac9163a28"
        }
      }
    },
    {
      "fullUrl": "urn:uuid:589ba668-cb57-478d-8758-d9bac9163a28",
      "resource": {
        "resourceType": "PractitionerRole",
        "id": "589ba668-cb57-478d-8758-d9bac9163a28",
        "meta": {
          "profile": [
            "http://hl7.eu/fhir/base/StructureDefinition/practitionerRole-eu"
          ]
        },
        "text": {
          "status": "generated",
          "div": "<div xmlns=\"http://www.w3.org/1999/xhtml\">Provider Role Id: 589ba668-cb57-478d-8758-d9bac9163a28</div>"
        },
        "organization": {
          "reference": "urn:uuid:aba86c78-17ca-4531-90bb-25f49282f008"
        }
      }
    },
    {
      "fullUrl": "urn:uuid:aba86c78-17ca-4531-90bb-25f49282f008",
      "resource": {
        "resourceType": "Organization",
        "id": "aba86c78-17ca-4531-90bb-25f49282f008",
        "meta": {
          "profile": [
            "http://hl7.eu/fhir/base/StructureDefinition/organization-eu"
          ]
        },
        "identifier": [
          {
            "assigner": {
              "display": "HL7 Europe"
            },
            "system": "urn:oid:2.16.840.1.113883.2.51.999",
            "value": "1d53bced-3947-4e99-82f6-261e7cb6f54c"
          }
        ],
        "address": [
          {
            "city": "Karlskoga",
            "postalCode": "691 31",
            "country": "Sweden"
          }
        ],
        "text": {
          "status": "generated",
          "div": "<div xmlns=\"http://www.w3.org/1999/xhtml\">Provider Organization: Karlskoga Lasarett</div>"
        },
        "name": "Karlskoga Lasarett"
      }
    },
    {
      "fullUrl": "urn:uuid:b9712e4d-ac52-4a8a-80ef-d0719dd7c356",
      "resource": {
        "resourceType": "Specimen",
        "id": "b9712e4d-ac52-4a8a-80ef-d0719dd7c356",
        "meta": {
          "profile": [
            "http://hl7.eu/fhir/laboratory/StructureDefinition/Specimen-eu-lab"
          ]
        },
        "collection": {
          "collectedDateTime": "2015-08-10"
        },
        "text": {
          "status": "generated",
          "div": "<div xmlns=\"http://www.w3.org/1999/xhtml\"><table class=\"hl7__eu__lab__report\"><tr><th>Specimen</th><th>Collection Date</th></tr><tr><td>Whole blood specimen (specimen)</td><td><span class=\"nb\">10-Aug-2015</span></td></tr></table></div>"
        },
        "type": {
          "coding": [
            {
              "code": "258580003",
              "system": "http://snomed.info/sct",
              "display": "Whole blood specimen (specimen)"
            }
          ]
        }
      }
    },
    {
      "fullUrl": "urn:uuid:b9712e4d-ac52-4a8a-80ef-d0719dd7c356",
      "resource": {
        "resourceType": "Specimen",
        "id": "b9712e4d-ac52-4a8a-80ef-d0719dd7c356",
        "meta": {
          "profile": [
            "http://hl7.eu/fhir/laboratory/StructureDefinition/Specimen-eu-lab"
          ]
        },
        "collection": {
          "collectedDateTime": "2015-08-10"
        },
        "text": {
          "status": "generated",
          "div": "<div xmlns=\"http://www.w3.org/1999/xhtml\"><table class=\"hl7__eu__lab__report\"><tr><th>Specimen</th><th>Collection Date</th></tr><tr><td>Whole blood specimen (specimen)</td><td><span class=\"nb\">10-Aug-2015</span></td></tr></table></div>"
        },
        "type": {
          "coding": [
            {
              "code": "258580003",
              "system": "http://snomed.info/sct",
              "display": "Whole blood specimen (specimen)"
            }
          ]
        }
      }
    },
    {
      "fullUrl": "urn:uuid:7efa5df5-0996-4f25-9ab8-222ae9a9ee17",
      "resource": {
        "resourceType": "Observation",
        "id": "7efa5df5-0996-4f25-9ab8-222ae9a9ee17",
        "meta": {
          "profile": [
            "http://hl7.eu/fhir/laboratory/StructureDefinition/Observation-resultslab-eu-lab"
          ]
        },
        "performer": [
          {
            "display": "The Central European Lab"
          }
        ],
        "category": [
          {
            "coding": [
              {
                "system": "http://terminology.hl7.org/CodeSystem/observation-category",
                "code": "laboratory"
              }
            ]
          }
        ],
        "code": {
          "coding": [
            {
              "code": "4548-4",
              "system": "http://loinc.org",
              "display": "Hemoglobin A1c/Hemoglobin.total in Blood"
            }
          ],
          "text": "Hemoglobin A1c/Hemoglobin.total in Blood"
        },
        "valueQuantity": {
          "system": "http://unitsofmeasure.org",
          "value": 6,
          "unit": "%",
          "code": "%"
        },
        "referenceRange": [
          {
            "low": {
              "value": 4.5,
              "code": "%",
              "system": "http://unitsofmeasure.org"
            }
          },
          {
            "high": {
              "value": 6.4,
              "code": "%",
              "system": "http://unitsofmeasure.org"
            }
          }
        ],
        "text": {
          "status": "generated",
          "div": "<div xmlns=\"http://www.w3.org/1999/xhtml\"><table class=\"hl7__eu__lab__report\"><tr><th>Test</th><th>11-Aug-2015</th><th>Reference&#xA0;Range</th><th>Unit</th></tr><tr><td>Hemoglobin A1c/Hemoglobin.total in Blood</td><td>6.0</td><td>4.5 - 6.4</td><td></td><td>%</td></tr></table></div>"
        },
        "status": "final",
        "subject": {
          "reference": "urn:uuid:56b6326e-daec-413b-b1f5-a7bc688a9e3b",
          "display": "Khalid Nilsson"
        },
        "effectiveDateTime": "2015-08-10T23:04:23Z",
        "specimen": {
          "reference": "urn:uuid:b9712e4d-ac52-4a8a-80ef-d0719dd7c356"
        }
      }
    },
    {
      "fullUrl": "urn:uuid:532e73f2-62f4-4fc2-ab35-cbc0e1344e1a",
      "resource": {
        "resourceType": "Observation",
        "id": "532e73f2-62f4-4fc2-ab35-cbc0e1344e1a",
        "meta": {
          "profile": [
            "http://hl7.eu/fhir/laboratory/StructureDefinition/Observation-resultslab-eu-lab"
          ]
        },
        "performer": [
          {
            "display": "The Central European Lab"
          }
        ],
        "category": [
          {
            "coding": [
              {
                "system": "http://terminology.hl7.org/CodeSystem/observation-category",
                "code": "laboratory"
              }
            ]
          }
        ],
        "code": {
          "coding": [
            {
              "code": "2339-0",
              "system": "http://loinc.org",
              "display": "Glucose [Mass/volume] in Blood"
            }
          ],
          "text": "Glucose [Mass/volume] in Blood"
        },
        "valueQuantity": {
          "system": "http://unitsofmeasure.org",
          "value": 90.4,
          "unit": "mg/dL",
          "code": "mg/dL"
        },
        "referenceRange": [
          {
            "low": {
              "value": 70,
              "code": "mg/dL",
              "system": "http://unitsofmeasure.org"
            }
          },
          {
            "high": {
              "value": 99,
              "code": "mg/dL",
              "system": "http://unitsofmeasure.org"
            }
          }
        ],
        "text": {
          "status": "generated",
          "div": "<div xmlns=\"http://www.w3.org/1999/xhtml\"><table class=\"hl7__eu__lab__report\"><tr><th>Test</th><th>11-Aug-2015</th><th>Reference&#xA0;Range</th><th>Unit</th></tr><tr><td>Glucose [Mass/volume] in Blood</td><td>90.4</td><td>70 - 99</td><td></td><td>mg/dL</td></tr></table></div>"
        },
        "status": "final",
        "subject": {
          "reference": "urn:uuid:56b6326e-daec-413b-b1f5-a7bc688a9e3b",
          "display": "Khalid Nilsson"
        },
        "effectiveDateTime": "2015-08-10T23:04:23Z",
        "specimen": {
          "reference": "urn:uuid:b9712e4d-ac52-4a8a-80ef-d0719dd7c356"
        }
      }
    },
    {
      "fullUrl": "urn:uuid:4d846af5-894c-4a8f-bbe9-8419774b99e6",
      "resource": {
        "resourceType": "Observation",
        "id": "4d846af5-894c-4a8f-bbe9-8419774b99e6",
        "meta": {
          "profile": [
            "http://hl7.eu/fhir/laboratory/StructureDefinition/Observation-resultslab-eu-lab"
          ]
        },
        "performer": [
          {
            "display": "The Central European Lab"
          }
        ],
        "category": [
          {
            "coding": [
              {
                "system": "http://terminology.hl7.org/CodeSystem/observation-category",
                "code": "laboratory"
              }
            ]
          }
        ],
        "code": {
          "coding": [
            {
              "code": "6299-2",
              "system": "http://loinc.org",
              "display": "Urea nitrogen [Mass/volume] in Blood"
            }
          ],
          "text": "Urea nitrogen [Mass/volume] in Blood"
        },
        "valueQuantity": {
          "system": "http://unitsofmeasure.org",
          "value": 7.2,
          "unit": "mg/dL",
          "code": "mg/dL"
        },
        "referenceRange": [
          {
            "low": {
              "value": 7,
              "code": "mg/dL",
              "system": "http://unitsofmeasure.org"
            }
          },
          {
            "high": {
              "value": 20,
              "code": "mg/dL",
              "system": "http://unitsofmeasure.org"
            }
          }
        ],
        "text": {
          "status": "generated",
          "div": "<div xmlns=\"http://www.w3.org/1999/xhtml\"><table class=\"hl7__eu__lab__report\"><tr><th>Test</th><th>11-Aug-2015</th><th>Reference&#xA0;Range</th><th>Unit</th></tr><tr><td>Urea nitrogen [Mass/volume] in Blood</td><td>7.2</td><td>7 - 20</td><td></td><td>mg/dL</td></tr></table></div>"
        },
        "status": "final",
        "subject": {
          "reference": "urn:uuid:56b6326e-daec-413b-b1f5-a7bc688a9e3b",
          "display": "Khalid Nilsson"
        },
        "effectiveDateTime": "2015-08-10T23:04:23Z",
        "specimen": {
          "reference": "urn:uuid:b9712e4d-ac52-4a8a-80ef-d0719dd7c356"
        }
      }
    },
    {
      "fullUrl": "urn:uuid:a6a27dde-0af0-44fe-afb2-3eadb78ecee7",
      "resource": {
        "resourceType": "Observation",
        "id": "a6a27dde-0af0-44fe-afb2-3eadb78ecee7",
        "meta": {
          "profile": [
            "http://hl7.eu/fhir/laboratory/StructureDefinition/Observation-resultslab-eu-lab"
          ]
        },
        "performer": [
          {
            "display": "The Central European Lab"
          }
        ],
        "category": [
          {
            "coding": [
              {
                "system": "http://terminology.hl7.org/CodeSystem/observation-category",
                "code": "laboratory"
              }
            ]
          }
        ],
        "code": {
          "coding": [
            {
              "code": "38483-4",
              "system": "http://loinc.org",
              "display": "Creatinine [Mass/volume] in Blood"
            }
          ],
          "text": "Creatinine [Mass/volume] in Blood"
        },
        "valueQuantity": {
          "system": "http://unitsofmeasure.org",
          "value": 1.1,
          "unit": "mg/dL",
          "code": "mg/dL"
        },
        "referenceRange": [
          {
            "low": {
              "value": 0.9,
              "code": "mg/dL",
              "system": "http://unitsofmeasure.org"
            }
          },
          {
            "high": {
              "value": 1.3,
              "code": "mg/dL",
              "system": "http://unitsofmeasure.org"
            }
          }
        ],
        "text": {
          "status": "generated",
          "div": "<div xmlns=\"http://www.w3.org/1999/xhtml\"><table class=\"hl7__eu__lab__report\"><tr><th>Test</th><th>11-Aug-2015</th><th>Reference&#xA0;Range</th><th>Unit</th></tr><tr><td>Creatinine [Mass/volume] in Blood</td><td>1.1</td><td>0.9 - 1.3</td><td></td><td>mg/dL</td></tr></table></div>"
        },
        "status": "final",
        "subject": {
          "reference": "urn:uuid:56b6326e-daec-413b-b1f5-a7bc688a9e3b",
          "display": "Khalid Nilsson"
        },
        "effectiveDateTime": "2015-08-10T23:04:23Z",
        "specimen": {
          "reference": "urn:uuid:b9712e4d-ac52-4a8a-80ef-d0719dd7c356"
        }
      }
    },
    {
      "fullUrl": "urn:uuid:8f66ea30-9750-4735-b824-f37516f596b6",
      "resource": {
        "resourceType": "Observation",
        "id": "8f66ea30-9750-4735-b824-f37516f596b6",
        "meta": {
          "profile": [
            "http://hl7.eu/fhir/laboratory/StructureDefinition/Observation-resultslab-eu-lab"
          ]
        },
        "performer": [
          {
            "display": "The Central European Lab"
          }
        ],
        "category": [
          {
            "coding": [
              {
                "system": "http://terminology.hl7.org/CodeSystem/observation-category",
                "code": "laboratory"
              }
            ]
          }
        ],
        "code": {
          "coding": [
            {
              "code": "49765-1",
              "system": "http://loinc.org",
              "display": "Calcium [Mass/volume] in Blood"
            }
          ],
          "text": "Calcium [Mass/volume] in Blood"
        },
        "valueQuantity": {
          "system": "http://unitsofmeasure.org",
          "value": 9,
          "unit": "mg/dL",
          "code": "mg/dL"
        },
        "referenceRange": [
          {
            "low": {
              "value": 8.6,
              "code": "mg/dL",
              "system": "http://unitsofmeasure.org"
            }
          },
          {
            "high": {
              "value": 10.2,
              "code": "mg/dL",
              "system": "http://unitsofmeasure.org"
            }
          }
        ],
        "text": {
          "status": "generated",
          "div": "<div xmlns=\"http://www.w3.org/1999/xhtml\"><table class=\"hl7__eu__lab__report\"><tr><th>Test</th><th>11-Aug-2015</th><th>Reference&#xA0;Range</th><th>Unit</th></tr><tr><td>Calcium [Mass/volume] in Blood</td><td>9.0</td><td>8.6 - 10.2</td><td></td><td>mg/dL</td></tr></table></div>"
        },
        "status": "final",
        "subject": {
          "reference": "urn:uuid:56b6326e-daec-413b-b1f5-a7bc688a9e3b",
          "display": "Khalid Nilsson"
        },
        "effectiveDateTime": "2015-08-10T23:04:23Z",
        "specimen": {
          "reference": "urn:uuid:b9712e4d-ac52-4a8a-80ef-d0719dd7c356"
        }
      }
    },
    {
      "fullUrl": "urn:uuid:8f9c2436-976f-45da-a6f7-a8c6db7fe8ef",
      "resource": {
        "resourceType": "Observation",
        "id": "8f9c2436-976f-45da-a6f7-a8c6db7fe8ef",
        "meta": {
          "profile": [
            "http://hl7.eu/fhir/laboratory/StructureDefinition/Observation-resultslab-eu-lab"
          ]
        },
        "performer": [
          {
            "display": "The Central European Lab"
          }
        ],
        "category": [
          {
            "coding": [
              {
                "system": "http://terminology.hl7.org/CodeSystem/observation-category",
                "code": "laboratory"
              }
            ]
          }
        ],
        "code": {
          "coding": [
            {
              "code": "2947-0",
              "system": "http://loinc.org",
              "display": "Sodium [Moles/volume] in Blood"
            }
          ],
          "text": "Sodium [Moles/volume] in Blood"
        },
        "valueQuantity": {
          "system": "http://unitsofmeasure.org",
          "value": 142.4,
          "unit": "mmol/L",
          "code": "mmol/L"
        },
        "referenceRange": [
          {
            "low": {
              "value": 135,
              "code": "mmol/L",
              "system": "http://unitsofmeasure.org"
            }
          },
          {
            "high": {
              "value": 145,
              "code": "mmol/L",
              "system": "http://unitsofmeasure.org"
            }
          }
        ],
        "text": {
          "status": "generated",
          "div": "<div xmlns=\"http://www.w3.org/1999/xhtml\"><table class=\"hl7__eu__lab__report\"><tr><th>Test</th><th>11-Aug-2015</th><th>Reference&#xA0;Range</th><th>Unit</th></tr><tr><td>Sodium [Moles/volume] in Blood</td><td>142.4</td><td>135 - 145</td><td></td><td>mmol/L</td></tr></table></div>"
        },
        "status": "final",
        "subject": {
          "reference": "urn:uuid:56b6326e-daec-413b-b1f5-a7bc688a9e3b",
          "display": "Khalid Nilsson"
        },
        "effectiveDateTime": "2015-08-10T23:04:23Z",
        "specimen": {
          "reference": "urn:uuid:b9712e4d-ac52-4a8a-80ef-d0719dd7c356"
        }
      }
    },
    {
      "fullUrl": "urn:uuid:5fad7c4c-c418-4ccc-a6f7-a23c0c927ecb",
      "resource": {
        "resourceType": "Observation",
        "id": "5fad7c4c-c418-4ccc-a6f7-a23c0c927ecb",
        "meta": {
          "profile": [
            "http://hl7.eu/fhir/laboratory/StructureDefinition/Observation-resultslab-eu-lab"
          ]
        },
        "performer": [
          {
            "display": "The Central European Lab"
          }
        ],
        "category": [
          {
            "coding": [
              {
                "system": "http://terminology.hl7.org/CodeSystem/observation-category",
                "code": "laboratory"
              }
            ]
          }
        ],
        "code": {
          "coding": [
            {
              "code": "6298-4",
              "system": "http://loinc.org",
              "display": "Potassium [Moles/volume] in Blood"
            }
          ],
          "text": "Potassium [Moles/volume] in Blood"
        },
        "valueQuantity": {
          "system": "http://unitsofmeasure.org",
          "value": 4.8,
          "unit": "mmol/L",
          "code": "mmol/L"
        },
        "referenceRange": [
          {
            "low": {
              "value": 3.5,
              "code": "mmol/L",
              "system": "http://unitsofmeasure.org"
            }
          },
          {
            "high": {
              "value": 5.1,
              "code": "mmol/L",
              "system": "http://unitsofmeasure.org"
            }
          }
        ],
        "text": {
          "status": "generated",
          "div": "<div xmlns=\"http://www.w3.org/1999/xhtml\"><table class=\"hl7__eu__lab__report\"><tr><th>Test</th><th>11-Aug-2015</th><th>Reference&#xA0;Range</th><th>Unit</th></tr><tr><td>Potassium [Moles/volume] in Blood</td><td>4.8</td><td>3.5 - 5.1</td><td></td><td>mmol/L</td></tr></table></div>"
        },
        "status": "final",
        "subject": {
          "reference": "urn:uuid:56b6326e-daec-413b-b1f5-a7bc688a9e3b",
          "display": "Khalid Nilsson"
        },
        "effectiveDateTime": "2015-08-10T23:04:23Z",
        "specimen": {
          "reference": "urn:uuid:b9712e4d-ac52-4a8a-80ef-d0719dd7c356"
        }
      }
    },
    {
      "fullUrl": "urn:uuid:ef4e1698-e079-466f-b778-5ade841a39a5",
      "resource": {
        "resourceType": "Observation",
        "id": "ef4e1698-e079-466f-b778-5ade841a39a5",
        "meta": {
          "profile": [
            "http://hl7.eu/fhir/laboratory/StructureDefinition/Observation-resultslab-eu-lab"
          ]
        },
        "performer": [
          {
            "display": "The Central European Lab"
          }
        ],
        "category": [
          {
            "coding": [
              {
                "system": "http://terminology.hl7.org/CodeSystem/observation-category",
                "code": "laboratory"
              }
            ]
          }
        ],
        "code": {
          "coding": [
            {
              "code": "2069-3",
              "system": "http://loinc.org",
              "display": "Chloride [Moles/volume] in Blood"
            }
          ],
          "text": "Chloride [Moles/volume] in Blood"
        },
        "valueQuantity": {
          "system": "http://unitsofmeasure.org",
          "value": 105.2,
          "unit": "mmol/L",
          "code": "mmol/L"
        },
        "referenceRange": [
          {
            "low": {
              "value": 98,
              "code": "mmol/L",
              "system": "http://unitsofmeasure.org"
            }
          },
          {
            "high": {
              "value": 108,
              "code": "mmol/L",
              "system": "http://unitsofmeasure.org"
            }
          }
        ],
        "text": {
          "status": "generated",
          "div": "<div xmlns=\"http://www.w3.org/1999/xhtml\"><table class=\"hl7__eu__lab__report\"><tr><th>Test</th><th>11-Aug-2015</th><th>Reference&#xA0;Range</th><th>Unit</th></tr><tr><td>Chloride [Moles/volume] in Blood</td><td>105.2</td><td>98 - 108</td><td></td><td>mmol/L</td></tr></table></div>"
        },
        "status": "final",
        "subject": {
          "reference": "urn:uuid:56b6326e-daec-413b-b1f5-a7bc688a9e3b",
          "display": "Khalid Nilsson"
        },
        "effectiveDateTime": "2015-08-10T23:04:23Z",
        "specimen": {
          "reference": "urn:uuid:b9712e4d-ac52-4a8a-80ef-d0719dd7c356"
        }
      }
    },
    {
      "fullUrl": "urn:uuid:cb7dbfb8-7642-420b-9356-5fec7a5c8a5b",
      "resource": {
        "resourceType": "Observation",
        "id": "cb7dbfb8-7642-420b-9356-5fec7a5c8a5b",
        "meta": {
          "profile": [
            "http://hl7.eu/fhir/laboratory/StructureDefinition/Observation-resultslab-eu-lab"
          ]
        },
        "performer": [
          {
            "display": "The Central European Lab"
          }
        ],
        "category": [
          {
            "coding": [
              {
                "system": "http://terminology.hl7.org/CodeSystem/observation-category",
                "code": "laboratory"
              }
            ]
          }
        ],
        "code": {
          "coding": [
            {
              "code": "20565-8",
              "system": "http://loinc.org",
              "display": "Carbon dioxide, total [Moles/volume] in Blood"
            }
          ],
          "text": "Carbon dioxide, total [Moles/volume] in Blood"
        },
        "valueQuantity": {
          "system": "http://unitsofmeasure.org",
          "value": 28.9,
          "unit": "mmol/L",
          "code": "mmol/L"
        },
        "referenceRange": [
          {
            "low": {
              "value": 22,
              "code": "mmol/L",
              "system": "http://unitsofmeasure.org"
            }
          },
          {
            "high": {
              "value": 29,
              "code": "mmol/L",
              "system": "http://unitsofmeasure.org"
            }
          }
        ],
        "text": {
          "status": "generated",
          "div": "<div xmlns=\"http://www.w3.org/1999/xhtml\"><table class=\"hl7__eu__lab__report\"><tr><th>Test</th><th>11-Aug-2015</th><th>Reference&#xA0;Range</th><th>Unit</th></tr><tr><td>Carbon dioxide, total [Moles/volume] in Blood</td><td>28.9</td><td>22 - 29</td><td></td><td>mmol/L</td></tr></table></div>"
        },
        "status": "final",
        "subject": {
          "reference": "urn:uuid:56b6326e-daec-413b-b1f5-a7bc688a9e3b",
          "display": "Khalid Nilsson"
        },
        "effectiveDateTime": "2015-08-10T23:04:23Z",
        "specimen": {
          "reference": "urn:uuid:b9712e4d-ac52-4a8a-80ef-d0719dd7c356"
        }
      }
    },
    {
      "fullUrl": "urn:uuid:859ceaf1-87bb-4f63-bbeb-646f3d198c4a",
      "resource": {
        "resourceType": "Observation",
        "id": "859ceaf1-87bb-4f63-bbeb-646f3d198c4a",
        "meta": {
          "profile": [
            "http://hl7.eu/fhir/laboratory/StructureDefinition/Observation-resultslab-eu-lab"
          ]
        },
        "performer": [
          {
            "display": "The Central European Lab"
          }
        ],
        "category": [
          {
            "coding": [
              {
                "system": "http://terminology.hl7.org/CodeSystem/observation-category",
                "code": "laboratory"
              }
            ]
          }
        ],
        "code": {
          "coding": [
            {
              "code": "6690-2",
              "system": "http://loinc.org",
              "display": "Leukocytes [#/volume] in Blood by Automated count"
            }
          ],
          "text": "Leukocytes [#/volume] in Blood by Automated count"
        },
        "valueQuantity": {
          "system": "http://unitsofmeasure.org",
          "value": 6.4,
          "unit": "10*3/uL",
          "code": "10*3/uL"
        },
        "referenceRange": [
          {
            "low": {
              "value": 3.5,
              "code": "10*3/uL",
              "system": "http://unitsofmeasure.org"
            }
          },
          {
            "high": {
              "value": 10.5,
              "code": "10*3/uL",
              "system": "http://unitsofmeasure.org"
            }
          }
        ],
        "text": {
          "status": "generated",
          "div": "<div xmlns=\"http://www.w3.org/1999/xhtml\"><table class=\"hl7__eu__lab__report\"><tr><th>Test</th><th>11-Aug-2015</th><th>Reference&#xA0;Range</th><th>Unit</th></tr><tr><td>Leukocytes [#/volume] in Blood by Automated count</td><td>6.4</td><td>3.5 - 10.5</td><td></td><td>10*3/uL</td></tr></table></div>"
        },
        "status": "final",
        "subject": {
          "reference": "urn:uuid:56b6326e-daec-413b-b1f5-a7bc688a9e3b",
          "display": "Khalid Nilsson"
        },
        "effectiveDateTime": "2015-08-10T23:04:23Z",
        "specimen": {
          "reference": "urn:uuid:b9712e4d-ac52-4a8a-80ef-d0719dd7c356"
        }
      }
    },
    {
      "fullUrl": "urn:uuid:a9cf00ee-d183-4a4a-9bec-2662341975d3",
      "resource": {
        "resourceType": "Observation",
        "id": "a9cf00ee-d183-4a4a-9bec-2662341975d3",
        "meta": {
          "profile": [
            "http://hl7.eu/fhir/laboratory/StructureDefinition/Observation-resultslab-eu-lab"
          ]
        },
        "performer": [
          {
            "display": "The Central European Lab"
          }
        ],
        "category": [
          {
            "coding": [
              {
                "system": "http://terminology.hl7.org/CodeSystem/observation-category",
                "code": "laboratory"
              }
            ]
          }
        ],
        "code": {
          "coding": [
            {
              "code": "789-8",
              "system": "http://loinc.org",
              "display": "Erythrocytes [#/volume] in Blood by Automated count"
            }
          ],
          "text": "Erythrocytes [#/volume] in Blood by Automated count"
        },
        "valueQuantity": {
          "system": "http://unitsofmeasure.org",
          "value": 5.1,
          "unit": "10*6/uL",
          "code": "10*6/uL"
        },
        "referenceRange": [
          {
            "low": {
              "value": 4.2,
              "code": "10*6/uL",
              "system": "http://unitsofmeasure.org"
            }
          },
          {
            "high": {
              "value": 6.2,
              "code": "10*6/uL",
              "system": "http://unitsofmeasure.org"
            }
          }
        ],
        "text": {
          "status": "generated",
          "div": "<div xmlns=\"http://www.w3.org/1999/xhtml\"><table class=\"hl7__eu__lab__report\"><tr><th>Test</th><th>11-Aug-2015</th><th>Reference&#xA0;Range</th><th>Unit</th></tr><tr><td>Erythrocytes [#/volume] in Blood by Automated count</td><td>5.1</td><td>4.2 - 6.2</td><td></td><td>10*6/uL</td></tr></table></div>"
        },
        "status": "final",
        "subject": {
          "reference": "urn:uuid:56b6326e-daec-413b-b1f5-a7bc688a9e3b",
          "display": "Khalid Nilsson"
        },
        "effectiveDateTime": "2015-08-10T23:04:23Z",
        "specimen": {
          "reference": "urn:uuid:b9712e4d-ac52-4a8a-80ef-d0719dd7c356"
        }
      }
    },
    {
      "fullUrl": "urn:uuid:e5ece940-3b53-4f50-96c9-0810fc4cdb9a",
      "resource": {
        "resourceType": "Observation",
        "id": "e5ece940-3b53-4f50-96c9-0810fc4cdb9a",
        "meta": {
          "profile": [
            "http://hl7.eu/fhir/laboratory/StructureDefinition/Observation-resultslab-eu-lab"
          ]
        },
        "performer": [
          {
            "display": "The Central European Lab"
          }
        ],
        "category": [
          {
            "coding": [
              {
                "system": "http://terminology.hl7.org/CodeSystem/observation-category",
                "code": "laboratory"
              }
            ]
          }
        ],
        "code": {
          "coding": [
            {
              "code": "718-7",
              "system": "http://loinc.org",
              "display": "Hemoglobin [Mass/volume] in Blood"
            }
          ],
          "text": "Hemoglobin [Mass/volume] in Blood"
        },
        "valueQuantity": {
          "system": "http://unitsofmeasure.org",
          "value": 13.9,
          "unit": "g/dL",
          "code": "g/dL"
        },
        "referenceRange": [
          {
            "low": {
              "value": 13.5,
              "code": "g/dL",
              "system": "http://unitsofmeasure.org"
            }
          },
          {
            "high": {
              "value": 17.5,
              "code": "g/dL",
              "system": "http://unitsofmeasure.org"
            }
          }
        ],
        "text": {
          "status": "generated",
          "div": "<div xmlns=\"http://www.w3.org/1999/xhtml\"><table class=\"hl7__eu__lab__report\"><tr><th>Test</th><th>11-Aug-2015</th><th>Reference&#xA0;Range</th><th>Unit</th></tr><tr><td>Hemoglobin [Mass/volume] in Blood</td><td>13.9</td><td>13.5 - 17.5</td><td></td><td>g/dL</td></tr></table></div>"
        },
        "status": "final",
        "subject": {
          "reference": "urn:uuid:56b6326e-daec-413b-b1f5-a7bc688a9e3b",
          "display": "Khalid Nilsson"
        },
        "effectiveDateTime": "2015-08-10T23:04:23Z",
        "specimen": {
          "reference": "urn:uuid:b9712e4d-ac52-4a8a-80ef-d0719dd7c356"
        }
      }
    },
    {
      "fullUrl": "urn:uuid:e80e00e7-59f9-4b81-8848-b1e4995a29f4",
      "resource": {
        "resourceType": "Observation",
        "id": "e80e00e7-59f9-4b81-8848-b1e4995a29f4",
        "meta": {
          "profile": [
            "http://hl7.eu/fhir/laboratory/StructureDefinition/Observation-resultslab-eu-lab"
          ]
        },
        "performer": [
          {
            "display": "The Central European Lab"
          }
        ],
        "category": [
          {
            "coding": [
              {
                "system": "http://terminology.hl7.org/CodeSystem/observation-category",
                "code": "laboratory"
              }
            ]
          }
        ],
        "code": {
          "coding": [
            {
              "code": "4544-3",
              "system": "http://loinc.org",
              "display": "Hematocrit [Volume Fraction] of Blood by Automated count"
            }
          ],
          "text": "Hematocrit [Volume Fraction] of Blood by Automated count"
        },
        "valueQuantity": {
          "system": "http://unitsofmeasure.org",
          "value": 35.4,
          "unit": "%",
          "code": "%"
        },
        "referenceRange": [
          {
            "low": {
              "value": 37,
              "code": "%",
              "system": "http://unitsofmeasure.org"
            }
          },
          {
            "high": {
              "value": 52,
              "code": "%",
              "system": "http://unitsofmeasure.org"
            }
          }
        ],
        "interpretation": [
          {
            "coding": [
              {
                "code": "L",
                "system": "http://terminology.hl7.org/CodeSystem/v3-ObservationInterpretation",
                "display": "Low"
              }
            ]
          }
        ],
        "text": {
          "status": "generated",
          "div": "<div xmlns=\"http://www.w3.org/1999/xhtml\"><table class=\"hl7__eu__lab__report\"><tr><th>Test</th><th>11-Aug-2015</th><th>Reference&#xA0;Range</th><th>Unit</th></tr><tr><td>Hematocrit [Volume Fraction] of Blood by Automated count</td><td>35.4</td><td>37 - 52</td><td>L</td><td>%</td></tr></table></div>"
        },
        "status": "final",
        "subject": {
          "reference": "urn:uuid:56b6326e-daec-413b-b1f5-a7bc688a9e3b",
          "display": "Khalid Nilsson"
        },
        "effectiveDateTime": "2015-08-10T23:04:23Z",
        "specimen": {
          "reference": "urn:uuid:b9712e4d-ac52-4a8a-80ef-d0719dd7c356"
        }
      }
    },
    {
      "fullUrl": "urn:uuid:a915de44-84fc-4f5f-b93a-7047a1f1fbc9",
      "resource": {
        "resourceType": "Observation",
        "id": "a915de44-84fc-4f5f-b93a-7047a1f1fbc9",
        "meta": {
          "profile": [
            "http://hl7.eu/fhir/laboratory/StructureDefinition/Observation-resultslab-eu-lab"
          ]
        },
        "performer": [
          {
            "display": "The Central European Lab"
          }
        ],
        "category": [
          {
            "coding": [
              {
                "system": "http://terminology.hl7.org/CodeSystem/observation-category",
                "code": "laboratory"
              }
            ]
          }
        ],
        "code": {
          "coding": [
            {
              "code": "787-2",
              "system": "http://loinc.org",
              "display": "MCV [Entitic volume] by Automated count"
            }
          ],
          "text": "MCV [Entitic volume] by Automated count"
        },
        "valueQuantity": {
          "system": "http://unitsofmeasure.org",
          "value": 91.9,
          "unit": "fL",
          "code": "fL"
        },
        "referenceRange": [
          {
            "low": {
              "value": 80,
              "code": "fL",
              "system": "http://unitsofmeasure.org"
            }
          },
          {
            "high": {
              "value": 105,
              "code": "fL",
              "system": "http://unitsofmeasure.org"
            }
          }
        ],
        "text": {
          "status": "generated",
          "div": "<div xmlns=\"http://www.w3.org/1999/xhtml\"><table class=\"hl7__eu__lab__report\"><tr><th>Test</th><th>11-Aug-2015</th><th>Reference&#xA0;Range</th><th>Unit</th></tr><tr><td>MCV [Entitic volume] by Automated count</td><td>91.9</td><td>80 - 105</td><td></td><td>fL</td></tr></table></div>"
        },
        "status": "final",
        "subject": {
          "reference": "urn:uuid:56b6326e-daec-413b-b1f5-a7bc688a9e3b",
          "display": "Khalid Nilsson"
        },
        "effectiveDateTime": "2015-08-10T23:04:23Z",
        "specimen": {
          "reference": "urn:uuid:b9712e4d-ac52-4a8a-80ef-d0719dd7c356"
        }
      }
    },
    {
      "fullUrl": "urn:uuid:884ac92c-e075-4849-b89c-a67f26fcd32b",
      "resource": {
        "resourceType": "Observation",
        "id": "884ac92c-e075-4849-b89c-a67f26fcd32b",
        "meta": {
          "profile": [
            "http://hl7.eu/fhir/laboratory/StructureDefinition/Observation-resultslab-eu-lab"
          ]
        },
        "performer": [
          {
            "display": "The Central European Lab"
          }
        ],
        "category": [
          {
            "coding": [
              {
                "system": "http://terminology.hl7.org/CodeSystem/observation-category",
                "code": "laboratory"
              }
            ]
          }
        ],
        "code": {
          "coding": [
            {
              "code": "785-6",
              "system": "http://loinc.org",
              "display": "MCH [Entitic mass] by Automated count"
            }
          ],
          "text": "MCH [Entitic mass] by Automated count"
        },
        "valueQuantity": {
          "system": "http://unitsofmeasure.org",
          "value": 27.1,
          "unit": "pg",
          "code": "pg"
        },
        "referenceRange": [
          {
            "low": {
              "value": 27,
              "code": "pg",
              "system": "http://unitsofmeasure.org"
            }
          },
          {
            "high": {
              "value": 33,
              "code": "pg",
              "system": "http://unitsofmeasure.org"
            }
          }
        ],
        "text": {
          "status": "generated",
          "div": "<div xmlns=\"http://www.w3.org/1999/xhtml\"><table class=\"hl7__eu__lab__report\"><tr><th>Test</th><th>11-Aug-2015</th><th>Reference&#xA0;Range</th><th>Unit</th></tr><tr><td>MCH [Entitic mass] by Automated count</td><td>27.1</td><td>27 - 33</td><td></td><td>pg</td></tr></table></div>"
        },
        "status": "final",
        "subject": {
          "reference": "urn:uuid:56b6326e-daec-413b-b1f5-a7bc688a9e3b",
          "display": "Khalid Nilsson"
        },
        "effectiveDateTime": "2015-08-10T23:04:23Z",
        "specimen": {
          "reference": "urn:uuid:b9712e4d-ac52-4a8a-80ef-d0719dd7c356"
        }
      }
    },
    {
      "fullUrl": "urn:uuid:1329a592-0a1c-4047-a7c2-30e871788f29",
      "resource": {
        "resourceType": "Observation",
        "id": "1329a592-0a1c-4047-a7c2-30e871788f29",
        "meta": {
          "profile": [
            "http://hl7.eu/fhir/laboratory/StructureDefinition/Observation-resultslab-eu-lab"
          ]
        },
        "performer": [
          {
            "display": "The Central European Lab"
          }
        ],
        "category": [
          {
            "coding": [
              {
                "system": "http://terminology.hl7.org/CodeSystem/observation-category",
                "code": "laboratory"
              }
            ]
          }
        ],
        "code": {
          "coding": [
            {
              "code": "786-4",
              "system": "http://loinc.org",
              "display": "MCHC [Mass/volume] by Automated count"
            }
          ],
          "text": "MCHC [Mass/volume] by Automated count"
        },
        "valueQuantity": {
          "system": "http://unitsofmeasure.org",
          "value": 34.7,
          "unit": "g/dL",
          "code": "g/dL"
        },
        "referenceRange": [
          {
            "low": {
              "value": 31,
              "code": "g/dL",
              "system": "http://unitsofmeasure.org"
            }
          },
          {
            "high": {
              "value": 36,
              "code": "g/dL",
              "system": "http://unitsofmeasure.org"
            }
          }
        ],
        "text": {
          "status": "generated",
          "div": "<div xmlns=\"http://www.w3.org/1999/xhtml\"><table class=\"hl7__eu__lab__report\"><tr><th>Test</th><th>11-Aug-2015</th><th>Reference&#xA0;Range</th><th>Unit</th></tr><tr><td>MCHC [Mass/volume] by Automated count</td><td>34.7</td><td>31 - 36</td><td></td><td>g/dL</td></tr></table></div>"
        },
        "status": "final",
        "subject": {
          "reference": "urn:uuid:56b6326e-daec-413b-b1f5-a7bc688a9e3b",
          "display": "Khalid Nilsson"
        },
        "effectiveDateTime": "2015-08-10T23:04:23Z",
        "specimen": {
          "reference": "urn:uuid:b9712e4d-ac52-4a8a-80ef-d0719dd7c356"
        }
      }
    },
    {
      "fullUrl": "urn:uuid:9987d3fd-ac4a-4c46-97ab-979ad9b65190",
      "resource": {
        "resourceType": "Observation",
        "id": "9987d3fd-ac4a-4c46-97ab-979ad9b65190",
        "meta": {
          "profile": [
            "http://hl7.eu/fhir/laboratory/StructureDefinition/Observation-resultslab-eu-lab"
          ]
        },
        "performer": [
          {
            "display": "The Central European Lab"
          }
        ],
        "category": [
          {
            "coding": [
              {
                "system": "http://terminology.hl7.org/CodeSystem/observation-category",
                "code": "laboratory"
              }
            ]
          }
        ],
        "code": {
          "coding": [
            {
              "code": "21000-5",
              "system": "http://loinc.org",
              "display": "Erythrocyte distribution width [Entitic volume] by Automated count"
            }
          ],
          "text": "Erythrocyte distribution width [Entitic volume] by Automated count"
        },
        "valueQuantity": {
          "system": "http://unitsofmeasure.org",
          "value": 45.8,
          "unit": "fL",
          "code": "fL"
        },
        "referenceRange": [
          {
            "low": {
              "value": 36,
              "code": "fL",
              "system": "http://unitsofmeasure.org"
            }
          },
          {
            "high": {
              "value": 55,
              "code": "fL",
              "system": "http://unitsofmeasure.org"
            }
          }
        ],
        "text": {
          "status": "generated",
          "div": "<div xmlns=\"http://www.w3.org/1999/xhtml\"><table class=\"hl7__eu__lab__report\"><tr><th>Test</th><th>11-Aug-2015</th><th>Reference&#xA0;Range</th><th>Unit</th></tr><tr><td>Erythrocyte distribution width [Entitic volume] by Automated count</td><td>45.8</td><td>36 - 55</td><td></td><td>fL</td></tr></table></div>"
        },
        "status": "final",
        "subject": {
          "reference": "urn:uuid:56b6326e-daec-413b-b1f5-a7bc688a9e3b",
          "display": "Khalid Nilsson"
        },
        "effectiveDateTime": "2015-08-10T23:04:23Z",
        "specimen": {
          "reference": "urn:uuid:b9712e4d-ac52-4a8a-80ef-d0719dd7c356"
        }
      }
    },
    {
      "fullUrl": "urn:uuid:d26a8efa-86c1-4855-a018-0b99d75ebd19",
      "resource": {
        "resourceType": "Observation",
        "id": "d26a8efa-86c1-4855-a018-0b99d75ebd19",
        "meta": {
          "profile": [
            "http://hl7.eu/fhir/laboratory/StructureDefinition/Observation-resultslab-eu-lab"
          ]
        },
        "performer": [
          {
            "display": "The Central European Lab"
          }
        ],
        "category": [
          {
            "coding": [
              {
                "system": "http://terminology.hl7.org/CodeSystem/observation-category",
                "code": "laboratory"
              }
            ]
          }
        ],
        "code": {
          "coding": [
            {
              "code": "777-3",
              "system": "http://loinc.org",
              "display": "Platelets [#/volume] in Blood by Automated count"
            }
          ],
          "text": "Platelets [#/volume] in Blood by Automated count"
        },
        "valueQuantity": {
          "system": "http://unitsofmeasure.org",
          "value": 197.2,
          "unit": "10*3/uL",
          "code": "10*3/uL"
        },
        "referenceRange": [
          {
            "low": {
              "value": 150,
              "code": "10*3/uL",
              "system": "http://unitsofmeasure.org"
            }
          },
          {
            "high": {
              "value": 350,
              "code": "10*3/uL",
              "system": "http://unitsofmeasure.org"
            }
          }
        ],
        "text": {
          "status": "generated",
          "div": "<div xmlns=\"http://www.w3.org/1999/xhtml\"><table class=\"hl7__eu__lab__report\"><tr><th>Test</th><th>11-Aug-2015</th><th>Reference&#xA0;Range</th><th>Unit</th></tr><tr><td>Platelets [#/volume] in Blood by Automated count</td><td>197.2</td><td>150 - 350</td><td></td><td>10*3/uL</td></tr></table></div>"
        },
        "status": "final",
        "subject": {
          "reference": "urn:uuid:56b6326e-daec-413b-b1f5-a7bc688a9e3b",
          "display": "Khalid Nilsson"
        },
        "effectiveDateTime": "2015-08-10T23:04:23Z",
        "specimen": {
          "reference": "urn:uuid:b9712e4d-ac52-4a8a-80ef-d0719dd7c356"
        }
      }
    },
    {
      "fullUrl": "urn:uuid:ec099938-5e67-4a77-a949-f5c93b3f56d2",
      "resource": {
        "resourceType": "Observation",
        "id": "ec099938-5e67-4a77-a949-f5c93b3f56d2",
        "meta": {
          "profile": [
            "http://hl7.eu/fhir/laboratory/StructureDefinition/Observation-resultslab-eu-lab"
          ]
        },
        "performer": [
          {
            "display": "The Central European Lab"
          }
        ],
        "category": [
          {
            "coding": [
              {
                "system": "http://terminology.hl7.org/CodeSystem/observation-category",
                "code": "laboratory"
              }
            ]
          }
        ],
        "code": {
          "coding": [
            {
              "code": "32207-3",
              "system": "http://loinc.org",
              "display": "Platelet distribution width [Entitic volume] in Blood by Automated count"
            }
          ],
          "text": "Platelet distribution width [Entitic volume] in Blood by Automated count"
        },
        "valueQuantity": {
          "system": "http://unitsofmeasure.org",
          "value": 402.3,
          "unit": "fL",
          "code": "fL"
        },
        "referenceRange": [
          {
            "low": {
              "value": 144,
              "code": "fL",
              "system": "http://unitsofmeasure.org"
            }
          },
          {
            "high": {
              "value": 366,
              "code": "fL",
              "system": "http://unitsofmeasure.org"
            }
          }
        ],
        "interpretation": [
          {
            "coding": [
              {
                "code": "H",
                "system": "http://terminology.hl7.org/CodeSystem/v3-ObservationInterpretation",
                "display": "High"
              }
            ]
          }
        ],
        "text": {
          "status": "generated",
          "div": "<div xmlns=\"http://www.w3.org/1999/xhtml\"><table class=\"hl7__eu__lab__report\"><tr><th>Test</th><th>11-Aug-2015</th><th>Reference&#xA0;Range</th><th>Unit</th></tr><tr><td>Platelet distribution width [Entitic volume] in Blood by Automated count</td><td>402.3</td><td>144 - 366</td><td>H</td><td>fL</td></tr></table></div>"
        },
        "status": "final",
        "subject": {
          "reference": "urn:uuid:56b6326e-daec-413b-b1f5-a7bc688a9e3b",
          "display": "Khalid Nilsson"
        },
        "effectiveDateTime": "2015-08-10T23:04:23Z",
        "specimen": {
          "reference": "urn:uuid:b9712e4d-ac52-4a8a-80ef-d0719dd7c356"
        }
      }
    },
    {
      "fullUrl": "urn:uuid:63973389-5ae4-4fe0-a18d-83402796bcc4",
      "resource": {
        "resourceType": "Observation",
        "id": "63973389-5ae4-4fe0-a18d-83402796bcc4",
        "meta": {
          "profile": [
            "http://hl7.eu/fhir/laboratory/StructureDefinition/Observation-resultslab-eu-lab"
          ]
        },
        "performer": [
          {
            "display": "The Central European Lab"
          }
        ],
        "category": [
          {
            "coding": [
              {
                "system": "http://terminology.hl7.org/CodeSystem/observation-category",
                "code": "laboratory"
              }
            ]
          }
        ],
        "code": {
          "coding": [
            {
              "code": "32623-1",
              "system": "http://loinc.org",
              "display": "Platelet mean volume [Entitic volume] in Blood by Automated count"
            }
          ],
          "text": "Platelet mean volume [Entitic volume] in Blood by Automated count"
        },
        "valueQuantity": {
          "system": "http://unitsofmeasure.org",
          "value": 11,
          "unit": "fL",
          "code": "fL"
        },
        "referenceRange": [
          {
            "low": {
              "value": 7.2,
              "code": "fL",
              "system": "http://unitsofmeasure.org"
            }
          },
          {
            "high": {
              "value": 13.5,
              "code": "fL",
              "system": "http://unitsofmeasure.org"
            }
          }
        ],
        "text": {
          "status": "generated",
          "div": "<div xmlns=\"http://www.w3.org/1999/xhtml\"><table class=\"hl7__eu__lab__report\"><tr><th>Test</th><th>11-Aug-2015</th><th>Reference&#xA0;Range</th><th>Unit</th></tr><tr><td>Platelet mean volume [Entitic volume] in Blood by Automated count</td><td>11.0</td><td>7.2 - 13.5</td><td></td><td>fL</td></tr></table></div>"
        },
        "status": "final",
        "subject": {
          "reference": "urn:uuid:56b6326e-daec-413b-b1f5-a7bc688a9e3b",
          "display": "Khalid Nilsson"
        },
        "effectiveDateTime": "2015-08-10T23:04:23Z",
        "specimen": {
          "reference": "urn:uuid:b9712e4d-ac52-4a8a-80ef-d0719dd7c356"
        }
      }
    },
    {
      "fullUrl": "urn:uuid:a85bf370-38a3-493e-ac12-48661f476eba",
      "resource": {
        "resourceType": "Device",
        "id": "a85bf370-38a3-493e-ac12-48661f476eba",
        "deviceName": [
          {
            "name": "SYNDERAI Synthetic Generator",
            "type": "manufacturer-name"
          }
        ],
        "version": [
          {
            "value": "5.0"
          }
        ],
        "text": {
          "status": "generated",
          "div": "<div xmlns=\"http://www.w3.org/1999/xhtml\">SYNDERAI Synthetic Generator v5.0</div>"
        },
        "status": "active\"",
        "distinctIdentifier": "synderai-generator-50",
        "manufacturer": "SYNDERAI Project"
      }
    },
    {
      "fullUrl": "urn:uuid:c8324b98-ef54-4a98-ad95-6112b9b57cbd",
      "resource": {
        "resourceType": "Provenance",
        "id": "c8324b98-ef54-4a98-ad95-6112b9b57cbd",
        "target": [
          {
            "reference": "Patient/56b6326e-daec-413b-b1f5-a7bc688a9e3b"
          },
          {
            "reference": "Bundle/c457a9e8-1188-40e1-a55d-70199997d477"
          },
          {
            "reference": "Composition/fb4f2144-b30b-4290-8df8-2055f5d00b09"
          },
          {
            "reference": "PractitionerRole/f1900e70-414e-49e4-a0fc-c77336c71f0a"
          },
          {
            "reference": "Practitioner/ed086ace-521e-4917-80ef-7e16890fa62a"
          },
          {
            "reference": "PractitionerRole/589ba668-cb57-478d-8758-d9bac9163a28"
          },
          {
            "reference": "Organization/aba86c78-17ca-4531-90bb-25f49282f008"
          }
        ],
        "activity": {
          "text": "Synthetic Example Data Generation"
        },
        "policy": [
          "https://synderai.net/synderai-synthetic-data-policy"
        ],
        "agent": [
          {
            "type": {
              "text": "author"
            },
            "who": {
              "reference": "Device/a85bf370-38a3-493e-ac12-48661f476eba"
            }
          }
        ],
        "reason": [
          {
            "text": "Interoperability Testing and Training (non-clinical use)"
          }
        ],
        "text": {
          "status": "generated",
          "div": "<div xmlns=\"http://www.w3.org/1999/xhtml\">Provenance for SYNDERAI Synthetic Example Data Resource</div>"
        },
        "recorded": "2015-08-11T01:04:23Z"
      }
    },
    {
      "fullUrl": "urn:uuid:f1900e70-414e-49e4-a0fc-c77336c71f0a",
      "resource": {
        "resourceType": "PractitionerRole",
        "id": "f1900e70-414e-49e4-a0fc-c77336c71f0a",
        "meta": {
          "profile": [
            "http://hl7.eu/fhir/base/StructureDefinition/practitionerRole-eu"
          ]
        },
        "text": {
          "status": "generated",
          "div": "<div xmlns=\"http://www.w3.org/1999/xhtml\">Laboratory Role Id: f1900e70-414e-49e4-a0fc-c77336c71f0a</div>"
        },
        "practitioner": {
          "reference": "urn:uuid:ed086ace-521e-4917-80ef-7e16890fa62a"
        }
      }
    },
    {
      "fullUrl": "urn:uuid:ed086ace-521e-4917-80ef-7e16890fa62a",
      "resource": {
        "resourceType": "Practitioner",
        "id": "ed086ace-521e-4917-80ef-7e16890fa62a",
        "meta": {
          "profile": [
            "http://hl7.eu/fhir/base/StructureDefinition/practitioner-eu"
          ]
        },
        "identifier": [
          {
            "assigner": {
              "display": "HL7 Europe"
            },
            "system": "urn:oid:2.16.840.1.113883.2.51.999",
            "value": "4fd070ef-871c-41ce-b7f7-5ed2534864a8"
          }
        ],
        "name": [
          {
            "prefix": [
              "dr"
            ],
            "given": [
              "Ex"
            ],
            "family": "Ample"
          }
        ],
        "address": [
          {
            "line": [
              "Laboratoire Central Européenne",
              "Boulevard du Jardin Botanique 32"
            ],
            "postalCode": "1000",
            "city": "Brussels",
            "country": "Belgium"
          }
        ],
        "text": {
          "status": "generated",
          "div": "<div xmlns=\"http://www.w3.org/1999/xhtml\">Laboratory: Laboratoire Central Européenne, 1000 Brussels, Belgium</div>"
        }
      }
    }
  ],
  "type": "document",
  "timestamp": "2015-08-11T01:04:23Z"
}
