{
  "resourceType": "Bundle",
  "id": "57391ba5-53e6-4bdd-8052-584293a40ee8",
  "meta": {
    "profile": [
      "http://hl7.eu/fhir/laboratory/StructureDefinition/Bundle-eu-lab"
    ]
  },
  "identifier": {
    "assigner": {
      "display": "HL7 Europe"
    },
    "system": "urn:oid:2.16.840.1.113883.2.51.999",
    "value": "74e8e6ae-ffab-4c3e-adde-a74a8d465fe5"
  },
  "entry": [
    {
      "fullUrl": "urn:uuid:38180a2a-cee0-48b4-9919-ea7916979e53",
      "resource": {
        "resourceType": "Composition",
        "id": "38180a2a-cee0-48b4-9919-ea7916979e53",
        "meta": {
          "profile": [
            "http://hl7.eu/fhir/laboratory/StructureDefinition/Composition-eu-lab"
          ]
        },
        "identifier": {
          "assigner": {
            "display": "HL7 Europe"
          },
          "system": "urn:oid:2.16.840.1.113883.2.51.999",
          "value": "9122354c-efa5-4f6e-9b44-ede16fee4c7b"
        },
        "author": [
          {
            "reference": "urn:uuid:f6fde60e-3ddf-4fd0-a97f-75712b12a242"
          }
        ],
        "category": [
          {
            "coding": [
              {
                "code": "26436-6",
                "system": "http://loinc.org",
                "display": "Laboratory studies (set)"
              }
            ]
          }
        ],
        "type": {
          "coding": [
            {
              "code": "11502-2",
              "system": "http://loinc.org",
              "display": "Laboratory report"
            }
          ],
          "text": "Laboratory Report"
        },
        "section": [
          {
            "code": {
              "coding": [
                {
                  "code": "26436-6",
                  "system": "http://loinc.org",
                  "display": "Laboratory studies (set)"
                }
              ],
              "text": "Laboratory studies"
            },
            "section": [
              {
                "code": {
                  "coding": [
                    {
                      "code": "$18719-5",
                      "system": "http://loinc.org",
                      "display": "Chemistry studies (set)"
                    }
                  ],
                  "text": "Chemistry"
                },
                "entry": [
                  {
                    "reference": "urn:uuid:25c2db9e-a93b-4825-88e4-d0dd4a992afb"
                  },
                  {
                    "reference": "urn:uuid:c934aa7e-0c83-4f25-ba21-3853d33e13f3"
                  },
                  {
                    "reference": "urn:uuid:85ad8418-f4d4-40b8-aa76-b24fad2140b0"
                  },
                  {
                    "reference": "urn:uuid:05163b24-6e87-40b5-8e87-9c3237dc93b6"
                  },
                  {
                    "reference": "urn:uuid:ec52a4e8-6cd9-4cfd-a7ce-b18f20965aaf"
                  },
                  {
                    "reference": "urn:uuid:0287521f-fd63-4c03-8c17-94f76a470d68"
                  },
                  {
                    "reference": "urn:uuid:2c312e9c-7321-4c87-8bac-ebfa81f501f3"
                  },
                  {
                    "reference": "urn:uuid:1eca1bd3-0d47-453f-a37f-1f9eb2aff9f9"
                  },
                  {
                    "reference": "urn:uuid:4eb27eff-2226-465f-9a40-e8240858365f"
                  },
                  {
                    "reference": "urn:uuid:eaafa8ef-22ec-4a74-9029-f539fdca6cea"
                  },
                  {
                    "reference": "urn:uuid:b136f80d-d808-49aa-b357-39e5f0e358fc"
                  },
                  {
                    "reference": "urn:uuid:83715f3c-0832-4c03-8bd2-147c4b377648"
                  },
                  {
                    "reference": "urn:uuid:01914a6e-db07-495b-9f09-b16dd2698431"
                  },
                  {
                    "reference": "urn:uuid:e10c6fe9-aab7-4272-b7b6-b047d9e3d40b"
                  },
                  {
                    "reference": "urn:uuid:42b63351-6fe3-447f-8fcc-8f591522db46"
                  },
                  {
                    "reference": "urn:uuid:5279717c-4ba1-4889-b4da-ab747742fcfd"
                  },
                  {
                    "reference": "urn:uuid:0630426e-d952-4387-b636-c2f0ec6ee9bc"
                  },
                  {
                    "reference": "urn:uuid:2a5fefbb-db5f-4339-b255-e117ac4bd646"
                  }
                ],
                "text": {
                  "status": "generated",
                  "div": "<div xmlns=\"http://www.w3.org/1999/xhtml\"><h3>Chemistry</h3><table class=\"hl7__eu__lab__report\"><thead><tr><th>Test</th><th>03-OCT-2017</th><th>Reference&#xA0;Range</th><th>Unit</th></tr></thead><tbody><tr><td>Glucose [Mass/volume] in Serum or Plasma</td><td>86.7</td><td>70 - 99</td><td>mg/dL</td></tr><tr><td>Urea nitrogen [Mass/volume] in Serum or Plasma</td><td>15.6</td><td>7 - 50</td><td>mg/dL</td></tr><tr><td>Creatinine [Mass/volume] in Serum or Plasma</td><td><strong>1.9 H</strong></td><td>0.6 - 1.1</td><td>mg/dL</td></tr><tr><td>Calcium [Mass/volume] in Serum or Plasma</td><td>8.8</td><td>8.6 - 10.4</td><td>mg/dL</td></tr><tr><td>Sodium [Moles/volume] in Serum or Plasma</td><td>140.9</td><td>135 - 145</td><td>mmol/L</td></tr><tr><td>Potassium [Moles/volume] in Serum or Plasma</td><td>5.0</td><td>3.5 - 5.1</td><td>mmol/L</td></tr><tr><td>Chloride [Moles/volume] in Serum or Plasma</td><td><strong>110.2 H</strong></td><td>98 - 108</td><td>mmol/L</td></tr><tr><td>Carbon dioxide, total [Moles/volume] in Serum or Plasma</td><td><strong>20.7 L</strong></td><td>22 - 32</td><td>mmol/L</td></tr><tr><td>Ketones [Presence] in Urine by Test strip</td><td>Urine ketone test = +</td><td></td><td></td></tr><tr><td>Hemoglobin A1c/Hemoglobin.total in Blood</td><td><strong>3.4 L</strong></td><td>4 - 6.4</td><td>%</td></tr><tr><td>Glucose [Mass/volume] in Blood</td><td>86.7</td><td>70 - 100</td><td>mg/dL</td></tr><tr><td>Urea nitrogen [Mass/volume] in Blood</td><td>15.6</td><td>7 - 43</td><td>mg/dL</td></tr><tr><td>Creatinine [Mass/volume] in Blood</td><td><strong>2.4 H</strong></td><td>0.6 - 1.1</td><td>mg/dL</td></tr><tr><td>Calcium [Mass/volume] in Blood</td><td>8.8</td><td>8.5 - 10.5</td><td>mg/dL</td></tr><tr><td>Sodium [Moles/volume] in Blood</td><td>140.9</td><td>135 - 145</td><td>mmol/L</td></tr><tr><td>Potassium [Moles/volume] in Blood</td><td>5.0</td><td>3.5 - 5.1</td><td>mmol/L</td></tr><tr><td>Chloride [Moles/volume] in Blood</td><td><strong>110.2 H</strong></td><td>98 - 108</td><td>mmol/L</td></tr><tr><td>Carbon dioxide, total [Moles/volume] in Blood</td><td><strong>20.7 L</strong></td><td>22 - 29</td><td>mmol/L</td></tr></tbody></table></div>"
                },
                "title": "Chemistry"
              },
              {
                "code": {
                  "coding": [
                    {
                      "code": "$18729-4",
                      "system": "http://loinc.org",
                      "display": "Urinalysis studies (set)"
                    }
                  ],
                  "text": "Urinalysis"
                },
                "entry": [
                  {
                    "reference": "urn:uuid:964eaa8b-50f3-43d4-95e0-d6e734538fb3"
                  },
                  {
                    "reference": "urn:uuid:176b4b1a-d741-4792-b054-6ccaed7b0678"
                  },
                  {
                    "reference": "urn:uuid:e01d9c24-329b-410b-a2de-e9f6f8db15f4"
                  },
                  {
                    "reference": "urn:uuid:7622644f-a785-41a6-bf97-e6e7b66309a3"
                  },
                  {
                    "reference": "urn:uuid:84836d1c-2eb5-4f2e-9a77-9f7c5233e515"
                  },
                  {
                    "reference": "urn:uuid:16404faa-ce55-4588-b7e8-92b761506879"
                  },
                  {
                    "reference": "urn:uuid:f5ef3528-23c1-49a1-9e9a-15fe6293201d"
                  },
                  {
                    "reference": "urn:uuid:b1f903d3-8ac9-41fd-802e-c787408201bb"
                  },
                  {
                    "reference": "urn:uuid:384108e5-18ce-4090-bde6-ff3534d3e40c"
                  },
                  {
                    "reference": "urn:uuid:bbf2767c-146e-452c-90fa-42e4f0bbb727"
                  },
                  {
                    "reference": "urn:uuid:ff1ad60f-e2e1-4c90-8de5-39acad240b50"
                  },
                  {
                    "reference": "urn:uuid:9ea36530-3143-430b-b8e8-b61d0e5809f2"
                  }
                ],
                "text": {
                  "status": "generated",
                  "div": "<div xmlns=\"http://www.w3.org/1999/xhtml\"><h3>Urinalysis</h3><table class=\"hl7__eu__lab__report\"><thead><tr><th>Test</th><th>03-OCT-2017</th><th>Reference&#xA0;Range</th><th>Unit</th></tr></thead><tbody><tr><td>Glucose [Mass/volume] in Urine by Test strip</td><td><strong>2.3 H</strong></td><td>0.8 - 0</td><td>mg/dL</td></tr><tr><td>Glucose [Presence] in Urine by Test strip</td><td>++</td><td></td><td></td></tr><tr><td>Bilirubin.total [Mass/volume] in Urine by Test strip</td><td><strong>1.1 H</strong></td><td>0 - 1</td><td>mg/dL</td></tr><tr><td>Bilirubin.total [Presence] in Urine by Test strip</td><td>Finding of bilirubin in urine</td><td></td><td></td></tr><tr><td>Ketones [Mass/volume] in Urine by Test strip</td><td><strong>17.8 H</strong></td><td>0 - 4</td><td>mg/dL</td></tr><tr><td>Specific gravity of Urine by Test strip</td><td><strong>1.0 L</strong></td><td>1.005 - 1.03</td><td>{nominal}</td></tr><tr><td>pH of Urine by Test strip</td><td>5.1</td><td>4.6 - 7</td><td>pH</td></tr><tr><td>Protein [Mass/volume] in Urine by Test strip</td><td><strong>204.1 H</strong></td><td>0 - 14</td><td>mg/dL</td></tr><tr><td>Protein [Presence] in Urine by Test strip</td><td>Urine protein test = ++</td><td></td><td></td></tr><tr><td>Nitrite [Presence] in Urine by Test strip</td><td>Urine nitrite negative</td><td></td><td></td></tr><tr><td>Hemoglobin [Presence] in Urine by Test strip</td><td>Urine blood test = negative</td><td></td><td></td></tr><tr><td>Leukocyte esterase [Presence] in Urine by Test strip</td><td>Urine leukocyte test negative</td><td></td><td></td></tr></tbody></table></div>"
                },
                "title": "Urinalysis"
              },
              {
                "code": {
                  "coding": [
                    {
                      "code": "$LP7846-1",
                      "system": "http://loinc.org",
                      "display": "Specimen information"
                    }
                  ],
                  "text": "Specimen information"
                },
                "entry": [
                  {
                    "reference": "urn:uuid:35debd12-b71f-49dd-b2c7-5b2dd77d0b09"
                  },
                  {
                    "reference": "urn:uuid:5168af4c-9af0-44ff-8fe4-bdc2873dfedd"
                  },
                  {
                    "reference": "urn:uuid:68f662de-c591-4be3-bfb7-71e46fae3947"
                  },
                  {
                    "reference": "urn:uuid:4c295a80-8e26-4058-b796-bd4e71f9023d"
                  }
                ],
                "text": {
                  "status": "generated",
                  "div": "<div xmlns=\"http://www.w3.org/1999/xhtml\"><h3>Specimen information</h3><table class=\"hl7__eu__lab__report\"><thead><tr><th>Test</th><th>03-OCT-2017</th><th>Specimen</th><th></th></tr></thead><tbody><tr><td>Appearance of Urine</td><td>Cloudy urine</td><td>Urine</td><td></td></tr><tr><td>Odor of Urine</td><td>Urine smell ammoniacal</td><td>Urine</td><td></td></tr><tr><td>Clarity of Urine</td><td>Translucent</td><td>Urine</td><td></td></tr><tr><td>Color of Urine</td><td>Brown color</td><td>Urine</td><td></td></tr></tbody></table></div>"
                },
                "title": "Specimen information"
              }
            ],
            "title": "Laboratory Report"
          },
          {
            "text": {
              "status": "generated",
              "div": "<div xmlns=\"http://www.w3.org/1999/xhtml\"><h3>Annotation</h3><table class=\"hl7__eu__lab__report\"><tr><th>Conclusion and Recommendations based on this report and previous findings known to us</th></tr><tr><td>The patient shows elevated creatinine, proteinuria, glucosuria, ketonuria, and low urine specific gravity, suggesting impaired renal function, possibly diabetic nephropathy or another renal pathology. Blood glucose and HbA1c are not elevated, but urine findings indicate possible transient hyperglycemia or renal glycosuria. Metabolic acidosis is suggested by low CO₂ and high chloride. Urine is cloudy and brown, but no infection markers are present. Further nephrological evaluation is recommended.</td></tr></table></div>"
            },
            "code": {
              "coding": [
                {
                  "system": "http://loinc.org",
                  "code": "48767-8",
                  "display": "Annotation comment"
                }
              ]
            },
            "title": "Annotation comment"
          }
        ],
        "status": "final",
        "subject": {
          "reference": "urn:uuid:b4a82167-add5-4111-9fd7-7150f734f1d6",
          "display": "Meaghan Neary"
        },
        "date": "2017-10-03T00:11:04Z",
        "title": "Laboratory Report",
        "confidentiality": "N"
      }
    },
    {
      "fullUrl": "urn:uuid:50b6823d-4ea9-422e-8665-2c20840aa7f8",
      "resource": {
        "resourceType": "DiagnosticReport",
        "id": "50b6823d-4ea9-422e-8665-2c20840aa7f8",
        "meta": {
          "profile": [
            "http://hl7.eu/fhir/laboratory/StructureDefinition/DiagnosticReport-eu-lab"
          ]
        },
        "identifier": [
          {
            "assigner": {
              "display": "HL7 Europe"
            },
            "system": "urn:oid:2.16.840.1.113883.2.51.999",
            "value": "c6b77727-ff3d-4e53-8844-2534931b207b"
          }
        ],
        "extension": [
          {
            "url": "http://hl7.org/fhir/5.0/StructureDefinition/extension-DiagnosticReport.composition",
            "valueReference": {
              "reference": "urn:uuid:9122354c-efa5-4f6e-9b44-ede16fee4c7b"
            }
          }
        ],
        "category": [
          {
            "coding": [
              {
                "code": "26436-6",
                "system": "http://loinc.org",
                "display": "Laboratory studies (set)"
              }
            ]
          }
        ],
        "specimen": [
          {
            "reference": "urn:uuid:6fe3a6e2-766b-4851-adac-14b188ff110f"
          },
          {
            "reference": "urn:uuid:32326cbe-9b82-461c-90db-b5023d735837"
          },
          {
            "reference": "urn:uuid:d60e0e9b-5099-4bbb-b092-b85895338740"
          }
        ],
        "result": [
          {
            "reference": "urn:uuid:25c2db9e-a93b-4825-88e4-d0dd4a992afb"
          },
          {
            "reference": "urn:uuid:c934aa7e-0c83-4f25-ba21-3853d33e13f3"
          },
          {
            "reference": "urn:uuid:85ad8418-f4d4-40b8-aa76-b24fad2140b0"
          },
          {
            "reference": "urn:uuid:05163b24-6e87-40b5-8e87-9c3237dc93b6"
          },
          {
            "reference": "urn:uuid:ec52a4e8-6cd9-4cfd-a7ce-b18f20965aaf"
          },
          {
            "reference": "urn:uuid:0287521f-fd63-4c03-8c17-94f76a470d68"
          },
          {
            "reference": "urn:uuid:2c312e9c-7321-4c87-8bac-ebfa81f501f3"
          },
          {
            "reference": "urn:uuid:1eca1bd3-0d47-453f-a37f-1f9eb2aff9f9"
          },
          {
            "reference": "urn:uuid:35debd12-b71f-49dd-b2c7-5b2dd77d0b09"
          },
          {
            "reference": "urn:uuid:5168af4c-9af0-44ff-8fe4-bdc2873dfedd"
          },
          {
            "reference": "urn:uuid:68f662de-c591-4be3-bfb7-71e46fae3947"
          },
          {
            "reference": "urn:uuid:4c295a80-8e26-4058-b796-bd4e71f9023d"
          },
          {
            "reference": "urn:uuid:964eaa8b-50f3-43d4-95e0-d6e734538fb3"
          },
          {
            "reference": "urn:uuid:176b4b1a-d741-4792-b054-6ccaed7b0678"
          },
          {
            "reference": "urn:uuid:e01d9c24-329b-410b-a2de-e9f6f8db15f4"
          },
          {
            "reference": "urn:uuid:7622644f-a785-41a6-bf97-e6e7b66309a3"
          },
          {
            "reference": "urn:uuid:84836d1c-2eb5-4f2e-9a77-9f7c5233e515"
          },
          {
            "reference": "urn:uuid:4eb27eff-2226-465f-9a40-e8240858365f"
          },
          {
            "reference": "urn:uuid:16404faa-ce55-4588-b7e8-92b761506879"
          },
          {
            "reference": "urn:uuid:f5ef3528-23c1-49a1-9e9a-15fe6293201d"
          },
          {
            "reference": "urn:uuid:b1f903d3-8ac9-41fd-802e-c787408201bb"
          },
          {
            "reference": "urn:uuid:384108e5-18ce-4090-bde6-ff3534d3e40c"
          },
          {
            "reference": "urn:uuid:bbf2767c-146e-452c-90fa-42e4f0bbb727"
          },
          {
            "reference": "urn:uuid:ff1ad60f-e2e1-4c90-8de5-39acad240b50"
          },
          {
            "reference": "urn:uuid:9ea36530-3143-430b-b8e8-b61d0e5809f2"
          },
          {
            "reference": "urn:uuid:eaafa8ef-22ec-4a74-9029-f539fdca6cea"
          },
          {
            "reference": "urn:uuid:b136f80d-d808-49aa-b357-39e5f0e358fc"
          },
          {
            "reference": "urn:uuid:83715f3c-0832-4c03-8bd2-147c4b377648"
          },
          {
            "reference": "urn:uuid:01914a6e-db07-495b-9f09-b16dd2698431"
          },
          {
            "reference": "urn:uuid:e10c6fe9-aab7-4272-b7b6-b047d9e3d40b"
          },
          {
            "reference": "urn:uuid:42b63351-6fe3-447f-8fcc-8f591522db46"
          },
          {
            "reference": "urn:uuid:5279717c-4ba1-4889-b4da-ab747742fcfd"
          },
          {
            "reference": "urn:uuid:0630426e-d952-4387-b636-c2f0ec6ee9bc"
          },
          {
            "reference": "urn:uuid:2a5fefbb-db5f-4339-b255-e117ac4bd646"
          }
        ],
        "status": "registered",
        "code": {
          "coding": [
            {
              "code": "11502-2",
              "system": "http://loinc.org",
              "display": "Laboratory report"
            }
          ]
        },
        "subject": {
          "reference": "urn:uuid:b4a82167-add5-4111-9fd7-7150f734f1d6",
          "display": "Meaghan Neary"
        }
      }
    },
    {
      "fullUrl": "urn:uuid:b4a82167-add5-4111-9fd7-7150f734f1d6",
      "resource": {
        "resourceType": "Patient",
        "id": "b4a82167-add5-4111-9fd7-7150f734f1d6",
        "meta": {
          "security": [
            {
              "system": "http://terminology.hl7.org/CodeSystem/v3-ActReason",
              "code": "HTEST"
            },
            {
              "system": "http://terminology.hl7.org/CodeSystem/v3-ActReason",
              "code": "TRAIN"
            }
          ],
          "tag": [
            {
              "system": "https://synderai.net/fhir/CodeSystem/tags",
              "code": "synthetic",
              "display": "SYNDERAI Synthetic data"
            }
          ],
          "profile": [
            "http://hl7.eu/fhir/base/StructureDefinition/patient-eu-core"
          ]
        },
        "identifier": [
          {
            "type": {
              "coding": [
                {
                  "code": "PT",
                  "system": "http://terminology.hl7.org/CodeSystem/v2-0203"
                }
              ]
            },
            "system": "http://ec.europa.eu/identifier/eci",
            "value": "1586-567257-8"
          },
          {
            "type": {
              "coding": [
                {
                  "code": "MR",
                  "system": "http://terminology.hl7.org/CodeSystem/v2-0203"
                }
              ]
            },
            "system": "http://local.setting.eu/identifier",
            "value": "443e6379-f231-b364-3ccb-644740a1aa2a"
          }
        ],
        "name": [
          {
            "family": "Neary"
          },
          {
            "given": [
              "Meaghan"
            ]
          },
          {
            "text": "Meaghan Neary"
          }
        ],
        "address": [
          {
            "line": [
              "64 Linskey Street"
            ],
            "use": "home",
            "type": "physical",
            "postalCode": "D02",
            "city": "Dublin",
            "country": "Ireland"
          }
        ],
        "telecom": [
          {
            "system": "phone",
            "value": "001-967-573-0911x465"
          }
        ],
        "extension": [
          {
            "url": "http://hl7.org/fhir/StructureDefinition/patient-nationality",
            "valueCodeableConcept": {
              "coding": [
                {
                  "code": "IE",
                  "system": "http://hl7.org/fhir/ValueSet/country"
                }
              ]
            }
          }
        ],
        "text": {
          "status": "generated",
          "div": "<div xmlns=\"http://www.w3.org/1999/xhtml\"><table class=\"hl7__ips\"><tr><td>Meaghan Neary</td><td>female</td><td>19-Dec-1960</td></tr></table></div>"
        },
        "gender": "female",
        "birthDate": "1960-12-19"
      }
    },
    {
      "fullUrl": "urn:uuid:7a2525df-38b2-49a6-9869-ebd42d7e01e1",
      "resource": {
        "resourceType": "ServiceRequest",
        "id": "7a2525df-38b2-49a6-9869-ebd42d7e01e1",
        "meta": {
          "profile": [
            "http://hl7.eu/fhir/laboratory/StructureDefinition/ServiceRequest-eu-lab"
          ]
        },
        "identifier": [
          {
            "system": "http://example.org",
            "value": "3735a8f5-c181-484e-89c8-05f487da3bb7"
          }
        ],
        "specimen": [
          {
            "reference": "urn:uuid:6fe3a6e2-766b-4851-adac-14b188ff110f"
          },
          {
            "reference": "urn:uuid:32326cbe-9b82-461c-90db-b5023d735837"
          },
          {
            "reference": "urn:uuid:d60e0e9b-5099-4bbb-b092-b85895338740"
          }
        ],
        "reasonCode": [
          {
            "coding": [
              {
                "code": "55822004",
                "system": "http://snomed.info/sct",
                "display": "Hyperlipidemia"
              }
            ]
          },
          {
            "coding": [
              {
                "code": "433144002",
                "system": "http://snomed.info/sct",
                "display": "Chronic kidney disease stage 3"
              }
            ]
          },
          {
            "coding": [
              {
                "code": "157141000119108",
                "system": "http://snomed.info/sct",
                "display": "Proteinuria due to type 2 diabetes mellitus"
              }
            ]
          },
          {
            "coding": [
              {
                "code": "431856006",
                "system": "http://snomed.info/sct",
                "display": "Chronic kidney disease stage 2"
              }
            ]
          },
          {
            "coding": [
              {
                "code": "90781000119102",
                "system": "http://snomed.info/sct",
                "display": "Microalbuminuria due to type 2 diabetes mellitus"
              }
            ]
          },
          {
            "coding": [
              {
                "code": "127013003",
                "system": "http://snomed.info/sct",
                "display": "Disorder of kidney due to diabetes mellitus"
              }
            ]
          },
          {
            "coding": [
              {
                "code": "431855005",
                "system": "http://snomed.info/sct",
                "display": "Chronic kidney disease stage 1"
              }
            ]
          },
          {
            "coding": [
              {
                "code": "237602007",
                "system": "http://snomed.info/sct",
                "display": "Metabolic syndrome X"
              }
            ]
          },
          {
            "coding": [
              {
                "code": "271737000",
                "system": "http://snomed.info/sct",
                "display": "Anemia"
              }
            ]
          },
          {
            "coding": [
              {
                "code": "15777000",
                "system": "http://snomed.info/sct",
                "display": "Prediabetes"
              }
            ]
          },
          {
            "coding": [
              {
                "code": "59621000",
                "system": "http://snomed.info/sct",
                "display": "Essential hypertension"
              }
            ]
          }
        ],
        "status": "active",
        "intent": "order",
        "code": {
          "coding": [
            {
              "code": "108252007",
              "system": "http://snomed.info/sct",
              "display": "Laboratory procedure"
            }
          ]
        },
        "subject": {
          "reference": "urn:uuid:b4a82167-add5-4111-9fd7-7150f734f1d6",
          "display": "Meaghan Neary"
        },
        "requester": {
          "reference": "urn:uuid:d99c3ba5-93f6-4f4d-9c1d-98dbb9236f56"
        }
      }
    },
    {
      "fullUrl": "urn:uuid:d99c3ba5-93f6-4f4d-9c1d-98dbb9236f56",
      "resource": {
        "resourceType": "PractitionerRole",
        "id": "d99c3ba5-93f6-4f4d-9c1d-98dbb9236f56",
        "meta": {
          "profile": [
            "http://hl7.eu/fhir/base/StructureDefinition/practitionerRole-eu"
          ]
        },
        "text": {
          "status": "generated",
          "div": "<div xmlns=\"http://www.w3.org/1999/xhtml\">Provider Role Id: d99c3ba5-93f6-4f4d-9c1d-98dbb9236f56</div>"
        },
        "organization": {
          "reference": "urn:uuid:f1a0df64-8575-4c24-aa4c-271c7cb9032a"
        }
      }
    },
    {
      "fullUrl": "urn:uuid:f1a0df64-8575-4c24-aa4c-271c7cb9032a",
      "resource": {
        "resourceType": "Organization",
        "id": "f1a0df64-8575-4c24-aa4c-271c7cb9032a",
        "meta": {
          "profile": [
            "http://hl7.eu/fhir/base/StructureDefinition/organization-eu"
          ]
        },
        "identifier": [
          {
            "assigner": {
              "display": "HL7 Europe"
            },
            "system": "urn:oid:2.16.840.1.113883.2.51.999",
            "value": "460ae682-4b95-49c7-a305-32e3de86035c"
          }
        ],
        "address": [
          {
            "line": [
              "Parnell Square West nan"
            ],
            "city": "Dublin",
            "postalCode": "D01",
            "country": "Ireland"
          }
        ],
        "text": {
          "status": "generated",
          "div": "<div xmlns=\"http://www.w3.org/1999/xhtml\">Provider Organization: Rotunda Hospital</div>"
        },
        "name": "Rotunda Hospital"
      }
    },
    {
      "fullUrl": "urn:uuid:6fe3a6e2-766b-4851-adac-14b188ff110f",
      "resource": {
        "resourceType": "Specimen",
        "id": "6fe3a6e2-766b-4851-adac-14b188ff110f",
        "meta": {
          "profile": [
            "http://hl7.eu/fhir/laboratory/StructureDefinition/Specimen-eu-lab"
          ]
        },
        "collection": {
          "collectedDateTime": "2017-10-02"
        },
        "text": {
          "status": "generated",
          "div": "<div xmlns=\"http://www.w3.org/1999/xhtml\"><table class=\"hl7__eu__lab__report\"><tr><th>Specimen</th><th>Collection Date</th></tr><tr><td>Acellular blood (serum or plasma) specimen</td><td><span class=\"nb\">02-Oct-2017</span></td></tr></table></div>"
        },
        "type": {
          "coding": [
            {
              "code": "122592007",
              "system": "http://snomed.info/sct",
              "display": "Acellular blood (serum or plasma) specimen"
            }
          ]
        }
      }
    },
    {
      "fullUrl": "urn:uuid:32326cbe-9b82-461c-90db-b5023d735837",
      "resource": {
        "resourceType": "Specimen",
        "id": "32326cbe-9b82-461c-90db-b5023d735837",
        "meta": {
          "profile": [
            "http://hl7.eu/fhir/laboratory/StructureDefinition/Specimen-eu-lab"
          ]
        },
        "collection": {
          "collectedDateTime": "2017-10-02"
        },
        "text": {
          "status": "generated",
          "div": "<div xmlns=\"http://www.w3.org/1999/xhtml\"><table class=\"hl7__eu__lab__report\"><tr><th>Specimen</th><th>Collection Date</th></tr><tr><td>Urine specimen</td><td><span class=\"nb\">02-Oct-2017</span></td></tr></table></div>"
        },
        "type": {
          "coding": [
            {
              "code": "122575003",
              "system": "http://snomed.info/sct",
              "display": "Urine specimen"
            }
          ]
        }
      }
    },
    {
      "fullUrl": "urn:uuid:d60e0e9b-5099-4bbb-b092-b85895338740",
      "resource": {
        "resourceType": "Specimen",
        "id": "d60e0e9b-5099-4bbb-b092-b85895338740",
        "meta": {
          "profile": [
            "http://hl7.eu/fhir/laboratory/StructureDefinition/Specimen-eu-lab"
          ]
        },
        "collection": {
          "collectedDateTime": "2017-10-02"
        },
        "text": {
          "status": "generated",
          "div": "<div xmlns=\"http://www.w3.org/1999/xhtml\"><table class=\"hl7__eu__lab__report\"><tr><th>Specimen</th><th>Collection Date</th></tr><tr><td>Whole blood specimen (specimen)</td><td><span class=\"nb\">02-Oct-2017</span></td></tr></table></div>"
        },
        "type": {
          "coding": [
            {
              "code": "258580003",
              "system": "http://snomed.info/sct",
              "display": "Whole blood specimen (specimen)"
            }
          ]
        }
      }
    },
    {
      "fullUrl": "urn:uuid:25c2db9e-a93b-4825-88e4-d0dd4a992afb",
      "resource": {
        "resourceType": "Observation",
        "id": "25c2db9e-a93b-4825-88e4-d0dd4a992afb",
        "meta": {
          "profile": [
            "http://hl7.eu/fhir/laboratory/StructureDefinition/Observation-resultslab-eu-lab"
          ]
        },
        "performer": [
          {
            "display": "The Central European Lab"
          }
        ],
        "category": [
          {
            "coding": [
              {
                "system": "http://terminology.hl7.org/CodeSystem/observation-category",
                "code": "laboratory"
              }
            ]
          }
        ],
        "code": {
          "coding": [
            {
              "code": "2345-7",
              "system": "http://loinc.org",
              "display": "Glucose [Mass/volume] in Serum or Plasma"
            }
          ],
          "text": "Glucose [Mass/volume] in Serum or Plasma"
        },
        "valueQuantity": {
          "system": "http://unitsofmeasure.org",
          "value": 86.7,
          "unit": "mg/dL",
          "code": "mg/dL"
        },
        "referenceRange": [
          {
            "low": {
              "value": 70,
              "code": "mg/dL",
              "system": "http://unitsofmeasure.org"
            }
          },
          {
            "high": {
              "value": 99,
              "code": "mg/dL",
              "system": "http://unitsofmeasure.org"
            }
          }
        ],
        "text": {
          "status": "generated",
          "div": "<div xmlns=\"http://www.w3.org/1999/xhtml\"><table class=\"hl7__eu__lab__report\"><tr><th>Test</th><th>03-Oct-2017</th><th>Reference&#xA0;Range</th><th>Unit</th></tr><tr><td>Glucose [Mass/volume] in Serum or Plasma</td><td>86.7</td><td>70 - 99</td><td></td><td>mg/dL</td></tr></table></div>"
        },
        "status": "final",
        "subject": {
          "reference": "urn:uuid:b4a82167-add5-4111-9fd7-7150f734f1d6",
          "display": "Meaghan Neary"
        },
        "effectiveDateTime": "2017-10-02T22:11:04Z",
        "specimen": {
          "reference": "urn:uuid:6fe3a6e2-766b-4851-adac-14b188ff110f"
        }
      }
    },
    {
      "fullUrl": "urn:uuid:c934aa7e-0c83-4f25-ba21-3853d33e13f3",
      "resource": {
        "resourceType": "Observation",
        "id": "c934aa7e-0c83-4f25-ba21-3853d33e13f3",
        "meta": {
          "profile": [
            "http://hl7.eu/fhir/laboratory/StructureDefinition/Observation-resultslab-eu-lab"
          ]
        },
        "performer": [
          {
            "display": "The Central European Lab"
          }
        ],
        "category": [
          {
            "coding": [
              {
                "system": "http://terminology.hl7.org/CodeSystem/observation-category",
                "code": "laboratory"
              }
            ]
          }
        ],
        "code": {
          "coding": [
            {
              "code": "3094-0",
              "system": "http://loinc.org",
              "display": "Urea nitrogen [Mass/volume] in Serum or Plasma"
            }
          ],
          "text": "Urea nitrogen [Mass/volume] in Serum or Plasma"
        },
        "valueQuantity": {
          "system": "http://unitsofmeasure.org",
          "value": 15.6,
          "unit": "mg/dL",
          "code": "mg/dL"
        },
        "referenceRange": [
          {
            "low": {
              "value": 7,
              "code": "mg/dL",
              "system": "http://unitsofmeasure.org"
            }
          },
          {
            "high": {
              "value": 50,
              "code": "mg/dL",
              "system": "http://unitsofmeasure.org"
            }
          }
        ],
        "text": {
          "status": "generated",
          "div": "<div xmlns=\"http://www.w3.org/1999/xhtml\"><table class=\"hl7__eu__lab__report\"><tr><th>Test</th><th>03-Oct-2017</th><th>Reference&#xA0;Range</th><th>Unit</th></tr><tr><td>Urea nitrogen [Mass/volume] in Serum or Plasma</td><td>15.6</td><td>7 - 50</td><td></td><td>mg/dL</td></tr></table></div>"
        },
        "status": "final",
        "subject": {
          "reference": "urn:uuid:b4a82167-add5-4111-9fd7-7150f734f1d6",
          "display": "Meaghan Neary"
        },
        "effectiveDateTime": "2017-10-02T22:11:04Z",
        "specimen": {
          "reference": "urn:uuid:6fe3a6e2-766b-4851-adac-14b188ff110f"
        }
      }
    },
    {
      "fullUrl": "urn:uuid:85ad8418-f4d4-40b8-aa76-b24fad2140b0",
      "resource": {
        "resourceType": "Observation",
        "id": "85ad8418-f4d4-40b8-aa76-b24fad2140b0",
        "meta": {
          "profile": [
            "http://hl7.eu/fhir/laboratory/StructureDefinition/Observation-resultslab-eu-lab"
          ]
        },
        "performer": [
          {
            "display": "The Central European Lab"
          }
        ],
        "category": [
          {
            "coding": [
              {
                "system": "http://terminology.hl7.org/CodeSystem/observation-category",
                "code": "laboratory"
              }
            ]
          }
        ],
        "code": {
          "coding": [
            {
              "code": "2160-0",
              "system": "http://loinc.org",
              "display": "Creatinine [Mass/volume] in Serum or Plasma"
            }
          ],
          "text": "Creatinine [Mass/volume] in Serum or Plasma"
        },
        "valueQuantity": {
          "system": "http://unitsofmeasure.org",
          "value": 1.9,
          "unit": "mg/dL",
          "code": "mg/dL"
        },
        "referenceRange": [
          {
            "low": {
              "value": 0.6,
              "code": "mg/dL",
              "system": "http://unitsofmeasure.org"
            }
          },
          {
            "high": {
              "value": 1.1,
              "code": "mg/dL",
              "system": "http://unitsofmeasure.org"
            }
          }
        ],
        "interpretation": [
          {
            "coding": [
              {
                "code": "H",
                "system": "http://terminology.hl7.org/CodeSystem/v3-ObservationInterpretation",
                "display": "High"
              }
            ]
          }
        ],
        "text": {
          "status": "generated",
          "div": "<div xmlns=\"http://www.w3.org/1999/xhtml\"><table class=\"hl7__eu__lab__report\"><tr><th>Test</th><th>03-Oct-2017</th><th>Reference&#xA0;Range</th><th>Unit</th></tr><tr><td>Creatinine [Mass/volume] in Serum or Plasma</td><td>1.9</td><td>0.6 - 1.1</td><td>H</td><td>mg/dL</td></tr></table></div>"
        },
        "status": "final",
        "subject": {
          "reference": "urn:uuid:b4a82167-add5-4111-9fd7-7150f734f1d6",
          "display": "Meaghan Neary"
        },
        "effectiveDateTime": "2017-10-02T22:11:04Z",
        "specimen": {
          "reference": "urn:uuid:6fe3a6e2-766b-4851-adac-14b188ff110f"
        }
      }
    },
    {
      "fullUrl": "urn:uuid:05163b24-6e87-40b5-8e87-9c3237dc93b6",
      "resource": {
        "resourceType": "Observation",
        "id": "05163b24-6e87-40b5-8e87-9c3237dc93b6",
        "meta": {
          "profile": [
            "http://hl7.eu/fhir/laboratory/StructureDefinition/Observation-resultslab-eu-lab"
          ]
        },
        "performer": [
          {
            "display": "The Central European Lab"
          }
        ],
        "category": [
          {
            "coding": [
              {
                "system": "http://terminology.hl7.org/CodeSystem/observation-category",
                "code": "laboratory"
              }
            ]
          }
        ],
        "code": {
          "coding": [
            {
              "code": "17861-6",
              "system": "http://loinc.org",
              "display": "Calcium [Mass/volume] in Serum or Plasma"
            }
          ],
          "text": "Calcium [Mass/volume] in Serum or Plasma"
        },
        "valueQuantity": {
          "system": "http://unitsofmeasure.org",
          "value": 8.8,
          "unit": "mg/dL",
          "code": "mg/dL"
        },
        "referenceRange": [
          {
            "low": {
              "value": 8.6,
              "code": "mg/dL",
              "system": "http://unitsofmeasure.org"
            }
          },
          {
            "high": {
              "value": 10.4,
              "code": "mg/dL",
              "system": "http://unitsofmeasure.org"
            }
          }
        ],
        "text": {
          "status": "generated",
          "div": "<div xmlns=\"http://www.w3.org/1999/xhtml\"><table class=\"hl7__eu__lab__report\"><tr><th>Test</th><th>03-Oct-2017</th><th>Reference&#xA0;Range</th><th>Unit</th></tr><tr><td>Calcium [Mass/volume] in Serum or Plasma</td><td>8.8</td><td>8.6 - 10.4</td><td></td><td>mg/dL</td></tr></table></div>"
        },
        "status": "final",
        "subject": {
          "reference": "urn:uuid:b4a82167-add5-4111-9fd7-7150f734f1d6",
          "display": "Meaghan Neary"
        },
        "effectiveDateTime": "2017-10-02T22:11:04Z",
        "specimen": {
          "reference": "urn:uuid:6fe3a6e2-766b-4851-adac-14b188ff110f"
        }
      }
    },
    {
      "fullUrl": "urn:uuid:ec52a4e8-6cd9-4cfd-a7ce-b18f20965aaf",
      "resource": {
        "resourceType": "Observation",
        "id": "ec52a4e8-6cd9-4cfd-a7ce-b18f20965aaf",
        "meta": {
          "profile": [
            "http://hl7.eu/fhir/laboratory/StructureDefinition/Observation-resultslab-eu-lab"
          ]
        },
        "performer": [
          {
            "display": "The Central European Lab"
          }
        ],
        "category": [
          {
            "coding": [
              {
                "system": "http://terminology.hl7.org/CodeSystem/observation-category",
                "code": "laboratory"
              }
            ]
          }
        ],
        "code": {
          "coding": [
            {
              "code": "2951-2",
              "system": "http://loinc.org",
              "display": "Sodium [Moles/volume] in Serum or Plasma"
            }
          ],
          "text": "Sodium [Moles/volume] in Serum or Plasma"
        },
        "valueQuantity": {
          "system": "http://unitsofmeasure.org",
          "value": 140.9,
          "unit": "mmol/L",
          "code": "mmol/L"
        },
        "referenceRange": [
          {
            "low": {
              "value": 135,
              "code": "mmol/L",
              "system": "http://unitsofmeasure.org"
            }
          },
          {
            "high": {
              "value": 145,
              "code": "mmol/L",
              "system": "http://unitsofmeasure.org"
            }
          }
        ],
        "text": {
          "status": "generated",
          "div": "<div xmlns=\"http://www.w3.org/1999/xhtml\"><table class=\"hl7__eu__lab__report\"><tr><th>Test</th><th>03-Oct-2017</th><th>Reference&#xA0;Range</th><th>Unit</th></tr><tr><td>Sodium [Moles/volume] in Serum or Plasma</td><td>140.9</td><td>135 - 145</td><td></td><td>mmol/L</td></tr></table></div>"
        },
        "status": "final",
        "subject": {
          "reference": "urn:uuid:b4a82167-add5-4111-9fd7-7150f734f1d6",
          "display": "Meaghan Neary"
        },
        "effectiveDateTime": "2017-10-02T22:11:04Z",
        "specimen": {
          "reference": "urn:uuid:6fe3a6e2-766b-4851-adac-14b188ff110f"
        }
      }
    },
    {
      "fullUrl": "urn:uuid:0287521f-fd63-4c03-8c17-94f76a470d68",
      "resource": {
        "resourceType": "Observation",
        "id": "0287521f-fd63-4c03-8c17-94f76a470d68",
        "meta": {
          "profile": [
            "http://hl7.eu/fhir/laboratory/StructureDefinition/Observation-resultslab-eu-lab"
          ]
        },
        "performer": [
          {
            "display": "The Central European Lab"
          }
        ],
        "category": [
          {
            "coding": [
              {
                "system": "http://terminology.hl7.org/CodeSystem/observation-category",
                "code": "laboratory"
              }
            ]
          }
        ],
        "code": {
          "coding": [
            {
              "code": "2823-3",
              "system": "http://loinc.org",
              "display": "Potassium [Moles/volume] in Serum or Plasma"
            }
          ],
          "text": "Potassium [Moles/volume] in Serum or Plasma"
        },
        "valueQuantity": {
          "system": "http://unitsofmeasure.org",
          "value": 5,
          "unit": "mmol/L",
          "code": "mmol/L"
        },
        "referenceRange": [
          {
            "low": {
              "value": 3.5,
              "code": "mmol/L",
              "system": "http://unitsofmeasure.org"
            }
          },
          {
            "high": {
              "value": 5.1,
              "code": "mmol/L",
              "system": "http://unitsofmeasure.org"
            }
          }
        ],
        "text": {
          "status": "generated",
          "div": "<div xmlns=\"http://www.w3.org/1999/xhtml\"><table class=\"hl7__eu__lab__report\"><tr><th>Test</th><th>03-Oct-2017</th><th>Reference&#xA0;Range</th><th>Unit</th></tr><tr><td>Potassium [Moles/volume] in Serum or Plasma</td><td>5.0</td><td>3.5 - 5.1</td><td></td><td>mmol/L</td></tr></table></div>"
        },
        "status": "final",
        "subject": {
          "reference": "urn:uuid:b4a82167-add5-4111-9fd7-7150f734f1d6",
          "display": "Meaghan Neary"
        },
        "effectiveDateTime": "2017-10-02T22:11:04Z",
        "specimen": {
          "reference": "urn:uuid:6fe3a6e2-766b-4851-adac-14b188ff110f"
        }
      }
    },
    {
      "fullUrl": "urn:uuid:2c312e9c-7321-4c87-8bac-ebfa81f501f3",
      "resource": {
        "resourceType": "Observation",
        "id": "2c312e9c-7321-4c87-8bac-ebfa81f501f3",
        "meta": {
          "profile": [
            "http://hl7.eu/fhir/laboratory/StructureDefinition/Observation-resultslab-eu-lab"
          ]
        },
        "performer": [
          {
            "display": "The Central European Lab"
          }
        ],
        "category": [
          {
            "coding": [
              {
                "system": "http://terminology.hl7.org/CodeSystem/observation-category",
                "code": "laboratory"
              }
            ]
          }
        ],
        "code": {
          "coding": [
            {
              "code": "2075-0",
              "system": "http://loinc.org",
              "display": "Chloride [Moles/volume] in Serum or Plasma"
            }
          ],
          "text": "Chloride [Moles/volume] in Serum or Plasma"
        },
        "valueQuantity": {
          "system": "http://unitsofmeasure.org",
          "value": 110.2,
          "unit": "mmol/L",
          "code": "mmol/L"
        },
        "referenceRange": [
          {
            "low": {
              "value": 98,
              "code": "mmol/L",
              "system": "http://unitsofmeasure.org"
            }
          },
          {
            "high": {
              "value": 108,
              "code": "mmol/L",
              "system": "http://unitsofmeasure.org"
            }
          }
        ],
        "interpretation": [
          {
            "coding": [
              {
                "code": "H",
                "system": "http://terminology.hl7.org/CodeSystem/v3-ObservationInterpretation",
                "display": "High"
              }
            ]
          }
        ],
        "text": {
          "status": "generated",
          "div": "<div xmlns=\"http://www.w3.org/1999/xhtml\"><table class=\"hl7__eu__lab__report\"><tr><th>Test</th><th>03-Oct-2017</th><th>Reference&#xA0;Range</th><th>Unit</th></tr><tr><td>Chloride [Moles/volume] in Serum or Plasma</td><td>110.2</td><td>98 - 108</td><td>H</td><td>mmol/L</td></tr></table></div>"
        },
        "status": "final",
        "subject": {
          "reference": "urn:uuid:b4a82167-add5-4111-9fd7-7150f734f1d6",
          "display": "Meaghan Neary"
        },
        "effectiveDateTime": "2017-10-02T22:11:04Z",
        "specimen": {
          "reference": "urn:uuid:6fe3a6e2-766b-4851-adac-14b188ff110f"
        }
      }
    },
    {
      "fullUrl": "urn:uuid:1eca1bd3-0d47-453f-a37f-1f9eb2aff9f9",
      "resource": {
        "resourceType": "Observation",
        "id": "1eca1bd3-0d47-453f-a37f-1f9eb2aff9f9",
        "meta": {
          "profile": [
            "http://hl7.eu/fhir/laboratory/StructureDefinition/Observation-resultslab-eu-lab"
          ]
        },
        "performer": [
          {
            "display": "The Central European Lab"
          }
        ],
        "category": [
          {
            "coding": [
              {
                "system": "http://terminology.hl7.org/CodeSystem/observation-category",
                "code": "laboratory"
              }
            ]
          }
        ],
        "code": {
          "coding": [
            {
              "code": "2028-9",
              "system": "http://loinc.org",
              "display": "Carbon dioxide, total [Moles/volume] in Serum or Plasma"
            }
          ],
          "text": "Carbon dioxide, total [Moles/volume] in Serum or Plasma"
        },
        "valueQuantity": {
          "system": "http://unitsofmeasure.org",
          "value": 20.7,
          "unit": "mmol/L",
          "code": "mmol/L"
        },
        "referenceRange": [
          {
            "low": {
              "value": 22,
              "code": "mmol/L",
              "system": "http://unitsofmeasure.org"
            }
          },
          {
            "high": {
              "value": 32,
              "code": "mmol/L",
              "system": "http://unitsofmeasure.org"
            }
          }
        ],
        "interpretation": [
          {
            "coding": [
              {
                "code": "L",
                "system": "http://terminology.hl7.org/CodeSystem/v3-ObservationInterpretation",
                "display": "Low"
              }
            ]
          }
        ],
        "text": {
          "status": "generated",
          "div": "<div xmlns=\"http://www.w3.org/1999/xhtml\"><table class=\"hl7__eu__lab__report\"><tr><th>Test</th><th>03-Oct-2017</th><th>Reference&#xA0;Range</th><th>Unit</th></tr><tr><td>Carbon dioxide, total [Moles/volume] in Serum or Plasma</td><td>20.7</td><td>22 - 32</td><td>L</td><td>mmol/L</td></tr></table></div>"
        },
        "status": "final",
        "subject": {
          "reference": "urn:uuid:b4a82167-add5-4111-9fd7-7150f734f1d6",
          "display": "Meaghan Neary"
        },
        "effectiveDateTime": "2017-10-02T22:11:04Z",
        "specimen": {
          "reference": "urn:uuid:6fe3a6e2-766b-4851-adac-14b188ff110f"
        }
      }
    },
    {
      "fullUrl": "urn:uuid:35debd12-b71f-49dd-b2c7-5b2dd77d0b09",
      "resource": {
        "resourceType": "Observation",
        "id": "35debd12-b71f-49dd-b2c7-5b2dd77d0b09",
        "meta": {
          "profile": [
            "http://hl7.eu/fhir/laboratory/StructureDefinition/Observation-resultslab-eu-lab"
          ]
        },
        "performer": [
          {
            "display": "The Central European Lab"
          }
        ],
        "category": [
          {
            "coding": [
              {
                "system": "http://terminology.hl7.org/CodeSystem/observation-category",
                "code": "laboratory"
              }
            ]
          }
        ],
        "code": {
          "coding": [
            {
              "code": "5767-9",
              "system": "http://loinc.org",
              "display": "Appearance of Urine"
            }
          ],
          "text": "Appearance of Urine"
        },
        "text": {
          "status": "generated",
          "div": "<div xmlns=\"http://www.w3.org/1999/xhtml\"><table class=\"hl7__eu__lab__report\"><tr><th>Test</th><th>03-Oct-2017</th><th>Reference&#xA0;Range</th><th>Unit</th></tr><tr><td>Appearance of Urine</td></tr></table></div>"
        },
        "status": "final",
        "subject": {
          "reference": "urn:uuid:b4a82167-add5-4111-9fd7-7150f734f1d6",
          "display": "Meaghan Neary"
        },
        "effectiveDateTime": "2017-10-02T22:11:04Z",
        "specimen": {
          "reference": "urn:uuid:32326cbe-9b82-461c-90db-b5023d735837"
        }
      }
    },
    {
      "fullUrl": "urn:uuid:5168af4c-9af0-44ff-8fe4-bdc2873dfedd",
      "resource": {
        "resourceType": "Observation",
        "id": "5168af4c-9af0-44ff-8fe4-bdc2873dfedd",
        "meta": {
          "profile": [
            "http://hl7.eu/fhir/laboratory/StructureDefinition/Observation-resultslab-eu-lab"
          ]
        },
        "performer": [
          {
            "display": "The Central European Lab"
          }
        ],
        "category": [
          {
            "coding": [
              {
                "system": "http://terminology.hl7.org/CodeSystem/observation-category",
                "code": "laboratory"
              }
            ]
          }
        ],
        "code": {
          "coding": [
            {
              "code": "34533-0",
              "system": "http://loinc.org",
              "display": "Odor of Urine"
            }
          ],
          "text": "Odor of Urine"
        },
        "text": {
          "status": "generated",
          "div": "<div xmlns=\"http://www.w3.org/1999/xhtml\"><table class=\"hl7__eu__lab__report\"><tr><th>Test</th><th>03-Oct-2017</th><th>Reference&#xA0;Range</th><th>Unit</th></tr><tr><td>Odor of Urine</td></tr></table></div>"
        },
        "status": "final",
        "subject": {
          "reference": "urn:uuid:b4a82167-add5-4111-9fd7-7150f734f1d6",
          "display": "Meaghan Neary"
        },
        "effectiveDateTime": "2017-10-02T22:11:04Z",
        "specimen": {
          "reference": "urn:uuid:32326cbe-9b82-461c-90db-b5023d735837"
        }
      }
    },
    {
      "fullUrl": "urn:uuid:68f662de-c591-4be3-bfb7-71e46fae3947",
      "resource": {
        "resourceType": "Observation",
        "id": "68f662de-c591-4be3-bfb7-71e46fae3947",
        "meta": {
          "profile": [
            "http://hl7.eu/fhir/laboratory/StructureDefinition/Observation-resultslab-eu-lab"
          ]
        },
        "performer": [
          {
            "display": "The Central European Lab"
          }
        ],
        "category": [
          {
            "coding": [
              {
                "system": "http://terminology.hl7.org/CodeSystem/observation-category",
                "code": "laboratory"
              }
            ]
          }
        ],
        "code": {
          "coding": [
            {
              "code": "32167-9",
              "system": "http://loinc.org",
              "display": "Clarity of Urine"
            }
          ],
          "text": "Clarity of Urine"
        },
        "text": {
          "status": "generated",
          "div": "<div xmlns=\"http://www.w3.org/1999/xhtml\"><table class=\"hl7__eu__lab__report\"><tr><th>Test</th><th>03-Oct-2017</th><th>Reference&#xA0;Range</th><th>Unit</th></tr><tr><td>Clarity of Urine</td></tr></table></div>"
        },
        "status": "final",
        "subject": {
          "reference": "urn:uuid:b4a82167-add5-4111-9fd7-7150f734f1d6",
          "display": "Meaghan Neary"
        },
        "effectiveDateTime": "2017-10-02T22:11:04Z",
        "specimen": {
          "reference": "urn:uuid:32326cbe-9b82-461c-90db-b5023d735837"
        }
      }
    },
    {
      "fullUrl": "urn:uuid:4c295a80-8e26-4058-b796-bd4e71f9023d",
      "resource": {
        "resourceType": "Observation",
        "id": "4c295a80-8e26-4058-b796-bd4e71f9023d",
        "meta": {
          "profile": [
            "http://hl7.eu/fhir/laboratory/StructureDefinition/Observation-resultslab-eu-lab"
          ]
        },
        "performer": [
          {
            "display": "The Central European Lab"
          }
        ],
        "category": [
          {
            "coding": [
              {
                "system": "http://terminology.hl7.org/CodeSystem/observation-category",
                "code": "laboratory"
              }
            ]
          }
        ],
        "code": {
          "coding": [
            {
              "code": "5778-6",
              "system": "http://loinc.org",
              "display": "Color of Urine"
            }
          ],
          "text": "Color of Urine"
        },
        "text": {
          "status": "generated",
          "div": "<div xmlns=\"http://www.w3.org/1999/xhtml\"><table class=\"hl7__eu__lab__report\"><tr><th>Test</th><th>03-Oct-2017</th><th>Reference&#xA0;Range</th><th>Unit</th></tr><tr><td>Color of Urine</td></tr></table></div>"
        },
        "status": "final",
        "subject": {
          "reference": "urn:uuid:b4a82167-add5-4111-9fd7-7150f734f1d6",
          "display": "Meaghan Neary"
        },
        "effectiveDateTime": "2017-10-02T22:11:04Z",
        "specimen": {
          "reference": "urn:uuid:32326cbe-9b82-461c-90db-b5023d735837"
        }
      }
    },
    {
      "fullUrl": "urn:uuid:964eaa8b-50f3-43d4-95e0-d6e734538fb3",
      "resource": {
        "resourceType": "Observation",
        "id": "964eaa8b-50f3-43d4-95e0-d6e734538fb3",
        "meta": {
          "profile": [
            "http://hl7.eu/fhir/laboratory/StructureDefinition/Observation-resultslab-eu-lab"
          ]
        },
        "performer": [
          {
            "display": "The Central European Lab"
          }
        ],
        "category": [
          {
            "coding": [
              {
                "system": "http://terminology.hl7.org/CodeSystem/observation-category",
                "code": "laboratory"
              }
            ]
          }
        ],
        "code": {
          "coding": [
            {
              "code": "5792-7",
              "system": "http://loinc.org",
              "display": "Glucose [Mass/volume] in Urine by Test strip"
            }
          ],
          "text": "Glucose [Mass/volume] in Urine by Test strip"
        },
        "valueQuantity": {
          "system": "http://unitsofmeasure.org",
          "value": 2.3,
          "unit": "mg/dL",
          "code": "mg/dL"
        },
        "referenceRange": [
          {
            "low": {
              "value": 0.8,
              "code": "mg/dL",
              "system": "http://unitsofmeasure.org"
            }
          },
          {
            "high": {
              "value": 0,
              "code": "mg/dL",
              "system": "http://unitsofmeasure.org"
            }
          }
        ],
        "interpretation": [
          {
            "coding": [
              {
                "code": "H",
                "system": "http://terminology.hl7.org/CodeSystem/v3-ObservationInterpretation",
                "display": "High"
              }
            ]
          }
        ],
        "text": {
          "status": "generated",
          "div": "<div xmlns=\"http://www.w3.org/1999/xhtml\"><table class=\"hl7__eu__lab__report\"><tr><th>Test</th><th>03-Oct-2017</th><th>Reference&#xA0;Range</th><th>Unit</th></tr><tr><td>Glucose [Mass/volume] in Urine by Test strip</td><td>2.3</td><td>0.8 - 0</td><td>H</td><td>mg/dL</td></tr></table></div>"
        },
        "status": "final",
        "subject": {
          "reference": "urn:uuid:b4a82167-add5-4111-9fd7-7150f734f1d6",
          "display": "Meaghan Neary"
        },
        "effectiveDateTime": "2017-10-02T22:11:04Z",
        "specimen": {
          "reference": "urn:uuid:32326cbe-9b82-461c-90db-b5023d735837"
        }
      }
    },
    {
      "fullUrl": "urn:uuid:176b4b1a-d741-4792-b054-6ccaed7b0678",
      "resource": {
        "resourceType": "Observation",
        "id": "176b4b1a-d741-4792-b054-6ccaed7b0678",
        "meta": {
          "profile": [
            "http://hl7.eu/fhir/laboratory/StructureDefinition/Observation-resultslab-eu-lab"
          ]
        },
        "performer": [
          {
            "display": "The Central European Lab"
          }
        ],
        "category": [
          {
            "coding": [
              {
                "system": "http://terminology.hl7.org/CodeSystem/observation-category",
                "code": "laboratory"
              }
            ]
          }
        ],
        "code": {
          "coding": [
            {
              "code": "25428-4",
              "system": "http://loinc.org",
              "display": "Glucose [Presence] in Urine by Test strip"
            }
          ],
          "text": "Glucose [Presence] in Urine by Test strip"
        },
        "text": {
          "status": "generated",
          "div": "<div xmlns=\"http://www.w3.org/1999/xhtml\"><table class=\"hl7__eu__lab__report\"><tr><th>Test</th><th>03-Oct-2017</th><th>Reference&#xA0;Range</th><th>Unit</th></tr><tr><td>Glucose [Presence] in Urine by Test strip</td></tr></table></div>"
        },
        "status": "final",
        "subject": {
          "reference": "urn:uuid:b4a82167-add5-4111-9fd7-7150f734f1d6",
          "display": "Meaghan Neary"
        },
        "effectiveDateTime": "2017-10-02T22:11:04Z",
        "specimen": {
          "reference": "urn:uuid:32326cbe-9b82-461c-90db-b5023d735837"
        }
      }
    },
    {
      "fullUrl": "urn:uuid:e01d9c24-329b-410b-a2de-e9f6f8db15f4",
      "resource": {
        "resourceType": "Observation",
        "id": "e01d9c24-329b-410b-a2de-e9f6f8db15f4",
        "meta": {
          "profile": [
            "http://hl7.eu/fhir/laboratory/StructureDefinition/Observation-resultslab-eu-lab"
          ]
        },
        "performer": [
          {
            "display": "The Central European Lab"
          }
        ],
        "category": [
          {
            "coding": [
              {
                "system": "http://terminology.hl7.org/CodeSystem/observation-category",
                "code": "laboratory"
              }
            ]
          }
        ],
        "code": {
          "coding": [
            {
              "code": "20505-4",
              "system": "http://loinc.org",
              "display": "Bilirubin.total [Mass/volume] in Urine by Test strip"
            }
          ],
          "text": "Bilirubin.total [Mass/volume] in Urine by Test strip"
        },
        "valueQuantity": {
          "system": "http://unitsofmeasure.org",
          "value": 1.1,
          "unit": "mg/dL",
          "code": "mg/dL"
        },
        "referenceRange": [
          {
            "low": {
              "value": 0,
              "code": "mg/dL",
              "system": "http://unitsofmeasure.org"
            }
          },
          {
            "high": {
              "value": 1,
              "code": "mg/dL",
              "system": "http://unitsofmeasure.org"
            }
          }
        ],
        "interpretation": [
          {
            "coding": [
              {
                "code": "H",
                "system": "http://terminology.hl7.org/CodeSystem/v3-ObservationInterpretation",
                "display": "High"
              }
            ]
          }
        ],
        "text": {
          "status": "generated",
          "div": "<div xmlns=\"http://www.w3.org/1999/xhtml\"><table class=\"hl7__eu__lab__report\"><tr><th>Test</th><th>03-Oct-2017</th><th>Reference&#xA0;Range</th><th>Unit</th></tr><tr><td>Bilirubin.total [Mass/volume] in Urine by Test strip</td><td>1.1</td><td>0 - 1</td><td>H</td><td>mg/dL</td></tr></table></div>"
        },
        "status": "final",
        "subject": {
          "reference": "urn:uuid:b4a82167-add5-4111-9fd7-7150f734f1d6",
          "display": "Meaghan Neary"
        },
        "effectiveDateTime": "2017-10-02T22:11:04Z",
        "specimen": {
          "reference": "urn:uuid:32326cbe-9b82-461c-90db-b5023d735837"
        }
      }
    },
    {
      "fullUrl": "urn:uuid:7622644f-a785-41a6-bf97-e6e7b66309a3",
      "resource": {
        "resourceType": "Observation",
        "id": "7622644f-a785-41a6-bf97-e6e7b66309a3",
        "meta": {
          "profile": [
            "http://hl7.eu/fhir/laboratory/StructureDefinition/Observation-resultslab-eu-lab"
          ]
        },
        "performer": [
          {
            "display": "The Central European Lab"
          }
        ],
        "category": [
          {
            "coding": [
              {
                "system": "http://terminology.hl7.org/CodeSystem/observation-category",
                "code": "laboratory"
              }
            ]
          }
        ],
        "code": {
          "coding": [
            {
              "code": "5770-3",
              "system": "http://loinc.org",
              "display": "Bilirubin.total [Presence] in Urine by Test strip"
            }
          ],
          "text": "Bilirubin.total [Presence] in Urine by Test strip"
        },
        "text": {
          "status": "generated",
          "div": "<div xmlns=\"http://www.w3.org/1999/xhtml\"><table class=\"hl7__eu__lab__report\"><tr><th>Test</th><th>03-Oct-2017</th><th>Reference&#xA0;Range</th><th>Unit</th></tr><tr><td>Bilirubin.total [Presence] in Urine by Test strip</td></tr></table></div>"
        },
        "status": "final",
        "subject": {
          "reference": "urn:uuid:b4a82167-add5-4111-9fd7-7150f734f1d6",
          "display": "Meaghan Neary"
        },
        "effectiveDateTime": "2017-10-02T22:11:04Z",
        "specimen": {
          "reference": "urn:uuid:32326cbe-9b82-461c-90db-b5023d735837"
        }
      }
    },
    {
      "fullUrl": "urn:uuid:84836d1c-2eb5-4f2e-9a77-9f7c5233e515",
      "resource": {
        "resourceType": "Observation",
        "id": "84836d1c-2eb5-4f2e-9a77-9f7c5233e515",
        "meta": {
          "profile": [
            "http://hl7.eu/fhir/laboratory/StructureDefinition/Observation-resultslab-eu-lab"
          ]
        },
        "performer": [
          {
            "display": "The Central European Lab"
          }
        ],
        "category": [
          {
            "coding": [
              {
                "system": "http://terminology.hl7.org/CodeSystem/observation-category",
                "code": "laboratory"
              }
            ]
          }
        ],
        "code": {
          "coding": [
            {
              "code": "5797-6",
              "system": "http://loinc.org",
              "display": "Ketones [Mass/volume] in Urine by Test strip"
            }
          ],
          "text": "Ketones [Mass/volume] in Urine by Test strip"
        },
        "valueQuantity": {
          "system": "http://unitsofmeasure.org",
          "value": 17.8,
          "unit": "mg/dL",
          "code": "mg/dL"
        },
        "referenceRange": [
          {
            "low": {
              "value": 0,
              "code": "mg/dL",
              "system": "http://unitsofmeasure.org"
            }
          },
          {
            "high": {
              "value": 4,
              "code": "mg/dL",
              "system": "http://unitsofmeasure.org"
            }
          }
        ],
        "interpretation": [
          {
            "coding": [
              {
                "code": "H",
                "system": "http://terminology.hl7.org/CodeSystem/v3-ObservationInterpretation",
                "display": "High"
              }
            ]
          }
        ],
        "text": {
          "status": "generated",
          "div": "<div xmlns=\"http://www.w3.org/1999/xhtml\"><table class=\"hl7__eu__lab__report\"><tr><th>Test</th><th>03-Oct-2017</th><th>Reference&#xA0;Range</th><th>Unit</th></tr><tr><td>Ketones [Mass/volume] in Urine by Test strip</td><td>17.8</td><td>0 - 4</td><td>H</td><td>mg/dL</td></tr></table></div>"
        },
        "status": "final",
        "subject": {
          "reference": "urn:uuid:b4a82167-add5-4111-9fd7-7150f734f1d6",
          "display": "Meaghan Neary"
        },
        "effectiveDateTime": "2017-10-02T22:11:04Z",
        "specimen": {
          "reference": "urn:uuid:32326cbe-9b82-461c-90db-b5023d735837"
        }
      }
    },
    {
      "fullUrl": "urn:uuid:4eb27eff-2226-465f-9a40-e8240858365f",
      "resource": {
        "resourceType": "Observation",
        "id": "4eb27eff-2226-465f-9a40-e8240858365f",
        "meta": {
          "profile": [
            "http://hl7.eu/fhir/laboratory/StructureDefinition/Observation-resultslab-eu-lab"
          ]
        },
        "performer": [
          {
            "display": "The Central European Lab"
          }
        ],
        "category": [
          {
            "coding": [
              {
                "system": "http://terminology.hl7.org/CodeSystem/observation-category",
                "code": "laboratory"
              }
            ]
          }
        ],
        "code": {
          "coding": [
            {
              "code": "2514-8",
              "system": "http://loinc.org",
              "display": "Ketones [Presence] in Urine by Test strip"
            }
          ],
          "text": "Ketones [Presence] in Urine by Test strip"
        },
        "text": {
          "status": "generated",
          "div": "<div xmlns=\"http://www.w3.org/1999/xhtml\"><table class=\"hl7__eu__lab__report\"><tr><th>Test</th><th>03-Oct-2017</th><th>Reference&#xA0;Range</th><th>Unit</th></tr><tr><td>Ketones [Presence] in Urine by Test strip</td></tr></table></div>"
        },
        "status": "final",
        "subject": {
          "reference": "urn:uuid:b4a82167-add5-4111-9fd7-7150f734f1d6",
          "display": "Meaghan Neary"
        },
        "effectiveDateTime": "2017-10-02T22:11:04Z",
        "specimen": {
          "reference": "urn:uuid:32326cbe-9b82-461c-90db-b5023d735837"
        }
      }
    },
    {
      "fullUrl": "urn:uuid:16404faa-ce55-4588-b7e8-92b761506879",
      "resource": {
        "resourceType": "Observation",
        "id": "16404faa-ce55-4588-b7e8-92b761506879",
        "meta": {
          "profile": [
            "http://hl7.eu/fhir/laboratory/StructureDefinition/Observation-resultslab-eu-lab"
          ]
        },
        "performer": [
          {
            "display": "The Central European Lab"
          }
        ],
        "category": [
          {
            "coding": [
              {
                "system": "http://terminology.hl7.org/CodeSystem/observation-category",
                "code": "laboratory"
              }
            ]
          }
        ],
        "code": {
          "coding": [
            {
              "code": "5811-5",
              "system": "http://loinc.org",
              "display": "Specific gravity of Urine by Test strip"
            }
          ],
          "text": "Specific gravity of Urine by Test strip"
        },
        "valueQuantity": {
          "system": "http://unitsofmeasure.org",
          "value": 1,
          "unit": "{nominal}",
          "code": "{nominal}"
        },
        "referenceRange": [
          {
            "low": {
              "value": 1.005,
              "code": "g/mL",
              "system": "http://unitsofmeasure.org"
            }
          },
          {
            "high": {
              "value": 1.03,
              "code": "g/mL",
              "system": "http://unitsofmeasure.org"
            }
          }
        ],
        "interpretation": [
          {
            "coding": [
              {
                "code": "L",
                "system": "http://terminology.hl7.org/CodeSystem/v3-ObservationInterpretation",
                "display": "Low"
              }
            ]
          }
        ],
        "text": {
          "status": "generated",
          "div": "<div xmlns=\"http://www.w3.org/1999/xhtml\"><table class=\"hl7__eu__lab__report\"><tr><th>Test</th><th>03-Oct-2017</th><th>Reference&#xA0;Range</th><th>Unit</th></tr><tr><td>Specific gravity of Urine by Test strip</td><td>1.0</td><td>1.005 - 1.03</td><td>L</td><td>{nominal}</td></tr></table></div>"
        },
        "status": "final",
        "subject": {
          "reference": "urn:uuid:b4a82167-add5-4111-9fd7-7150f734f1d6",
          "display": "Meaghan Neary"
        },
        "effectiveDateTime": "2017-10-02T22:11:04Z",
        "specimen": {
          "reference": "urn:uuid:32326cbe-9b82-461c-90db-b5023d735837"
        }
      }
    },
    {
      "fullUrl": "urn:uuid:f5ef3528-23c1-49a1-9e9a-15fe6293201d",
      "resource": {
        "resourceType": "Observation",
        "id": "f5ef3528-23c1-49a1-9e9a-15fe6293201d",
        "meta": {
          "profile": [
            "http://hl7.eu/fhir/laboratory/StructureDefinition/Observation-resultslab-eu-lab"
          ]
        },
        "performer": [
          {
            "display": "The Central European Lab"
          }
        ],
        "category": [
          {
            "coding": [
              {
                "system": "http://terminology.hl7.org/CodeSystem/observation-category",
                "code": "laboratory"
              }
            ]
          }
        ],
        "code": {
          "coding": [
            {
              "code": "5803-2",
              "system": "http://loinc.org",
              "display": "pH of Urine by Test strip"
            }
          ],
          "text": "pH of Urine by Test strip"
        },
        "valueQuantity": {
          "system": "http://unitsofmeasure.org",
          "value": 5.1,
          "unit": "pH",
          "code": "pH"
        },
        "referenceRange": [
          {
            "low": {
              "value": 4.6,
              "code": "pH",
              "system": "http://unitsofmeasure.org"
            }
          },
          {
            "high": {
              "value": 7,
              "code": "pH",
              "system": "http://unitsofmeasure.org"
            }
          }
        ],
        "text": {
          "status": "generated",
          "div": "<div xmlns=\"http://www.w3.org/1999/xhtml\"><table class=\"hl7__eu__lab__report\"><tr><th>Test</th><th>03-Oct-2017</th><th>Reference&#xA0;Range</th><th>Unit</th></tr><tr><td>pH of Urine by Test strip</td><td>5.1</td><td>4.6 - 7</td><td></td><td>pH</td></tr></table></div>"
        },
        "status": "final",
        "subject": {
          "reference": "urn:uuid:b4a82167-add5-4111-9fd7-7150f734f1d6",
          "display": "Meaghan Neary"
        },
        "effectiveDateTime": "2017-10-02T22:11:04Z",
        "specimen": {
          "reference": "urn:uuid:32326cbe-9b82-461c-90db-b5023d735837"
        }
      }
    },
    {
      "fullUrl": "urn:uuid:b1f903d3-8ac9-41fd-802e-c787408201bb",
      "resource": {
        "resourceType": "Observation",
        "id": "b1f903d3-8ac9-41fd-802e-c787408201bb",
        "meta": {
          "profile": [
            "http://hl7.eu/fhir/laboratory/StructureDefinition/Observation-resultslab-eu-lab"
          ]
        },
        "performer": [
          {
            "display": "The Central European Lab"
          }
        ],
        "category": [
          {
            "coding": [
              {
                "system": "http://terminology.hl7.org/CodeSystem/observation-category",
                "code": "laboratory"
              }
            ]
          }
        ],
        "code": {
          "coding": [
            {
              "code": "5804-0",
              "system": "http://loinc.org",
              "display": "Protein [Mass/volume] in Urine by Test strip"
            }
          ],
          "text": "Protein [Mass/volume] in Urine by Test strip"
        },
        "valueQuantity": {
          "system": "http://unitsofmeasure.org",
          "value": 204.1,
          "unit": "mg/dL",
          "code": "mg/dL"
        },
        "referenceRange": [
          {
            "low": {
              "value": 0,
              "code": "mg/dL",
              "system": "http://unitsofmeasure.org"
            }
          },
          {
            "high": {
              "value": 14,
              "code": "mg/dL",
              "system": "http://unitsofmeasure.org"
            }
          }
        ],
        "interpretation": [
          {
            "coding": [
              {
                "code": "H",
                "system": "http://terminology.hl7.org/CodeSystem/v3-ObservationInterpretation",
                "display": "High"
              }
            ]
          }
        ],
        "text": {
          "status": "generated",
          "div": "<div xmlns=\"http://www.w3.org/1999/xhtml\"><table class=\"hl7__eu__lab__report\"><tr><th>Test</th><th>03-Oct-2017</th><th>Reference&#xA0;Range</th><th>Unit</th></tr><tr><td>Protein [Mass/volume] in Urine by Test strip</td><td>204.1</td><td>0 - 14</td><td>H</td><td>mg/dL</td></tr></table></div>"
        },
        "status": "final",
        "subject": {
          "reference": "urn:uuid:b4a82167-add5-4111-9fd7-7150f734f1d6",
          "display": "Meaghan Neary"
        },
        "effectiveDateTime": "2017-10-02T22:11:04Z",
        "specimen": {
          "reference": "urn:uuid:32326cbe-9b82-461c-90db-b5023d735837"
        }
      }
    },
    {
      "fullUrl": "urn:uuid:384108e5-18ce-4090-bde6-ff3534d3e40c",
      "resource": {
        "resourceType": "Observation",
        "id": "384108e5-18ce-4090-bde6-ff3534d3e40c",
        "meta": {
          "profile": [
            "http://hl7.eu/fhir/laboratory/StructureDefinition/Observation-resultslab-eu-lab"
          ]
        },
        "performer": [
          {
            "display": "The Central European Lab"
          }
        ],
        "category": [
          {
            "coding": [
              {
                "system": "http://terminology.hl7.org/CodeSystem/observation-category",
                "code": "laboratory"
              }
            ]
          }
        ],
        "code": {
          "coding": [
            {
              "code": "20454-5",
              "system": "http://loinc.org",
              "display": "Protein [Presence] in Urine by Test strip"
            }
          ],
          "text": "Protein [Presence] in Urine by Test strip"
        },
        "text": {
          "status": "generated",
          "div": "<div xmlns=\"http://www.w3.org/1999/xhtml\"><table class=\"hl7__eu__lab__report\"><tr><th>Test</th><th>03-Oct-2017</th><th>Reference&#xA0;Range</th><th>Unit</th></tr><tr><td>Protein [Presence] in Urine by Test strip</td></tr></table></div>"
        },
        "status": "final",
        "subject": {
          "reference": "urn:uuid:b4a82167-add5-4111-9fd7-7150f734f1d6",
          "display": "Meaghan Neary"
        },
        "effectiveDateTime": "2017-10-02T22:11:04Z",
        "specimen": {
          "reference": "urn:uuid:32326cbe-9b82-461c-90db-b5023d735837"
        }
      }
    },
    {
      "fullUrl": "urn:uuid:bbf2767c-146e-452c-90fa-42e4f0bbb727",
      "resource": {
        "resourceType": "Observation",
        "id": "bbf2767c-146e-452c-90fa-42e4f0bbb727",
        "meta": {
          "profile": [
            "http://hl7.eu/fhir/laboratory/StructureDefinition/Observation-resultslab-eu-lab"
          ]
        },
        "performer": [
          {
            "display": "The Central European Lab"
          }
        ],
        "category": [
          {
            "coding": [
              {
                "system": "http://terminology.hl7.org/CodeSystem/observation-category",
                "code": "laboratory"
              }
            ]
          }
        ],
        "code": {
          "coding": [
            {
              "code": "5802-4",
              "system": "http://loinc.org",
              "display": "Nitrite [Presence] in Urine by Test strip"
            }
          ],
          "text": "Nitrite [Presence] in Urine by Test strip"
        },
        "text": {
          "status": "generated",
          "div": "<div xmlns=\"http://www.w3.org/1999/xhtml\"><table class=\"hl7__eu__lab__report\"><tr><th>Test</th><th>03-Oct-2017</th><th>Reference&#xA0;Range</th><th>Unit</th></tr><tr><td>Nitrite [Presence] in Urine by Test strip</td></tr></table></div>"
        },
        "status": "final",
        "subject": {
          "reference": "urn:uuid:b4a82167-add5-4111-9fd7-7150f734f1d6",
          "display": "Meaghan Neary"
        },
        "effectiveDateTime": "2017-10-02T22:11:04Z",
        "specimen": {
          "reference": "urn:uuid:32326cbe-9b82-461c-90db-b5023d735837"
        }
      }
    },
    {
      "fullUrl": "urn:uuid:ff1ad60f-e2e1-4c90-8de5-39acad240b50",
      "resource": {
        "resourceType": "Observation",
        "id": "ff1ad60f-e2e1-4c90-8de5-39acad240b50",
        "meta": {
          "profile": [
            "http://hl7.eu/fhir/laboratory/StructureDefinition/Observation-resultslab-eu-lab"
          ]
        },
        "performer": [
          {
            "display": "The Central European Lab"
          }
        ],
        "category": [
          {
            "coding": [
              {
                "system": "http://terminology.hl7.org/CodeSystem/observation-category",
                "code": "laboratory"
              }
            ]
          }
        ],
        "code": {
          "coding": [
            {
              "code": "5794-3",
              "system": "http://loinc.org",
              "display": "Hemoglobin [Presence] in Urine by Test strip"
            }
          ],
          "text": "Hemoglobin [Presence] in Urine by Test strip"
        },
        "text": {
          "status": "generated",
          "div": "<div xmlns=\"http://www.w3.org/1999/xhtml\"><table class=\"hl7__eu__lab__report\"><tr><th>Test</th><th>03-Oct-2017</th><th>Reference&#xA0;Range</th><th>Unit</th></tr><tr><td>Hemoglobin [Presence] in Urine by Test strip</td></tr></table></div>"
        },
        "status": "final",
        "subject": {
          "reference": "urn:uuid:b4a82167-add5-4111-9fd7-7150f734f1d6",
          "display": "Meaghan Neary"
        },
        "effectiveDateTime": "2017-10-02T22:11:04Z",
        "specimen": {
          "reference": "urn:uuid:32326cbe-9b82-461c-90db-b5023d735837"
        }
      }
    },
    {
      "fullUrl": "urn:uuid:9ea36530-3143-430b-b8e8-b61d0e5809f2",
      "resource": {
        "resourceType": "Observation",
        "id": "9ea36530-3143-430b-b8e8-b61d0e5809f2",
        "meta": {
          "profile": [
            "http://hl7.eu/fhir/laboratory/StructureDefinition/Observation-resultslab-eu-lab"
          ]
        },
        "performer": [
          {
            "display": "The Central European Lab"
          }
        ],
        "category": [
          {
            "coding": [
              {
                "system": "http://terminology.hl7.org/CodeSystem/observation-category",
                "code": "laboratory"
              }
            ]
          }
        ],
        "code": {
          "coding": [
            {
              "code": "5799-2",
              "system": "http://loinc.org",
              "display": "Leukocyte esterase [Presence] in Urine by Test strip"
            }
          ],
          "text": "Leukocyte esterase [Presence] in Urine by Test strip"
        },
        "text": {
          "status": "generated",
          "div": "<div xmlns=\"http://www.w3.org/1999/xhtml\"><table class=\"hl7__eu__lab__report\"><tr><th>Test</th><th>03-Oct-2017</th><th>Reference&#xA0;Range</th><th>Unit</th></tr><tr><td>Leukocyte esterase [Presence] in Urine by Test strip</td></tr></table></div>"
        },
        "status": "final",
        "subject": {
          "reference": "urn:uuid:b4a82167-add5-4111-9fd7-7150f734f1d6",
          "display": "Meaghan Neary"
        },
        "effectiveDateTime": "2017-10-02T22:11:04Z",
        "specimen": {
          "reference": "urn:uuid:32326cbe-9b82-461c-90db-b5023d735837"
        }
      }
    },
    {
      "fullUrl": "urn:uuid:eaafa8ef-22ec-4a74-9029-f539fdca6cea",
      "resource": {
        "resourceType": "Observation",
        "id": "eaafa8ef-22ec-4a74-9029-f539fdca6cea",
        "meta": {
          "profile": [
            "http://hl7.eu/fhir/laboratory/StructureDefinition/Observation-resultslab-eu-lab"
          ]
        },
        "performer": [
          {
            "display": "The Central European Lab"
          }
        ],
        "category": [
          {
            "coding": [
              {
                "system": "http://terminology.hl7.org/CodeSystem/observation-category",
                "code": "laboratory"
              }
            ]
          }
        ],
        "code": {
          "coding": [
            {
              "code": "4548-4",
              "system": "http://loinc.org",
              "display": "Hemoglobin A1c/Hemoglobin.total in Blood"
            }
          ],
          "text": "Hemoglobin A1c/Hemoglobin.total in Blood"
        },
        "valueQuantity": {
          "system": "http://unitsofmeasure.org",
          "value": 3.4,
          "unit": "%",
          "code": "%"
        },
        "referenceRange": [
          {
            "low": {
              "value": 4,
              "code": "%",
              "system": "http://unitsofmeasure.org"
            }
          },
          {
            "high": {
              "value": 6.4,
              "code": "%",
              "system": "http://unitsofmeasure.org"
            }
          }
        ],
        "interpretation": [
          {
            "coding": [
              {
                "code": "L",
                "system": "http://terminology.hl7.org/CodeSystem/v3-ObservationInterpretation",
                "display": "Low"
              }
            ]
          }
        ],
        "text": {
          "status": "generated",
          "div": "<div xmlns=\"http://www.w3.org/1999/xhtml\"><table class=\"hl7__eu__lab__report\"><tr><th>Test</th><th>03-Oct-2017</th><th>Reference&#xA0;Range</th><th>Unit</th></tr><tr><td>Hemoglobin A1c/Hemoglobin.total in Blood</td><td>3.4</td><td>4 - 6.4</td><td>L</td><td>%</td></tr></table></div>"
        },
        "status": "final",
        "subject": {
          "reference": "urn:uuid:b4a82167-add5-4111-9fd7-7150f734f1d6",
          "display": "Meaghan Neary"
        },
        "effectiveDateTime": "2017-10-02T22:11:04Z",
        "specimen": {
          "reference": "urn:uuid:d60e0e9b-5099-4bbb-b092-b85895338740"
        }
      }
    },
    {
      "fullUrl": "urn:uuid:b136f80d-d808-49aa-b357-39e5f0e358fc",
      "resource": {
        "resourceType": "Observation",
        "id": "b136f80d-d808-49aa-b357-39e5f0e358fc",
        "meta": {
          "profile": [
            "http://hl7.eu/fhir/laboratory/StructureDefinition/Observation-resultslab-eu-lab"
          ]
        },
        "performer": [
          {
            "display": "The Central European Lab"
          }
        ],
        "category": [
          {
            "coding": [
              {
                "system": "http://terminology.hl7.org/CodeSystem/observation-category",
                "code": "laboratory"
              }
            ]
          }
        ],
        "code": {
          "coding": [
            {
              "code": "2339-0",
              "system": "http://loinc.org",
              "display": "Glucose [Mass/volume] in Blood"
            }
          ],
          "text": "Glucose [Mass/volume] in Blood"
        },
        "valueQuantity": {
          "system": "http://unitsofmeasure.org",
          "value": 86.7,
          "unit": "mg/dL",
          "code": "mg/dL"
        },
        "referenceRange": [
          {
            "low": {
              "value": 70,
              "code": "mg/dL",
              "system": "http://unitsofmeasure.org"
            }
          },
          {
            "high": {
              "value": 100,
              "code": "mg/dL",
              "system": "http://unitsofmeasure.org"
            }
          }
        ],
        "text": {
          "status": "generated",
          "div": "<div xmlns=\"http://www.w3.org/1999/xhtml\"><table class=\"hl7__eu__lab__report\"><tr><th>Test</th><th>03-Oct-2017</th><th>Reference&#xA0;Range</th><th>Unit</th></tr><tr><td>Glucose [Mass/volume] in Blood</td><td>86.7</td><td>70 - 100</td><td></td><td>mg/dL</td></tr></table></div>"
        },
        "status": "final",
        "subject": {
          "reference": "urn:uuid:b4a82167-add5-4111-9fd7-7150f734f1d6",
          "display": "Meaghan Neary"
        },
        "effectiveDateTime": "2017-10-02T22:11:04Z",
        "specimen": {
          "reference": "urn:uuid:d60e0e9b-5099-4bbb-b092-b85895338740"
        }
      }
    },
    {
      "fullUrl": "urn:uuid:83715f3c-0832-4c03-8bd2-147c4b377648",
      "resource": {
        "resourceType": "Observation",
        "id": "83715f3c-0832-4c03-8bd2-147c4b377648",
        "meta": {
          "profile": [
            "http://hl7.eu/fhir/laboratory/StructureDefinition/Observation-resultslab-eu-lab"
          ]
        },
        "performer": [
          {
            "display": "The Central European Lab"
          }
        ],
        "category": [
          {
            "coding": [
              {
                "system": "http://terminology.hl7.org/CodeSystem/observation-category",
                "code": "laboratory"
              }
            ]
          }
        ],
        "code": {
          "coding": [
            {
              "code": "6299-2",
              "system": "http://loinc.org",
              "display": "Urea nitrogen [Mass/volume] in Blood"
            }
          ],
          "text": "Urea nitrogen [Mass/volume] in Blood"
        },
        "valueQuantity": {
          "system": "http://unitsofmeasure.org",
          "value": 15.6,
          "unit": "mg/dL",
          "code": "mg/dL"
        },
        "referenceRange": [
          {
            "low": {
              "value": 7,
              "code": "mg/dL",
              "system": "http://unitsofmeasure.org"
            }
          },
          {
            "high": {
              "value": 43,
              "code": "mg/dL",
              "system": "http://unitsofmeasure.org"
            }
          }
        ],
        "text": {
          "status": "generated",
          "div": "<div xmlns=\"http://www.w3.org/1999/xhtml\"><table class=\"hl7__eu__lab__report\"><tr><th>Test</th><th>03-Oct-2017</th><th>Reference&#xA0;Range</th><th>Unit</th></tr><tr><td>Urea nitrogen [Mass/volume] in Blood</td><td>15.6</td><td>7 - 43</td><td></td><td>mg/dL</td></tr></table></div>"
        },
        "status": "final",
        "subject": {
          "reference": "urn:uuid:b4a82167-add5-4111-9fd7-7150f734f1d6",
          "display": "Meaghan Neary"
        },
        "effectiveDateTime": "2017-10-02T22:11:04Z",
        "specimen": {
          "reference": "urn:uuid:d60e0e9b-5099-4bbb-b092-b85895338740"
        }
      }
    },
    {
      "fullUrl": "urn:uuid:01914a6e-db07-495b-9f09-b16dd2698431",
      "resource": {
        "resourceType": "Observation",
        "id": "01914a6e-db07-495b-9f09-b16dd2698431",
        "meta": {
          "profile": [
            "http://hl7.eu/fhir/laboratory/StructureDefinition/Observation-resultslab-eu-lab"
          ]
        },
        "performer": [
          {
            "display": "The Central European Lab"
          }
        ],
        "category": [
          {
            "coding": [
              {
                "system": "http://terminology.hl7.org/CodeSystem/observation-category",
                "code": "laboratory"
              }
            ]
          }
        ],
        "code": {
          "coding": [
            {
              "code": "38483-4",
              "system": "http://loinc.org",
              "display": "Creatinine [Mass/volume] in Blood"
            }
          ],
          "text": "Creatinine [Mass/volume] in Blood"
        },
        "valueQuantity": {
          "system": "http://unitsofmeasure.org",
          "value": 2.4,
          "unit": "mg/dL",
          "code": "mg/dL"
        },
        "referenceRange": [
          {
            "low": {
              "value": 0.6,
              "code": "mg/dL",
              "system": "http://unitsofmeasure.org"
            }
          },
          {
            "high": {
              "value": 1.1,
              "code": "mg/dL",
              "system": "http://unitsofmeasure.org"
            }
          }
        ],
        "interpretation": [
          {
            "coding": [
              {
                "code": "H",
                "system": "http://terminology.hl7.org/CodeSystem/v3-ObservationInterpretation",
                "display": "High"
              }
            ]
          }
        ],
        "text": {
          "status": "generated",
          "div": "<div xmlns=\"http://www.w3.org/1999/xhtml\"><table class=\"hl7__eu__lab__report\"><tr><th>Test</th><th>03-Oct-2017</th><th>Reference&#xA0;Range</th><th>Unit</th></tr><tr><td>Creatinine [Mass/volume] in Blood</td><td>2.4</td><td>0.6 - 1.1</td><td>H</td><td>mg/dL</td></tr></table></div>"
        },
        "status": "final",
        "subject": {
          "reference": "urn:uuid:b4a82167-add5-4111-9fd7-7150f734f1d6",
          "display": "Meaghan Neary"
        },
        "effectiveDateTime": "2017-10-02T22:11:04Z",
        "specimen": {
          "reference": "urn:uuid:d60e0e9b-5099-4bbb-b092-b85895338740"
        }
      }
    },
    {
      "fullUrl": "urn:uuid:e10c6fe9-aab7-4272-b7b6-b047d9e3d40b",
      "resource": {
        "resourceType": "Observation",
        "id": "e10c6fe9-aab7-4272-b7b6-b047d9e3d40b",
        "meta": {
          "profile": [
            "http://hl7.eu/fhir/laboratory/StructureDefinition/Observation-resultslab-eu-lab"
          ]
        },
        "performer": [
          {
            "display": "The Central European Lab"
          }
        ],
        "category": [
          {
            "coding": [
              {
                "system": "http://terminology.hl7.org/CodeSystem/observation-category",
                "code": "laboratory"
              }
            ]
          }
        ],
        "code": {
          "coding": [
            {
              "code": "49765-1",
              "system": "http://loinc.org",
              "display": "Calcium [Mass/volume] in Blood"
            }
          ],
          "text": "Calcium [Mass/volume] in Blood"
        },
        "valueQuantity": {
          "system": "http://unitsofmeasure.org",
          "value": 8.8,
          "unit": "mg/dL",
          "code": "mg/dL"
        },
        "referenceRange": [
          {
            "low": {
              "value": 8.5,
              "code": "mg/dL",
              "system": "http://unitsofmeasure.org"
            }
          },
          {
            "high": {
              "value": 10.5,
              "code": "mg/dL",
              "system": "http://unitsofmeasure.org"
            }
          }
        ],
        "text": {
          "status": "generated",
          "div": "<div xmlns=\"http://www.w3.org/1999/xhtml\"><table class=\"hl7__eu__lab__report\"><tr><th>Test</th><th>03-Oct-2017</th><th>Reference&#xA0;Range</th><th>Unit</th></tr><tr><td>Calcium [Mass/volume] in Blood</td><td>8.8</td><td>8.5 - 10.5</td><td></td><td>mg/dL</td></tr></table></div>"
        },
        "status": "final",
        "subject": {
          "reference": "urn:uuid:b4a82167-add5-4111-9fd7-7150f734f1d6",
          "display": "Meaghan Neary"
        },
        "effectiveDateTime": "2017-10-02T22:11:04Z",
        "specimen": {
          "reference": "urn:uuid:d60e0e9b-5099-4bbb-b092-b85895338740"
        }
      }
    },
    {
      "fullUrl": "urn:uuid:42b63351-6fe3-447f-8fcc-8f591522db46",
      "resource": {
        "resourceType": "Observation",
        "id": "42b63351-6fe3-447f-8fcc-8f591522db46",
        "meta": {
          "profile": [
            "http://hl7.eu/fhir/laboratory/StructureDefinition/Observation-resultslab-eu-lab"
          ]
        },
        "performer": [
          {
            "display": "The Central European Lab"
          }
        ],
        "category": [
          {
            "coding": [
              {
                "system": "http://terminology.hl7.org/CodeSystem/observation-category",
                "code": "laboratory"
              }
            ]
          }
        ],
        "code": {
          "coding": [
            {
              "code": "2947-0",
              "system": "http://loinc.org",
              "display": "Sodium [Moles/volume] in Blood"
            }
          ],
          "text": "Sodium [Moles/volume] in Blood"
        },
        "valueQuantity": {
          "system": "http://unitsofmeasure.org",
          "value": 140.9,
          "unit": "mmol/L",
          "code": "mmol/L"
        },
        "referenceRange": [
          {
            "low": {
              "value": 135,
              "code": "mmol/L",
              "system": "http://unitsofmeasure.org"
            }
          },
          {
            "high": {
              "value": 145,
              "code": "mmol/L",
              "system": "http://unitsofmeasure.org"
            }
          }
        ],
        "text": {
          "status": "generated",
          "div": "<div xmlns=\"http://www.w3.org/1999/xhtml\"><table class=\"hl7__eu__lab__report\"><tr><th>Test</th><th>03-Oct-2017</th><th>Reference&#xA0;Range</th><th>Unit</th></tr><tr><td>Sodium [Moles/volume] in Blood</td><td>140.9</td><td>135 - 145</td><td></td><td>mmol/L</td></tr></table></div>"
        },
        "status": "final",
        "subject": {
          "reference": "urn:uuid:b4a82167-add5-4111-9fd7-7150f734f1d6",
          "display": "Meaghan Neary"
        },
        "effectiveDateTime": "2017-10-02T22:11:04Z",
        "specimen": {
          "reference": "urn:uuid:d60e0e9b-5099-4bbb-b092-b85895338740"
        }
      }
    },
    {
      "fullUrl": "urn:uuid:5279717c-4ba1-4889-b4da-ab747742fcfd",
      "resource": {
        "resourceType": "Observation",
        "id": "5279717c-4ba1-4889-b4da-ab747742fcfd",
        "meta": {
          "profile": [
            "http://hl7.eu/fhir/laboratory/StructureDefinition/Observation-resultslab-eu-lab"
          ]
        },
        "performer": [
          {
            "display": "The Central European Lab"
          }
        ],
        "category": [
          {
            "coding": [
              {
                "system": "http://terminology.hl7.org/CodeSystem/observation-category",
                "code": "laboratory"
              }
            ]
          }
        ],
        "code": {
          "coding": [
            {
              "code": "6298-4",
              "system": "http://loinc.org",
              "display": "Potassium [Moles/volume] in Blood"
            }
          ],
          "text": "Potassium [Moles/volume] in Blood"
        },
        "valueQuantity": {
          "system": "http://unitsofmeasure.org",
          "value": 5,
          "unit": "mmol/L",
          "code": "mmol/L"
        },
        "referenceRange": [
          {
            "low": {
              "value": 3.5,
              "code": "mmol/L",
              "system": "http://unitsofmeasure.org"
            }
          },
          {
            "high": {
              "value": 5.1,
              "code": "mmol/L",
              "system": "http://unitsofmeasure.org"
            }
          }
        ],
        "text": {
          "status": "generated",
          "div": "<div xmlns=\"http://www.w3.org/1999/xhtml\"><table class=\"hl7__eu__lab__report\"><tr><th>Test</th><th>03-Oct-2017</th><th>Reference&#xA0;Range</th><th>Unit</th></tr><tr><td>Potassium [Moles/volume] in Blood</td><td>5.0</td><td>3.5 - 5.1</td><td></td><td>mmol/L</td></tr></table></div>"
        },
        "status": "final",
        "subject": {
          "reference": "urn:uuid:b4a82167-add5-4111-9fd7-7150f734f1d6",
          "display": "Meaghan Neary"
        },
        "effectiveDateTime": "2017-10-02T22:11:04Z",
        "specimen": {
          "reference": "urn:uuid:d60e0e9b-5099-4bbb-b092-b85895338740"
        }
      }
    },
    {
      "fullUrl": "urn:uuid:0630426e-d952-4387-b636-c2f0ec6ee9bc",
      "resource": {
        "resourceType": "Observation",
        "id": "0630426e-d952-4387-b636-c2f0ec6ee9bc",
        "meta": {
          "profile": [
            "http://hl7.eu/fhir/laboratory/StructureDefinition/Observation-resultslab-eu-lab"
          ]
        },
        "performer": [
          {
            "display": "The Central European Lab"
          }
        ],
        "category": [
          {
            "coding": [
              {
                "system": "http://terminology.hl7.org/CodeSystem/observation-category",
                "code": "laboratory"
              }
            ]
          }
        ],
        "code": {
          "coding": [
            {
              "code": "2069-3",
              "system": "http://loinc.org",
              "display": "Chloride [Moles/volume] in Blood"
            }
          ],
          "text": "Chloride [Moles/volume] in Blood"
        },
        "valueQuantity": {
          "system": "http://unitsofmeasure.org",
          "value": 110.2,
          "unit": "mmol/L",
          "code": "mmol/L"
        },
        "referenceRange": [
          {
            "low": {
              "value": 98,
              "code": "mmol/L",
              "system": "http://unitsofmeasure.org"
            }
          },
          {
            "high": {
              "value": 108,
              "code": "mmol/L",
              "system": "http://unitsofmeasure.org"
            }
          }
        ],
        "interpretation": [
          {
            "coding": [
              {
                "code": "H",
                "system": "http://terminology.hl7.org/CodeSystem/v3-ObservationInterpretation",
                "display": "High"
              }
            ]
          }
        ],
        "text": {
          "status": "generated",
          "div": "<div xmlns=\"http://www.w3.org/1999/xhtml\"><table class=\"hl7__eu__lab__report\"><tr><th>Test</th><th>03-Oct-2017</th><th>Reference&#xA0;Range</th><th>Unit</th></tr><tr><td>Chloride [Moles/volume] in Blood</td><td>110.2</td><td>98 - 108</td><td>H</td><td>mmol/L</td></tr></table></div>"
        },
        "status": "final",
        "subject": {
          "reference": "urn:uuid:b4a82167-add5-4111-9fd7-7150f734f1d6",
          "display": "Meaghan Neary"
        },
        "effectiveDateTime": "2017-10-02T22:11:04Z",
        "specimen": {
          "reference": "urn:uuid:d60e0e9b-5099-4bbb-b092-b85895338740"
        }
      }
    },
    {
      "fullUrl": "urn:uuid:2a5fefbb-db5f-4339-b255-e117ac4bd646",
      "resource": {
        "resourceType": "Observation",
        "id": "2a5fefbb-db5f-4339-b255-e117ac4bd646",
        "meta": {
          "profile": [
            "http://hl7.eu/fhir/laboratory/StructureDefinition/Observation-resultslab-eu-lab"
          ]
        },
        "performer": [
          {
            "display": "The Central European Lab"
          }
        ],
        "category": [
          {
            "coding": [
              {
                "system": "http://terminology.hl7.org/CodeSystem/observation-category",
                "code": "laboratory"
              }
            ]
          }
        ],
        "code": {
          "coding": [
            {
              "code": "20565-8",
              "system": "http://loinc.org",
              "display": "Carbon dioxide, total [Moles/volume] in Blood"
            }
          ],
          "text": "Carbon dioxide, total [Moles/volume] in Blood"
        },
        "valueQuantity": {
          "system": "http://unitsofmeasure.org",
          "value": 20.7,
          "unit": "mmol/L",
          "code": "mmol/L"
        },
        "referenceRange": [
          {
            "low": {
              "value": 22,
              "code": "mmol/L",
              "system": "http://unitsofmeasure.org"
            }
          },
          {
            "high": {
              "value": 29,
              "code": "mmol/L",
              "system": "http://unitsofmeasure.org"
            }
          }
        ],
        "interpretation": [
          {
            "coding": [
              {
                "code": "L",
                "system": "http://terminology.hl7.org/CodeSystem/v3-ObservationInterpretation",
                "display": "Low"
              }
            ]
          }
        ],
        "text": {
          "status": "generated",
          "div": "<div xmlns=\"http://www.w3.org/1999/xhtml\"><table class=\"hl7__eu__lab__report\"><tr><th>Test</th><th>03-Oct-2017</th><th>Reference&#xA0;Range</th><th>Unit</th></tr><tr><td>Carbon dioxide, total [Moles/volume] in Blood</td><td>20.7</td><td>22 - 29</td><td>L</td><td>mmol/L</td></tr></table></div>"
        },
        "status": "final",
        "subject": {
          "reference": "urn:uuid:b4a82167-add5-4111-9fd7-7150f734f1d6",
          "display": "Meaghan Neary"
        },
        "effectiveDateTime": "2017-10-02T22:11:04Z",
        "specimen": {
          "reference": "urn:uuid:d60e0e9b-5099-4bbb-b092-b85895338740"
        }
      }
    },
    {
      "fullUrl": "urn:uuid:e224619a-e868-457f-9842-70281d65a5f5",
      "resource": {
        "resourceType": "Device",
        "id": "e224619a-e868-457f-9842-70281d65a5f5",
        "deviceName": [
          {
            "name": "SYNDERAI Synthetic Generator",
            "type": "manufacturer-name"
          }
        ],
        "version": [
          {
            "value": "5.0"
          }
        ],
        "text": {
          "status": "generated",
          "div": "<div xmlns=\"http://www.w3.org/1999/xhtml\">SYNDERAI Synthetic Generator v5.0</div>"
        },
        "status": "active\"",
        "distinctIdentifier": "synderai-generator-50",
        "manufacturer": "SYNDERAI Project"
      }
    },
    {
      "fullUrl": "urn:uuid:4b49387a-760f-44e9-aebe-396a01a46060",
      "resource": {
        "resourceType": "Provenance",
        "id": "4b49387a-760f-44e9-aebe-396a01a46060",
        "target": [
          {
            "reference": "Patient/b4a82167-add5-4111-9fd7-7150f734f1d6"
          },
          {
            "reference": "Bundle/57391ba5-53e6-4bdd-8052-584293a40ee8"
          },
          {
            "reference": "Composition/38180a2a-cee0-48b4-9919-ea7916979e53"
          },
          {
            "reference": "PractitionerRole/f6fde60e-3ddf-4fd0-a97f-75712b12a242"
          },
          {
            "reference": "Practitioner/b2317051-5452-4c2c-b4a9-95317a2e41d0"
          },
          {
            "reference": "PractitionerRole/d99c3ba5-93f6-4f4d-9c1d-98dbb9236f56"
          },
          {
            "reference": "Organization/f1a0df64-8575-4c24-aa4c-271c7cb9032a"
          }
        ],
        "activity": {
          "text": "Synthetic Example Data Generation"
        },
        "policy": [
          "https://synderai.net/synderai-synthetic-data-policy"
        ],
        "agent": [
          {
            "type": {
              "text": "author"
            },
            "who": {
              "reference": "Device/e224619a-e868-457f-9842-70281d65a5f5"
            }
          }
        ],
        "reason": [
          {
            "text": "Interoperability Testing and Training (non-clinical use)"
          }
        ],
        "text": {
          "status": "generated",
          "div": "<div xmlns=\"http://www.w3.org/1999/xhtml\">Provenance for SYNDERAI Synthetic Example Data Resource</div>"
        },
        "recorded": "2017-10-03T00:11:04Z"
      }
    },
    {
      "fullUrl": "urn:uuid:f6fde60e-3ddf-4fd0-a97f-75712b12a242",
      "resource": {
        "resourceType": "PractitionerRole",
        "id": "f6fde60e-3ddf-4fd0-a97f-75712b12a242",
        "meta": {
          "profile": [
            "http://hl7.eu/fhir/base/StructureDefinition/practitionerRole-eu"
          ]
        },
        "text": {
          "status": "generated",
          "div": "<div xmlns=\"http://www.w3.org/1999/xhtml\">Laboratory Role Id: f6fde60e-3ddf-4fd0-a97f-75712b12a242</div>"
        },
        "practitioner": {
          "reference": "urn:uuid:b2317051-5452-4c2c-b4a9-95317a2e41d0"
        }
      }
    },
    {
      "fullUrl": "urn:uuid:b2317051-5452-4c2c-b4a9-95317a2e41d0",
      "resource": {
        "resourceType": "Practitioner",
        "id": "b2317051-5452-4c2c-b4a9-95317a2e41d0",
        "meta": {
          "profile": [
            "http://hl7.eu/fhir/base/StructureDefinition/practitioner-eu"
          ]
        },
        "identifier": [
          {
            "assigner": {
              "display": "HL7 Europe"
            },
            "system": "urn:oid:2.16.840.1.113883.2.51.999",
            "value": "2094286e-4741-4d70-a39a-271a139db2cb"
          }
        ],
        "name": [
          {
            "prefix": [
              "dr"
            ],
            "given": [
              "Ex"
            ],
            "family": "Ample"
          }
        ],
        "address": [
          {
            "line": [
              "Laboratoire Central Européenne",
              "Boulevard du Jardin Botanique 32"
            ],
            "postalCode": "1000",
            "city": "Brussels",
            "country": "Belgium"
          }
        ],
        "text": {
          "status": "generated",
          "div": "<div xmlns=\"http://www.w3.org/1999/xhtml\">Laboratory: Laboratoire Central Européenne, 1000 Brussels, Belgium</div>"
        }
      }
    }
  ],
  "type": "document",
  "timestamp": "2017-10-03T00:11:04Z"
}
