{
  "resourceType": "Bundle",
  "id": "96596257-4795-48cc-866d-e785b359d74b",
  "meta": {
    "profile": [
      "http://hl7.eu/fhir/laboratory/StructureDefinition/Bundle-eu-lab"
    ]
  },
  "identifier": {
    "assigner": {
      "display": "HL7 Europe"
    },
    "system": "urn:oid:2.16.840.1.113883.2.51.999",
    "value": "9da45e35-fa5e-4931-9148-ba45f82f6ab8"
  },
  "entry": [
    {
      "fullUrl": "urn:uuid:5407e2cc-6751-413a-ad61-e1efb71b24d5",
      "resource": {
        "resourceType": "Composition",
        "id": "5407e2cc-6751-413a-ad61-e1efb71b24d5",
        "meta": {
          "profile": [
            "http://hl7.eu/fhir/laboratory/StructureDefinition/Composition-eu-lab"
          ]
        },
        "identifier": {
          "assigner": {
            "display": "HL7 Europe"
          },
          "system": "urn:oid:2.16.840.1.113883.2.51.999",
          "value": "65d2d41f-2715-4b80-b3ac-3e2ccb3d0f50"
        },
        "author": [
          {
            "reference": "urn:uuid:defbe3c7-dde2-4885-88e4-df46e3140239"
          }
        ],
        "category": [
          {
            "coding": [
              {
                "code": "26436-6",
                "system": "http://loinc.org",
                "display": "Laboratory studies (set)"
              }
            ]
          }
        ],
        "type": {
          "coding": [
            {
              "code": "11502-2",
              "system": "http://loinc.org",
              "display": "Laboratory report"
            }
          ],
          "text": "Laboratory Report"
        },
        "section": [
          {
            "code": {
              "coding": [
                {
                  "code": "26436-6",
                  "system": "http://loinc.org",
                  "display": "Laboratory studies (set)"
                }
              ],
              "text": "Laboratory studies"
            },
            "section": [
              {
                "code": {
                  "coding": [
                    {
                      "code": "$18719-5",
                      "system": "http://loinc.org",
                      "display": "Chemistry studies (set)"
                    }
                  ],
                  "text": "Chemistry"
                },
                "entry": [
                  {
                    "reference": "urn:uuid:ff1e19f4-2f32-4335-88ef-a8718858be47"
                  },
                  {
                    "reference": "urn:uuid:233ebdf4-75b9-4c95-9919-c93cd7b1e657"
                  },
                  {
                    "reference": "urn:uuid:c84969ca-d20d-409f-98fb-362de171ea1d"
                  },
                  {
                    "reference": "urn:uuid:aafc92a4-a267-4f6d-9ba1-a58ffa85d8ba"
                  },
                  {
                    "reference": "urn:uuid:0a05a34b-4322-464a-a8ce-f0ac46acfa49"
                  },
                  {
                    "reference": "urn:uuid:8d3b10dc-2f50-4dd3-8c92-1eae11186abe"
                  },
                  {
                    "reference": "urn:uuid:22024dd9-6917-44df-bb9b-d4b28adec367"
                  },
                  {
                    "reference": "urn:uuid:e971c308-eca0-4a81-9b70-1e9e2e796f48"
                  },
                  {
                    "reference": "urn:uuid:e20b6a83-e543-4ea7-88b7-cbf5e4a2e96c"
                  }
                ],
                "text": {
                  "status": "generated",
                  "div": "<div xmlns=\"http://www.w3.org/1999/xhtml\"><h3>Chemistry</h3><table class=\"hl7__eu__lab__report\"><thead><tr><th>Test</th><th>13-MAR-2025</th><th>Reference&#xA0;Range</th><th>Unit</th></tr></thead><tbody><tr><td>Hemoglobin A1c/Hemoglobin.total in Blood</td><td>5.9</td><td>4 - 6</td><td>%</td></tr><tr><td>Glucose [Mass/volume] in Blood</td><td>85.2</td><td>70 - 140</td><td>mg/dL</td></tr><tr><td>Urea nitrogen [Mass/volume] in Blood</td><td>7.2</td><td>7 - 25</td><td>mg/dL</td></tr><tr><td>Creatinine [Mass/volume] in Blood</td><td>0.7</td><td>0.6 - 1.1</td><td>mg/dL</td></tr><tr><td>Calcium [Mass/volume] in Blood</td><td>8.9</td><td>8.5 - 10.4</td><td>mg/dL</td></tr><tr><td>Sodium [Moles/volume] in Blood</td><td>141.7</td><td>135 - 145</td><td>mmol/L</td></tr><tr><td>Potassium [Moles/volume] in Blood</td><td>3.9</td><td>3.5 - 5.1</td><td>mmol/L</td></tr><tr><td>Chloride [Moles/volume] in Blood</td><td>103.1</td><td>98 - 108</td><td>mmol/L</td></tr><tr><td>Carbon dioxide, total [Moles/volume] in Blood</td><td>28.9</td><td>22 - 29</td><td>mmol/L</td></tr></tbody></table></div>"
                },
                "title": "Chemistry"
              }
            ],
            "title": "Laboratory Report"
          },
          {
            "text": {
              "status": "generated",
              "div": "<div xmlns=\"http://www.w3.org/1999/xhtml\"><h3>Annotation</h3><table class=\"hl7__eu__lab__report\"><tr><th>Conclusion and Recommendations based on this report and previous findings known to us</th></tr><tr><td>All measured parameters are within normal limits. Glycemic control (HbA1c, glucose) is adequate, and renal function (urea, creatinine), electrolytes, and calcium are normal. No laboratory evidence of metabolic or renal dysfunction at this time. Recommend routine follow-up as clinically indicated.</td></tr></table></div>"
            },
            "code": {
              "coding": [
                {
                  "system": "http://loinc.org",
                  "code": "48767-8",
                  "display": "Annotation comment"
                }
              ]
            },
            "title": "Annotation comment"
          }
        ],
        "status": "final",
        "subject": {
          "reference": "urn:uuid:df487726-4b41-4c4d-88f7-74227dae44b1",
          "display": "Vincenza Porzio"
        },
        "date": "2025-03-13T19:51:27Z",
        "title": "Laboratory Report",
        "confidentiality": "N"
      }
    },
    {
      "fullUrl": "urn:uuid:260ba157-0ae7-4b97-b424-208fc13e51be",
      "resource": {
        "resourceType": "DiagnosticReport",
        "id": "260ba157-0ae7-4b97-b424-208fc13e51be",
        "meta": {
          "profile": [
            "http://hl7.eu/fhir/laboratory/StructureDefinition/DiagnosticReport-eu-lab"
          ]
        },
        "identifier": [
          {
            "assigner": {
              "display": "HL7 Europe"
            },
            "system": "urn:oid:2.16.840.1.113883.2.51.999",
            "value": "e02114f8-e8f0-41e4-8b72-ed90de7e607d"
          }
        ],
        "extension": [
          {
            "url": "http://hl7.org/fhir/5.0/StructureDefinition/extension-DiagnosticReport.composition",
            "valueReference": {
              "reference": "urn:uuid:65d2d41f-2715-4b80-b3ac-3e2ccb3d0f50"
            }
          }
        ],
        "category": [
          {
            "coding": [
              {
                "code": "26436-6",
                "system": "http://loinc.org",
                "display": "Laboratory studies (set)"
              }
            ]
          }
        ],
        "specimen": [
          {
            "reference": "urn:uuid:3b937541-8c58-4732-8f5b-b3d2ee249532"
          }
        ],
        "result": [
          {
            "reference": "urn:uuid:ff1e19f4-2f32-4335-88ef-a8718858be47"
          },
          {
            "reference": "urn:uuid:233ebdf4-75b9-4c95-9919-c93cd7b1e657"
          },
          {
            "reference": "urn:uuid:c84969ca-d20d-409f-98fb-362de171ea1d"
          },
          {
            "reference": "urn:uuid:aafc92a4-a267-4f6d-9ba1-a58ffa85d8ba"
          },
          {
            "reference": "urn:uuid:0a05a34b-4322-464a-a8ce-f0ac46acfa49"
          },
          {
            "reference": "urn:uuid:8d3b10dc-2f50-4dd3-8c92-1eae11186abe"
          },
          {
            "reference": "urn:uuid:22024dd9-6917-44df-bb9b-d4b28adec367"
          },
          {
            "reference": "urn:uuid:e971c308-eca0-4a81-9b70-1e9e2e796f48"
          },
          {
            "reference": "urn:uuid:e20b6a83-e543-4ea7-88b7-cbf5e4a2e96c"
          }
        ],
        "status": "registered",
        "code": {
          "coding": [
            {
              "code": "11502-2",
              "system": "http://loinc.org",
              "display": "Laboratory report"
            }
          ]
        },
        "subject": {
          "reference": "urn:uuid:df487726-4b41-4c4d-88f7-74227dae44b1",
          "display": "Vincenza Porzio"
        }
      }
    },
    {
      "fullUrl": "urn:uuid:df487726-4b41-4c4d-88f7-74227dae44b1",
      "resource": {
        "resourceType": "Patient",
        "id": "df487726-4b41-4c4d-88f7-74227dae44b1",
        "meta": {
          "security": [
            {
              "system": "http://terminology.hl7.org/CodeSystem/v3-ActReason",
              "code": "HTEST"
            },
            {
              "system": "http://terminology.hl7.org/CodeSystem/v3-ActReason",
              "code": "TRAIN"
            }
          ],
          "tag": [
            {
              "system": "https://synderai.net/fhir/CodeSystem/tags",
              "code": "synthetic",
              "display": "SYNDERAI Synthetic data"
            }
          ],
          "profile": [
            "http://hl7.eu/fhir/base/StructureDefinition/patient-eu-core"
          ]
        },
        "identifier": [
          {
            "type": {
              "coding": [
                {
                  "code": "PT",
                  "system": "http://terminology.hl7.org/CodeSystem/v2-0203"
                }
              ]
            },
            "system": "http://ec.europa.eu/identifier/eci",
            "value": "9988-341158-1"
          },
          {
            "type": {
              "coding": [
                {
                  "code": "MR",
                  "system": "http://terminology.hl7.org/CodeSystem/v2-0203"
                }
              ]
            },
            "system": "http://local.setting.eu/identifier",
            "value": "559a1acd-87c3-5b56-0345-4eaff6c5aa0a"
          }
        ],
        "name": [
          {
            "family": "Porzio"
          },
          {
            "given": [
              "Vincenza"
            ]
          },
          {
            "text": "Vincenza Porzio"
          }
        ],
        "address": [
          {
            "line": [
              "Piazza Allegra, 720"
            ],
            "use": "home",
            "type": "physical",
            "postalCode": "36040",
            "city": "Grumolo Pedemonte",
            "country": "Italy"
          }
        ],
        "telecom": [
          {
            "system": "phone",
            "value": "041007473"
          }
        ],
        "extension": [
          {
            "url": "http://hl7.org/fhir/StructureDefinition/patient-nationality",
            "valueCodeableConcept": {
              "coding": [
                {
                  "code": "IT",
                  "system": "http://hl7.org/fhir/ValueSet/country"
                }
              ]
            }
          }
        ],
        "text": {
          "status": "generated",
          "div": "<div xmlns=\"http://www.w3.org/1999/xhtml\"><table class=\"hl7__ips\"><tr><td>Vincenza Porzio</td><td>female</td><td>13-Sep-1965</td></tr></table></div>"
        },
        "gender": "female",
        "birthDate": "1965-09-13"
      }
    },
    {
      "fullUrl": "urn:uuid:f5978136-c889-4e43-8daa-b62177ff9e13",
      "resource": {
        "resourceType": "ServiceRequest",
        "id": "f5978136-c889-4e43-8daa-b62177ff9e13",
        "meta": {
          "profile": [
            "http://hl7.eu/fhir/laboratory/StructureDefinition/ServiceRequest-eu-lab"
          ]
        },
        "identifier": [
          {
            "system": "http://example.org",
            "value": "a74a09a0-0cf1-400d-8b25-27daea7609c3"
          }
        ],
        "specimen": [
          {
            "reference": "urn:uuid:3b937541-8c58-4732-8f5b-b3d2ee249532"
          }
        ],
        "reasonCode": [
          {
            "coding": [
              {
                "code": "40055000",
                "system": "http://snomed.info/sct",
                "display": "Chronic sinusitis"
              }
            ]
          },
          {
            "coding": [
              {
                "code": "15777000",
                "system": "http://snomed.info/sct",
                "display": "Prediabetes"
              }
            ]
          },
          {
            "coding": [
              {
                "code": "239873007",
                "system": "http://snomed.info/sct",
                "display": "Osteoarthritis of knee"
              }
            ]
          },
          {
            "coding": [
              {
                "code": "6525002",
                "system": "http://snomed.info/sct",
                "display": "Dependent drug abuse"
              }
            ]
          },
          {
            "coding": [
              {
                "code": "196416002",
                "system": "http://snomed.info/sct",
                "display": "Impacted molars"
              }
            ]
          },
          {
            "coding": [
              {
                "code": "124171000119105",
                "system": "http://snomed.info/sct",
                "display": "Chronic intractable migraine without aura"
              }
            ]
          }
        ],
        "status": "active",
        "intent": "order",
        "code": {
          "coding": [
            {
              "code": "108252007",
              "system": "http://snomed.info/sct",
              "display": "Laboratory procedure"
            }
          ]
        },
        "subject": {
          "reference": "urn:uuid:df487726-4b41-4c4d-88f7-74227dae44b1",
          "display": "Vincenza Porzio"
        },
        "requester": {
          "reference": "urn:uuid:64f55fb4-1114-45a8-abae-5fa81b45f1ff"
        }
      }
    },
    {
      "fullUrl": "urn:uuid:64f55fb4-1114-45a8-abae-5fa81b45f1ff",
      "resource": {
        "resourceType": "PractitionerRole",
        "id": "64f55fb4-1114-45a8-abae-5fa81b45f1ff",
        "meta": {
          "profile": [
            "http://hl7.eu/fhir/base/StructureDefinition/practitionerRole-eu"
          ]
        },
        "text": {
          "status": "generated",
          "div": "<div xmlns=\"http://www.w3.org/1999/xhtml\">Provider Role Id: 64f55fb4-1114-45a8-abae-5fa81b45f1ff</div>"
        },
        "organization": {
          "reference": "urn:uuid:b07a0c8a-caa5-4af9-98df-cb3c7c8d6230"
        }
      }
    },
    {
      "fullUrl": "urn:uuid:b07a0c8a-caa5-4af9-98df-cb3c7c8d6230",
      "resource": {
        "resourceType": "Organization",
        "id": "b07a0c8a-caa5-4af9-98df-cb3c7c8d6230",
        "meta": {
          "profile": [
            "http://hl7.eu/fhir/base/StructureDefinition/organization-eu"
          ]
        },
        "identifier": [
          {
            "assigner": {
              "display": "HL7 Europe"
            },
            "system": "urn:oid:2.16.840.1.113883.2.51.999",
            "value": "639fe952-b898-4a17-82bb-91fdf16dbdbc"
          }
        ],
        "address": [
          {
            "country": "Italy"
          }
        ],
        "text": {
          "status": "generated",
          "div": "<div xmlns=\"http://www.w3.org/1999/xhtml\">Provider Organization: Villa Margherita</div>"
        },
        "name": "Villa Margherita"
      }
    },
    {
      "fullUrl": "urn:uuid:3b937541-8c58-4732-8f5b-b3d2ee249532",
      "resource": {
        "resourceType": "Specimen",
        "id": "3b937541-8c58-4732-8f5b-b3d2ee249532",
        "meta": {
          "profile": [
            "http://hl7.eu/fhir/laboratory/StructureDefinition/Specimen-eu-lab"
          ]
        },
        "collection": {
          "collectedDateTime": "2025-03-13"
        },
        "text": {
          "status": "generated",
          "div": "<div xmlns=\"http://www.w3.org/1999/xhtml\"><table class=\"hl7__eu__lab__report\"><tr><th>Specimen</th><th>Collection Date</th></tr><tr><td>Whole blood specimen (specimen)</td><td><span class=\"nb\">13-Mar-2025</span></td></tr></table></div>"
        },
        "type": {
          "coding": [
            {
              "code": "258580003",
              "system": "http://snomed.info/sct",
              "display": "Whole blood specimen (specimen)"
            }
          ]
        }
      }
    },
    {
      "fullUrl": "urn:uuid:ff1e19f4-2f32-4335-88ef-a8718858be47",
      "resource": {
        "resourceType": "Observation",
        "id": "ff1e19f4-2f32-4335-88ef-a8718858be47",
        "meta": {
          "profile": [
            "http://hl7.eu/fhir/laboratory/StructureDefinition/Observation-resultslab-eu-lab"
          ]
        },
        "performer": [
          {
            "display": "The Central European Lab"
          }
        ],
        "category": [
          {
            "coding": [
              {
                "system": "http://terminology.hl7.org/CodeSystem/observation-category",
                "code": "laboratory"
              }
            ]
          }
        ],
        "code": {
          "coding": [
            {
              "code": "4548-4",
              "system": "http://loinc.org",
              "display": "Hemoglobin A1c/Hemoglobin.total in Blood"
            }
          ],
          "text": "Hemoglobin A1c/Hemoglobin.total in Blood"
        },
        "valueQuantity": {
          "system": "http://unitsofmeasure.org",
          "value": 5.9,
          "unit": "%",
          "code": "%"
        },
        "referenceRange": [
          {
            "low": {
              "value": 4,
              "code": "%",
              "system": "http://unitsofmeasure.org"
            }
          },
          {
            "high": {
              "value": 6,
              "code": "%",
              "system": "http://unitsofmeasure.org"
            }
          }
        ],
        "text": {
          "status": "generated",
          "div": "<div xmlns=\"http://www.w3.org/1999/xhtml\"><table class=\"hl7__eu__lab__report\"><tr><th>Test</th><th>13-Mar-2025</th><th>Reference&#xA0;Range</th><th>Unit</th></tr><tr><td>Hemoglobin A1c/Hemoglobin.total in Blood</td><td>5.9</td><td>4 - 6</td><td></td><td>%</td></tr></table></div>"
        },
        "status": "final",
        "subject": {
          "reference": "urn:uuid:df487726-4b41-4c4d-88f7-74227dae44b1",
          "display": "Vincenza Porzio"
        },
        "effectiveDateTime": "2025-03-13T18:51:27Z",
        "specimen": {
          "reference": "urn:uuid:3b937541-8c58-4732-8f5b-b3d2ee249532"
        }
      }
    },
    {
      "fullUrl": "urn:uuid:233ebdf4-75b9-4c95-9919-c93cd7b1e657",
      "resource": {
        "resourceType": "Observation",
        "id": "233ebdf4-75b9-4c95-9919-c93cd7b1e657",
        "meta": {
          "profile": [
            "http://hl7.eu/fhir/laboratory/StructureDefinition/Observation-resultslab-eu-lab"
          ]
        },
        "performer": [
          {
            "display": "The Central European Lab"
          }
        ],
        "category": [
          {
            "coding": [
              {
                "system": "http://terminology.hl7.org/CodeSystem/observation-category",
                "code": "laboratory"
              }
            ]
          }
        ],
        "code": {
          "coding": [
            {
              "code": "2339-0",
              "system": "http://loinc.org",
              "display": "Glucose [Mass/volume] in Blood"
            }
          ],
          "text": "Glucose [Mass/volume] in Blood"
        },
        "valueQuantity": {
          "system": "http://unitsofmeasure.org",
          "value": 85.2,
          "unit": "mg/dL",
          "code": "mg/dL"
        },
        "referenceRange": [
          {
            "low": {
              "value": 70,
              "code": "mg/dL",
              "system": "http://unitsofmeasure.org"
            }
          },
          {
            "high": {
              "value": 140,
              "code": "mg/dL",
              "system": "http://unitsofmeasure.org"
            }
          }
        ],
        "text": {
          "status": "generated",
          "div": "<div xmlns=\"http://www.w3.org/1999/xhtml\"><table class=\"hl7__eu__lab__report\"><tr><th>Test</th><th>13-Mar-2025</th><th>Reference&#xA0;Range</th><th>Unit</th></tr><tr><td>Glucose [Mass/volume] in Blood</td><td>85.2</td><td>70 - 140</td><td></td><td>mg/dL</td></tr></table></div>"
        },
        "status": "final",
        "subject": {
          "reference": "urn:uuid:df487726-4b41-4c4d-88f7-74227dae44b1",
          "display": "Vincenza Porzio"
        },
        "effectiveDateTime": "2025-03-13T18:51:27Z",
        "specimen": {
          "reference": "urn:uuid:3b937541-8c58-4732-8f5b-b3d2ee249532"
        }
      }
    },
    {
      "fullUrl": "urn:uuid:c84969ca-d20d-409f-98fb-362de171ea1d",
      "resource": {
        "resourceType": "Observation",
        "id": "c84969ca-d20d-409f-98fb-362de171ea1d",
        "meta": {
          "profile": [
            "http://hl7.eu/fhir/laboratory/StructureDefinition/Observation-resultslab-eu-lab"
          ]
        },
        "performer": [
          {
            "display": "The Central European Lab"
          }
        ],
        "category": [
          {
            "coding": [
              {
                "system": "http://terminology.hl7.org/CodeSystem/observation-category",
                "code": "laboratory"
              }
            ]
          }
        ],
        "code": {
          "coding": [
            {
              "code": "6299-2",
              "system": "http://loinc.org",
              "display": "Urea nitrogen [Mass/volume] in Blood"
            }
          ],
          "text": "Urea nitrogen [Mass/volume] in Blood"
        },
        "valueQuantity": {
          "system": "http://unitsofmeasure.org",
          "value": 7.2,
          "unit": "mg/dL",
          "code": "mg/dL"
        },
        "referenceRange": [
          {
            "low": {
              "value": 7,
              "code": "mg/dL",
              "system": "http://unitsofmeasure.org"
            }
          },
          {
            "high": {
              "value": 25,
              "code": "mg/dL",
              "system": "http://unitsofmeasure.org"
            }
          }
        ],
        "text": {
          "status": "generated",
          "div": "<div xmlns=\"http://www.w3.org/1999/xhtml\"><table class=\"hl7__eu__lab__report\"><tr><th>Test</th><th>13-Mar-2025</th><th>Reference&#xA0;Range</th><th>Unit</th></tr><tr><td>Urea nitrogen [Mass/volume] in Blood</td><td>7.2</td><td>7 - 25</td><td></td><td>mg/dL</td></tr></table></div>"
        },
        "status": "final",
        "subject": {
          "reference": "urn:uuid:df487726-4b41-4c4d-88f7-74227dae44b1",
          "display": "Vincenza Porzio"
        },
        "effectiveDateTime": "2025-03-13T18:51:27Z",
        "specimen": {
          "reference": "urn:uuid:3b937541-8c58-4732-8f5b-b3d2ee249532"
        }
      }
    },
    {
      "fullUrl": "urn:uuid:aafc92a4-a267-4f6d-9ba1-a58ffa85d8ba",
      "resource": {
        "resourceType": "Observation",
        "id": "aafc92a4-a267-4f6d-9ba1-a58ffa85d8ba",
        "meta": {
          "profile": [
            "http://hl7.eu/fhir/laboratory/StructureDefinition/Observation-resultslab-eu-lab"
          ]
        },
        "performer": [
          {
            "display": "The Central European Lab"
          }
        ],
        "category": [
          {
            "coding": [
              {
                "system": "http://terminology.hl7.org/CodeSystem/observation-category",
                "code": "laboratory"
              }
            ]
          }
        ],
        "code": {
          "coding": [
            {
              "code": "38483-4",
              "system": "http://loinc.org",
              "display": "Creatinine [Mass/volume] in Blood"
            }
          ],
          "text": "Creatinine [Mass/volume] in Blood"
        },
        "valueQuantity": {
          "system": "http://unitsofmeasure.org",
          "value": 0.7,
          "unit": "mg/dL",
          "code": "mg/dL"
        },
        "referenceRange": [
          {
            "low": {
              "value": 0.6,
              "code": "mg/dL",
              "system": "http://unitsofmeasure.org"
            }
          },
          {
            "high": {
              "value": 1.1,
              "code": "mg/dL",
              "system": "http://unitsofmeasure.org"
            }
          }
        ],
        "text": {
          "status": "generated",
          "div": "<div xmlns=\"http://www.w3.org/1999/xhtml\"><table class=\"hl7__eu__lab__report\"><tr><th>Test</th><th>13-Mar-2025</th><th>Reference&#xA0;Range</th><th>Unit</th></tr><tr><td>Creatinine [Mass/volume] in Blood</td><td>0.7</td><td>0.6 - 1.1</td><td></td><td>mg/dL</td></tr></table></div>"
        },
        "status": "final",
        "subject": {
          "reference": "urn:uuid:df487726-4b41-4c4d-88f7-74227dae44b1",
          "display": "Vincenza Porzio"
        },
        "effectiveDateTime": "2025-03-13T18:51:27Z",
        "specimen": {
          "reference": "urn:uuid:3b937541-8c58-4732-8f5b-b3d2ee249532"
        }
      }
    },
    {
      "fullUrl": "urn:uuid:0a05a34b-4322-464a-a8ce-f0ac46acfa49",
      "resource": {
        "resourceType": "Observation",
        "id": "0a05a34b-4322-464a-a8ce-f0ac46acfa49",
        "meta": {
          "profile": [
            "http://hl7.eu/fhir/laboratory/StructureDefinition/Observation-resultslab-eu-lab"
          ]
        },
        "performer": [
          {
            "display": "The Central European Lab"
          }
        ],
        "category": [
          {
            "coding": [
              {
                "system": "http://terminology.hl7.org/CodeSystem/observation-category",
                "code": "laboratory"
              }
            ]
          }
        ],
        "code": {
          "coding": [
            {
              "code": "49765-1",
              "system": "http://loinc.org",
              "display": "Calcium [Mass/volume] in Blood"
            }
          ],
          "text": "Calcium [Mass/volume] in Blood"
        },
        "valueQuantity": {
          "system": "http://unitsofmeasure.org",
          "value": 8.9,
          "unit": "mg/dL",
          "code": "mg/dL"
        },
        "referenceRange": [
          {
            "low": {
              "value": 8.5,
              "code": "mg/dL",
              "system": "http://unitsofmeasure.org"
            }
          },
          {
            "high": {
              "value": 10.4,
              "code": "mg/dL",
              "system": "http://unitsofmeasure.org"
            }
          }
        ],
        "text": {
          "status": "generated",
          "div": "<div xmlns=\"http://www.w3.org/1999/xhtml\"><table class=\"hl7__eu__lab__report\"><tr><th>Test</th><th>13-Mar-2025</th><th>Reference&#xA0;Range</th><th>Unit</th></tr><tr><td>Calcium [Mass/volume] in Blood</td><td>8.9</td><td>8.5 - 10.4</td><td></td><td>mg/dL</td></tr></table></div>"
        },
        "status": "final",
        "subject": {
          "reference": "urn:uuid:df487726-4b41-4c4d-88f7-74227dae44b1",
          "display": "Vincenza Porzio"
        },
        "effectiveDateTime": "2025-03-13T18:51:27Z",
        "specimen": {
          "reference": "urn:uuid:3b937541-8c58-4732-8f5b-b3d2ee249532"
        }
      }
    },
    {
      "fullUrl": "urn:uuid:8d3b10dc-2f50-4dd3-8c92-1eae11186abe",
      "resource": {
        "resourceType": "Observation",
        "id": "8d3b10dc-2f50-4dd3-8c92-1eae11186abe",
        "meta": {
          "profile": [
            "http://hl7.eu/fhir/laboratory/StructureDefinition/Observation-resultslab-eu-lab"
          ]
        },
        "performer": [
          {
            "display": "The Central European Lab"
          }
        ],
        "category": [
          {
            "coding": [
              {
                "system": "http://terminology.hl7.org/CodeSystem/observation-category",
                "code": "laboratory"
              }
            ]
          }
        ],
        "code": {
          "coding": [
            {
              "code": "2947-0",
              "system": "http://loinc.org",
              "display": "Sodium [Moles/volume] in Blood"
            }
          ],
          "text": "Sodium [Moles/volume] in Blood"
        },
        "valueQuantity": {
          "system": "http://unitsofmeasure.org",
          "value": 141.7,
          "unit": "mmol/L",
          "code": "mmol/L"
        },
        "referenceRange": [
          {
            "low": {
              "value": 135,
              "code": "mmol/L",
              "system": "http://unitsofmeasure.org"
            }
          },
          {
            "high": {
              "value": 145,
              "code": "mmol/L",
              "system": "http://unitsofmeasure.org"
            }
          }
        ],
        "text": {
          "status": "generated",
          "div": "<div xmlns=\"http://www.w3.org/1999/xhtml\"><table class=\"hl7__eu__lab__report\"><tr><th>Test</th><th>13-Mar-2025</th><th>Reference&#xA0;Range</th><th>Unit</th></tr><tr><td>Sodium [Moles/volume] in Blood</td><td>141.7</td><td>135 - 145</td><td></td><td>mmol/L</td></tr></table></div>"
        },
        "status": "final",
        "subject": {
          "reference": "urn:uuid:df487726-4b41-4c4d-88f7-74227dae44b1",
          "display": "Vincenza Porzio"
        },
        "effectiveDateTime": "2025-03-13T18:51:27Z",
        "specimen": {
          "reference": "urn:uuid:3b937541-8c58-4732-8f5b-b3d2ee249532"
        }
      }
    },
    {
      "fullUrl": "urn:uuid:22024dd9-6917-44df-bb9b-d4b28adec367",
      "resource": {
        "resourceType": "Observation",
        "id": "22024dd9-6917-44df-bb9b-d4b28adec367",
        "meta": {
          "profile": [
            "http://hl7.eu/fhir/laboratory/StructureDefinition/Observation-resultslab-eu-lab"
          ]
        },
        "performer": [
          {
            "display": "The Central European Lab"
          }
        ],
        "category": [
          {
            "coding": [
              {
                "system": "http://terminology.hl7.org/CodeSystem/observation-category",
                "code": "laboratory"
              }
            ]
          }
        ],
        "code": {
          "coding": [
            {
              "code": "6298-4",
              "system": "http://loinc.org",
              "display": "Potassium [Moles/volume] in Blood"
            }
          ],
          "text": "Potassium [Moles/volume] in Blood"
        },
        "valueQuantity": {
          "system": "http://unitsofmeasure.org",
          "value": 3.9,
          "unit": "mmol/L",
          "code": "mmol/L"
        },
        "referenceRange": [
          {
            "low": {
              "value": 3.5,
              "code": "mmol/L",
              "system": "http://unitsofmeasure.org"
            }
          },
          {
            "high": {
              "value": 5.1,
              "code": "mmol/L",
              "system": "http://unitsofmeasure.org"
            }
          }
        ],
        "text": {
          "status": "generated",
          "div": "<div xmlns=\"http://www.w3.org/1999/xhtml\"><table class=\"hl7__eu__lab__report\"><tr><th>Test</th><th>13-Mar-2025</th><th>Reference&#xA0;Range</th><th>Unit</th></tr><tr><td>Potassium [Moles/volume] in Blood</td><td>3.9</td><td>3.5 - 5.1</td><td></td><td>mmol/L</td></tr></table></div>"
        },
        "status": "final",
        "subject": {
          "reference": "urn:uuid:df487726-4b41-4c4d-88f7-74227dae44b1",
          "display": "Vincenza Porzio"
        },
        "effectiveDateTime": "2025-03-13T18:51:27Z",
        "specimen": {
          "reference": "urn:uuid:3b937541-8c58-4732-8f5b-b3d2ee249532"
        }
      }
    },
    {
      "fullUrl": "urn:uuid:e971c308-eca0-4a81-9b70-1e9e2e796f48",
      "resource": {
        "resourceType": "Observation",
        "id": "e971c308-eca0-4a81-9b70-1e9e2e796f48",
        "meta": {
          "profile": [
            "http://hl7.eu/fhir/laboratory/StructureDefinition/Observation-resultslab-eu-lab"
          ]
        },
        "performer": [
          {
            "display": "The Central European Lab"
          }
        ],
        "category": [
          {
            "coding": [
              {
                "system": "http://terminology.hl7.org/CodeSystem/observation-category",
                "code": "laboratory"
              }
            ]
          }
        ],
        "code": {
          "coding": [
            {
              "code": "2069-3",
              "system": "http://loinc.org",
              "display": "Chloride [Moles/volume] in Blood"
            }
          ],
          "text": "Chloride [Moles/volume] in Blood"
        },
        "valueQuantity": {
          "system": "http://unitsofmeasure.org",
          "value": 103.1,
          "unit": "mmol/L",
          "code": "mmol/L"
        },
        "referenceRange": [
          {
            "low": {
              "value": 98,
              "code": "mmol/L",
              "system": "http://unitsofmeasure.org"
            }
          },
          {
            "high": {
              "value": 108,
              "code": "mmol/L",
              "system": "http://unitsofmeasure.org"
            }
          }
        ],
        "text": {
          "status": "generated",
          "div": "<div xmlns=\"http://www.w3.org/1999/xhtml\"><table class=\"hl7__eu__lab__report\"><tr><th>Test</th><th>13-Mar-2025</th><th>Reference&#xA0;Range</th><th>Unit</th></tr><tr><td>Chloride [Moles/volume] in Blood</td><td>103.1</td><td>98 - 108</td><td></td><td>mmol/L</td></tr></table></div>"
        },
        "status": "final",
        "subject": {
          "reference": "urn:uuid:df487726-4b41-4c4d-88f7-74227dae44b1",
          "display": "Vincenza Porzio"
        },
        "effectiveDateTime": "2025-03-13T18:51:27Z",
        "specimen": {
          "reference": "urn:uuid:3b937541-8c58-4732-8f5b-b3d2ee249532"
        }
      }
    },
    {
      "fullUrl": "urn:uuid:e20b6a83-e543-4ea7-88b7-cbf5e4a2e96c",
      "resource": {
        "resourceType": "Observation",
        "id": "e20b6a83-e543-4ea7-88b7-cbf5e4a2e96c",
        "meta": {
          "profile": [
            "http://hl7.eu/fhir/laboratory/StructureDefinition/Observation-resultslab-eu-lab"
          ]
        },
        "performer": [
          {
            "display": "The Central European Lab"
          }
        ],
        "category": [
          {
            "coding": [
              {
                "system": "http://terminology.hl7.org/CodeSystem/observation-category",
                "code": "laboratory"
              }
            ]
          }
        ],
        "code": {
          "coding": [
            {
              "code": "20565-8",
              "system": "http://loinc.org",
              "display": "Carbon dioxide, total [Moles/volume] in Blood"
            }
          ],
          "text": "Carbon dioxide, total [Moles/volume] in Blood"
        },
        "valueQuantity": {
          "system": "http://unitsofmeasure.org",
          "value": 28.9,
          "unit": "mmol/L",
          "code": "mmol/L"
        },
        "referenceRange": [
          {
            "low": {
              "value": 22,
              "code": "mmol/L",
              "system": "http://unitsofmeasure.org"
            }
          },
          {
            "high": {
              "value": 29,
              "code": "mmol/L",
              "system": "http://unitsofmeasure.org"
            }
          }
        ],
        "text": {
          "status": "generated",
          "div": "<div xmlns=\"http://www.w3.org/1999/xhtml\"><table class=\"hl7__eu__lab__report\"><tr><th>Test</th><th>13-Mar-2025</th><th>Reference&#xA0;Range</th><th>Unit</th></tr><tr><td>Carbon dioxide, total [Moles/volume] in Blood</td><td>28.9</td><td>22 - 29</td><td></td><td>mmol/L</td></tr></table></div>"
        },
        "status": "final",
        "subject": {
          "reference": "urn:uuid:df487726-4b41-4c4d-88f7-74227dae44b1",
          "display": "Vincenza Porzio"
        },
        "effectiveDateTime": "2025-03-13T18:51:27Z",
        "specimen": {
          "reference": "urn:uuid:3b937541-8c58-4732-8f5b-b3d2ee249532"
        }
      }
    },
    {
      "fullUrl": "urn:uuid:9bd339ac-9a49-4d02-ab8c-582ad9382b5e",
      "resource": {
        "resourceType": "Device",
        "id": "9bd339ac-9a49-4d02-ab8c-582ad9382b5e",
        "deviceName": [
          {
            "name": "SYNDERAI Synthetic Generator",
            "type": "manufacturer-name"
          }
        ],
        "version": [
          {
            "value": "5.0"
          }
        ],
        "text": {
          "status": "generated",
          "div": "<div xmlns=\"http://www.w3.org/1999/xhtml\">SYNDERAI Synthetic Generator v5.0</div>"
        },
        "status": "active\"",
        "distinctIdentifier": "synderai-generator-50",
        "manufacturer": "SYNDERAI Project"
      }
    },
    {
      "fullUrl": "urn:uuid:ddbe2ab9-628e-4b21-b6b9-bb75468135d7",
      "resource": {
        "resourceType": "Provenance",
        "id": "ddbe2ab9-628e-4b21-b6b9-bb75468135d7",
        "target": [
          {
            "reference": "Patient/df487726-4b41-4c4d-88f7-74227dae44b1"
          },
          {
            "reference": "Bundle/96596257-4795-48cc-866d-e785b359d74b"
          },
          {
            "reference": "Composition/5407e2cc-6751-413a-ad61-e1efb71b24d5"
          },
          {
            "reference": "PractitionerRole/defbe3c7-dde2-4885-88e4-df46e3140239"
          },
          {
            "reference": "Practitioner/a8ab9f34-6df6-4d1a-b8c2-fd0de37f0a1e"
          },
          {
            "reference": "PractitionerRole/64f55fb4-1114-45a8-abae-5fa81b45f1ff"
          },
          {
            "reference": "Organization/b07a0c8a-caa5-4af9-98df-cb3c7c8d6230"
          }
        ],
        "activity": {
          "text": "Synthetic Example Data Generation"
        },
        "policy": [
          "https://synderai.net/synderai-synthetic-data-policy"
        ],
        "agent": [
          {
            "type": {
              "text": "author"
            },
            "who": {
              "reference": "Device/9bd339ac-9a49-4d02-ab8c-582ad9382b5e"
            }
          }
        ],
        "reason": [
          {
            "text": "Interoperability Testing and Training (non-clinical use)"
          }
        ],
        "text": {
          "status": "generated",
          "div": "<div xmlns=\"http://www.w3.org/1999/xhtml\">Provenance for SYNDERAI Synthetic Example Data Resource</div>"
        },
        "recorded": "2025-03-13T19:51:27Z"
      }
    },
    {
      "fullUrl": "urn:uuid:defbe3c7-dde2-4885-88e4-df46e3140239",
      "resource": {
        "resourceType": "PractitionerRole",
        "id": "defbe3c7-dde2-4885-88e4-df46e3140239",
        "meta": {
          "profile": [
            "http://hl7.eu/fhir/base/StructureDefinition/practitionerRole-eu"
          ]
        },
        "text": {
          "status": "generated",
          "div": "<div xmlns=\"http://www.w3.org/1999/xhtml\">Laboratory Role Id: defbe3c7-dde2-4885-88e4-df46e3140239</div>"
        },
        "practitioner": {
          "reference": "urn:uuid:a8ab9f34-6df6-4d1a-b8c2-fd0de37f0a1e"
        }
      }
    },
    {
      "fullUrl": "urn:uuid:a8ab9f34-6df6-4d1a-b8c2-fd0de37f0a1e",
      "resource": {
        "resourceType": "Practitioner",
        "id": "a8ab9f34-6df6-4d1a-b8c2-fd0de37f0a1e",
        "meta": {
          "profile": [
            "http://hl7.eu/fhir/base/StructureDefinition/practitioner-eu"
          ]
        },
        "identifier": [
          {
            "assigner": {
              "display": "HL7 Europe"
            },
            "system": "urn:oid:2.16.840.1.113883.2.51.999",
            "value": "bbaf0548-045d-464e-98f4-4a2128b43f75"
          }
        ],
        "name": [
          {
            "prefix": [
              "dr"
            ],
            "given": [
              "Ex"
            ],
            "family": "Ample"
          }
        ],
        "address": [
          {
            "line": [
              "Laboratoire Central Européenne",
              "Boulevard du Jardin Botanique 32"
            ],
            "postalCode": "1000",
            "city": "Brussels",
            "country": "Belgium"
          }
        ],
        "text": {
          "status": "generated",
          "div": "<div xmlns=\"http://www.w3.org/1999/xhtml\">Laboratory: Laboratoire Central Européenne, 1000 Brussels, Belgium</div>"
        }
      }
    }
  ],
  "type": "document",
  "timestamp": "2025-03-13T19:51:27Z"
}
