{
  "resourceType": "Bundle",
  "id": "15dd6752-962e-414c-a060-583d65a06faf",
  "meta": {
    "profile": [
      "http://hl7.eu/fhir/laboratory/StructureDefinition/Bundle-eu-lab"
    ]
  },
  "identifier": {
    "assigner": {
      "display": "HL7 Europe"
    },
    "system": "urn:oid:2.16.840.1.113883.2.51.999",
    "value": "7e446420-9087-4bd4-a614-aba08b253023"
  },
  "entry": [
    {
      "fullUrl": "urn:uuid:8c41a886-55b4-456d-8cc0-66e2f0b826f4",
      "resource": {
        "resourceType": "Composition",
        "id": "8c41a886-55b4-456d-8cc0-66e2f0b826f4",
        "meta": {
          "profile": [
            "http://hl7.eu/fhir/laboratory/StructureDefinition/Composition-eu-lab"
          ]
        },
        "identifier": {
          "assigner": {
            "display": "HL7 Europe"
          },
          "system": "urn:oid:2.16.840.1.113883.2.51.999",
          "value": "453c56cd-4767-4f03-a1e4-b9d62db0b410"
        },
        "author": [
          {
            "reference": "urn:uuid:553b6eac-65cf-4791-91b6-d4725a10d827"
          }
        ],
        "category": [
          {
            "coding": [
              {
                "code": "26436-6",
                "system": "http://loinc.org",
                "display": "Laboratory studies (set)"
              }
            ]
          }
        ],
        "type": {
          "coding": [
            {
              "code": "11502-2",
              "system": "http://loinc.org",
              "display": "Laboratory report"
            }
          ],
          "text": "Laboratory Report"
        },
        "section": [
          {
            "code": {
              "coding": [
                {
                  "code": "26436-6",
                  "system": "http://loinc.org",
                  "display": "Laboratory studies (set)"
                }
              ],
              "text": "Laboratory studies"
            },
            "section": [
              {
                "code": {
                  "coding": [
                    {
                      "code": "$18719-5",
                      "system": "http://loinc.org",
                      "display": "Chemistry studies (set)"
                    }
                  ],
                  "text": "Chemistry"
                },
                "entry": [
                  {
                    "reference": "urn:uuid:ca8316ef-2e96-4ec7-a3d0-842dcd9c8f71"
                  },
                  {
                    "reference": "urn:uuid:7de0c453-6169-4a90-b3ee-39cd58ba72ed"
                  },
                  {
                    "reference": "urn:uuid:c5ac8c3c-e66f-4cff-8ed7-754125e575ef"
                  },
                  {
                    "reference": "urn:uuid:6b9f4105-3f60-4fc1-aa04-d51b230a4812"
                  },
                  {
                    "reference": "urn:uuid:c33d2e2e-344d-4f51-8391-5c452be153e4"
                  },
                  {
                    "reference": "urn:uuid:4914e668-5c82-4dbe-88ee-dcfb1e45f992"
                  },
                  {
                    "reference": "urn:uuid:80b75246-4410-4650-8b0c-be31059fcebf"
                  },
                  {
                    "reference": "urn:uuid:b0865b1a-415c-498b-a2aa-cae31b77238d"
                  },
                  {
                    "reference": "urn:uuid:418cdbde-07b4-45e3-b61a-bfe699a5e35e"
                  },
                  {
                    "reference": "urn:uuid:3adc5b02-1e3e-4289-ad60-7720ff22254d"
                  },
                  {
                    "reference": "urn:uuid:357e8359-f0d6-4646-b09d-de9ebc5f6545"
                  },
                  {
                    "reference": "urn:uuid:d201424c-3a88-45bb-a12c-2f5dcdef1499"
                  },
                  {
                    "reference": "urn:uuid:76b9bd82-ae34-4524-b7b7-7ec4491fe9a0"
                  },
                  {
                    "reference": "urn:uuid:10df53c9-6ea0-4a40-ad2b-ee1aedfe0922"
                  },
                  {
                    "reference": "urn:uuid:cf3ac9bb-e2b0-4a76-9e20-ec42a7820638"
                  },
                  {
                    "reference": "urn:uuid:95c4f464-b582-4628-be32-e98bba03af0f"
                  },
                  {
                    "reference": "urn:uuid:b623089f-622e-4684-8ada-7f73cb64165e"
                  },
                  {
                    "reference": "urn:uuid:db5a5b90-4d51-4d79-88f1-9e7386fda0d7"
                  }
                ],
                "text": {
                  "status": "generated",
                  "div": "<div xmlns=\"http://www.w3.org/1999/xhtml\"><h3>Chemistry</h3><table class=\"hl7__eu__lab__report\"><thead><tr><th>Test</th><th>20-MAY-2025</th><th>Reference&#xA0;Range</th><th>Unit</th></tr></thead><tbody><tr><td>Glucose [Mass/volume] in Serum or Plasma</td><td>97.2</td><td>70 - 99</td><td>mg/dL</td></tr><tr><td>Urea nitrogen [Mass/volume] in Serum or Plasma</td><td>7.7</td><td>7 - 50</td><td>mg/dL</td></tr><tr><td>Creatinine [Mass/volume] in Serum or Plasma</td><td><strong>2.1 H</strong></td><td>0.6 - 1.1</td><td>mg/dL</td></tr><tr><td>Calcium [Mass/volume] in Serum or Plasma</td><td>8.6</td><td>8.6 - 10.4</td><td>mg/dL</td></tr><tr><td>Sodium [Moles/volume] in Serum or Plasma</td><td>143.5</td><td>135 - 145</td><td>mmol/L</td></tr><tr><td>Potassium [Moles/volume] in Serum or Plasma</td><td>4.9</td><td>3.5 - 5.1</td><td>mmol/L</td></tr><tr><td>Chloride [Moles/volume] in Serum or Plasma</td><td>103.5</td><td>98 - 108</td><td>mmol/L</td></tr><tr><td>Carbon dioxide, total [Moles/volume] in Serum or Plasma</td><td><strong>21.4 L</strong></td><td>22 - 32</td><td>mmol/L</td></tr><tr><td>Ketones [Presence] in Urine by Test strip</td><td>Urine ketone test = ++</td><td></td><td></td></tr><tr><td>Hemoglobin A1c/Hemoglobin.total in Blood</td><td>4.0</td><td>4 - 6.4</td><td>%</td></tr><tr><td>Glucose [Mass/volume] in Blood</td><td>97.2</td><td>70 - 100</td><td>mg/dL</td></tr><tr><td>Urea nitrogen [Mass/volume] in Blood</td><td>7.7</td><td>7 - 43</td><td>mg/dL</td></tr><tr><td>Creatinine [Mass/volume] in Blood</td><td><strong>2.5 H</strong></td><td>0.6 - 1.1</td><td>mg/dL</td></tr><tr><td>Calcium [Mass/volume] in Blood</td><td>8.6</td><td>8.5 - 10.5</td><td>mg/dL</td></tr><tr><td>Sodium [Moles/volume] in Blood</td><td>143.5</td><td>135 - 145</td><td>mmol/L</td></tr><tr><td>Potassium [Moles/volume] in Blood</td><td>4.9</td><td>3.5 - 5.1</td><td>mmol/L</td></tr><tr><td>Chloride [Moles/volume] in Blood</td><td>103.5</td><td>98 - 108</td><td>mmol/L</td></tr><tr><td>Carbon dioxide, total [Moles/volume] in Blood</td><td><strong>21.4 L</strong></td><td>22 - 29</td><td>mmol/L</td></tr></tbody></table></div>"
                },
                "title": "Chemistry"
              },
              {
                "code": {
                  "coding": [
                    {
                      "code": "$18729-4",
                      "system": "http://loinc.org",
                      "display": "Urinalysis studies (set)"
                    }
                  ],
                  "text": "Urinalysis"
                },
                "entry": [
                  {
                    "reference": "urn:uuid:2d2d3b4a-c488-4f19-b0b4-ad4b4f64a17f"
                  },
                  {
                    "reference": "urn:uuid:42159df7-75a6-45ad-b89a-eb64768ece30"
                  },
                  {
                    "reference": "urn:uuid:f2c59535-98e7-4a94-b868-85d379922082"
                  },
                  {
                    "reference": "urn:uuid:a89a9af5-11c6-4b78-b885-08a744375554"
                  },
                  {
                    "reference": "urn:uuid:b9a01378-0900-4b0f-82ac-31a89a5c3ab5"
                  },
                  {
                    "reference": "urn:uuid:13759890-1b8d-4ee8-8ee8-3a6f47b3c141"
                  },
                  {
                    "reference": "urn:uuid:230d1b80-11cb-4444-befc-f42ac31c703c"
                  },
                  {
                    "reference": "urn:uuid:ca3d968c-09ef-45f4-bbb5-a978c4a33e2b"
                  },
                  {
                    "reference": "urn:uuid:c33014d5-512d-4655-9606-dad78fac7ea3"
                  },
                  {
                    "reference": "urn:uuid:02e9442c-7a52-4920-9e39-b0cac4a92129"
                  },
                  {
                    "reference": "urn:uuid:bfb8241a-61eb-4c3a-9233-1c296c276712"
                  },
                  {
                    "reference": "urn:uuid:6f242eb3-648c-4beb-b2e8-cb0e51c691e9"
                  }
                ],
                "text": {
                  "status": "generated",
                  "div": "<div xmlns=\"http://www.w3.org/1999/xhtml\"><h3>Urinalysis</h3><table class=\"hl7__eu__lab__report\"><thead><tr><th>Test</th><th>20-MAY-2025</th><th>Reference&#xA0;Range</th><th>Unit</th></tr></thead><tbody><tr><td>Glucose [Mass/volume] in Urine by Test strip</td><td><strong>1.0 H</strong></td><td>0.8 - 0</td><td>mg/dL</td></tr><tr><td>Glucose [Presence] in Urine by Test strip</td><td>++</td><td></td><td></td></tr><tr><td>Bilirubin.total [Mass/volume] in Urine by Test strip</td><td>0.6</td><td>0 - 1</td><td>mg/dL</td></tr><tr><td>Bilirubin.total [Presence] in Urine by Test strip</td><td>Finding of bilirubin in urine</td><td></td><td></td></tr><tr><td>Ketones [Mass/volume] in Urine by Test strip</td><td><strong>12.1 H</strong></td><td>0 - 4</td><td>mg/dL</td></tr><tr><td>Specific gravity of Urine by Test strip</td><td><strong>1.0 L</strong></td><td>1.005 - 1.03</td><td>{nominal}</td></tr><tr><td>pH of Urine by Test strip</td><td>6.9</td><td>4.6 - 7</td><td>pH</td></tr><tr><td>Protein [Mass/volume] in Urine by Test strip</td><td><strong>393.3 H</strong></td><td>0 - 14</td><td>mg/dL</td></tr><tr><td>Protein [Presence] in Urine by Test strip</td><td>Urine protein test = ++</td><td></td><td></td></tr><tr><td>Nitrite [Presence] in Urine by Test strip</td><td>Urine nitrite negative</td><td></td><td></td></tr><tr><td>Hemoglobin [Presence] in Urine by Test strip</td><td>Urine blood test = negative</td><td></td><td></td></tr><tr><td>Leukocyte esterase [Presence] in Urine by Test strip</td><td>Urine leukocyte test negative</td><td></td><td></td></tr></tbody></table></div>"
                },
                "title": "Urinalysis"
              },
              {
                "code": {
                  "coding": [
                    {
                      "code": "$LP7846-1",
                      "system": "http://loinc.org",
                      "display": "Specimen information"
                    }
                  ],
                  "text": "Specimen information"
                },
                "entry": [
                  {
                    "reference": "urn:uuid:ff264927-e59f-4f4a-8d6d-42ad2603cc89"
                  },
                  {
                    "reference": "urn:uuid:40966160-df8b-4cfc-8f68-018578c2f09b"
                  },
                  {
                    "reference": "urn:uuid:9ac4eb1b-62e2-4f1b-975b-8196083f4719"
                  },
                  {
                    "reference": "urn:uuid:90d466f3-9529-487c-ad62-ea7f89ccdb8d"
                  }
                ],
                "text": {
                  "status": "generated",
                  "div": "<div xmlns=\"http://www.w3.org/1999/xhtml\"><h3>Specimen information</h3><table class=\"hl7__eu__lab__report\"><thead><tr><th>Test</th><th>20-MAY-2025</th><th>Specimen</th><th></th></tr></thead><tbody><tr><td>Appearance of Urine</td><td>Cloudy urine</td><td>Urine</td><td></td></tr><tr><td>Odor of Urine</td><td>Urine smell ammoniacal</td><td>Urine</td><td></td></tr><tr><td>Clarity of Urine</td><td>Translucent</td><td>Urine</td><td></td></tr><tr><td>Color of Urine</td><td>Brown color</td><td>Urine</td><td></td></tr></tbody></table></div>"
                },
                "title": "Specimen information"
              }
            ],
            "title": "Laboratory Report"
          },
          {
            "text": {
              "status": "generated",
              "div": "<div xmlns=\"http://www.w3.org/1999/xhtml\"><h3>Annotation</h3><table class=\"hl7__eu__lab__report\"><tr><th>Conclusion and Recommendations based on this report and previous findings known to us</th></tr><tr><td>The patient shows significantly elevated creatinine, marked proteinuria, glucosuria, and ketonuria, with low urine specific gravity and low serum CO₂, suggesting impaired renal function with possible acute or chronic kidney disease and metabolic acidosis. Urine findings (cloudy, brown, ammoniacal) may indicate underlying urinary tract pathology. Blood glucose and HbA1c are normal, making diabetes less likely. Recommend urgent nephrology evaluation and further workup for renal and urinary tract disorders.</td></tr></table></div>"
            },
            "code": {
              "coding": [
                {
                  "system": "http://loinc.org",
                  "code": "48767-8",
                  "display": "Annotation comment"
                }
              ]
            },
            "title": "Annotation comment"
          }
        ],
        "status": "final",
        "subject": {
          "reference": "urn:uuid:5091da10-9a9f-4cb1-b8be-5a6eaaa93e1f",
          "display": "Meaghan Neary"
        },
        "date": "2025-05-20T00:11:04Z",
        "title": "Laboratory Report",
        "confidentiality": "N"
      }
    },
    {
      "fullUrl": "urn:uuid:7f9bf532-2898-4ed5-854b-eb5592a367a9",
      "resource": {
        "resourceType": "DiagnosticReport",
        "id": "7f9bf532-2898-4ed5-854b-eb5592a367a9",
        "meta": {
          "profile": [
            "http://hl7.eu/fhir/laboratory/StructureDefinition/DiagnosticReport-eu-lab"
          ]
        },
        "identifier": [
          {
            "assigner": {
              "display": "HL7 Europe"
            },
            "system": "urn:oid:2.16.840.1.113883.2.51.999",
            "value": "8bf1ac67-2908-404a-b969-8065ac671862"
          }
        ],
        "extension": [
          {
            "url": "http://hl7.org/fhir/5.0/StructureDefinition/extension-DiagnosticReport.composition",
            "valueReference": {
              "reference": "urn:uuid:453c56cd-4767-4f03-a1e4-b9d62db0b410"
            }
          }
        ],
        "category": [
          {
            "coding": [
              {
                "code": "26436-6",
                "system": "http://loinc.org",
                "display": "Laboratory studies (set)"
              }
            ]
          }
        ],
        "specimen": [
          {
            "reference": "urn:uuid:1a927534-0669-4f68-912e-5f6952d34ff3"
          },
          {
            "reference": "urn:uuid:f1e7aebe-1e75-4175-96cc-217e5c76eec0"
          },
          {
            "reference": "urn:uuid:6048c6c9-f2fa-4d39-8697-66d7da47f280"
          }
        ],
        "result": [
          {
            "reference": "urn:uuid:ca8316ef-2e96-4ec7-a3d0-842dcd9c8f71"
          },
          {
            "reference": "urn:uuid:7de0c453-6169-4a90-b3ee-39cd58ba72ed"
          },
          {
            "reference": "urn:uuid:c5ac8c3c-e66f-4cff-8ed7-754125e575ef"
          },
          {
            "reference": "urn:uuid:6b9f4105-3f60-4fc1-aa04-d51b230a4812"
          },
          {
            "reference": "urn:uuid:c33d2e2e-344d-4f51-8391-5c452be153e4"
          },
          {
            "reference": "urn:uuid:4914e668-5c82-4dbe-88ee-dcfb1e45f992"
          },
          {
            "reference": "urn:uuid:80b75246-4410-4650-8b0c-be31059fcebf"
          },
          {
            "reference": "urn:uuid:b0865b1a-415c-498b-a2aa-cae31b77238d"
          },
          {
            "reference": "urn:uuid:ff264927-e59f-4f4a-8d6d-42ad2603cc89"
          },
          {
            "reference": "urn:uuid:40966160-df8b-4cfc-8f68-018578c2f09b"
          },
          {
            "reference": "urn:uuid:9ac4eb1b-62e2-4f1b-975b-8196083f4719"
          },
          {
            "reference": "urn:uuid:90d466f3-9529-487c-ad62-ea7f89ccdb8d"
          },
          {
            "reference": "urn:uuid:2d2d3b4a-c488-4f19-b0b4-ad4b4f64a17f"
          },
          {
            "reference": "urn:uuid:42159df7-75a6-45ad-b89a-eb64768ece30"
          },
          {
            "reference": "urn:uuid:f2c59535-98e7-4a94-b868-85d379922082"
          },
          {
            "reference": "urn:uuid:a89a9af5-11c6-4b78-b885-08a744375554"
          },
          {
            "reference": "urn:uuid:b9a01378-0900-4b0f-82ac-31a89a5c3ab5"
          },
          {
            "reference": "urn:uuid:418cdbde-07b4-45e3-b61a-bfe699a5e35e"
          },
          {
            "reference": "urn:uuid:13759890-1b8d-4ee8-8ee8-3a6f47b3c141"
          },
          {
            "reference": "urn:uuid:230d1b80-11cb-4444-befc-f42ac31c703c"
          },
          {
            "reference": "urn:uuid:ca3d968c-09ef-45f4-bbb5-a978c4a33e2b"
          },
          {
            "reference": "urn:uuid:c33014d5-512d-4655-9606-dad78fac7ea3"
          },
          {
            "reference": "urn:uuid:02e9442c-7a52-4920-9e39-b0cac4a92129"
          },
          {
            "reference": "urn:uuid:bfb8241a-61eb-4c3a-9233-1c296c276712"
          },
          {
            "reference": "urn:uuid:6f242eb3-648c-4beb-b2e8-cb0e51c691e9"
          },
          {
            "reference": "urn:uuid:3adc5b02-1e3e-4289-ad60-7720ff22254d"
          },
          {
            "reference": "urn:uuid:357e8359-f0d6-4646-b09d-de9ebc5f6545"
          },
          {
            "reference": "urn:uuid:d201424c-3a88-45bb-a12c-2f5dcdef1499"
          },
          {
            "reference": "urn:uuid:76b9bd82-ae34-4524-b7b7-7ec4491fe9a0"
          },
          {
            "reference": "urn:uuid:10df53c9-6ea0-4a40-ad2b-ee1aedfe0922"
          },
          {
            "reference": "urn:uuid:cf3ac9bb-e2b0-4a76-9e20-ec42a7820638"
          },
          {
            "reference": "urn:uuid:95c4f464-b582-4628-be32-e98bba03af0f"
          },
          {
            "reference": "urn:uuid:b623089f-622e-4684-8ada-7f73cb64165e"
          },
          {
            "reference": "urn:uuid:db5a5b90-4d51-4d79-88f1-9e7386fda0d7"
          }
        ],
        "status": "registered",
        "code": {
          "coding": [
            {
              "code": "11502-2",
              "system": "http://loinc.org",
              "display": "Laboratory report"
            }
          ]
        },
        "subject": {
          "reference": "urn:uuid:5091da10-9a9f-4cb1-b8be-5a6eaaa93e1f",
          "display": "Meaghan Neary"
        }
      }
    },
    {
      "fullUrl": "urn:uuid:5091da10-9a9f-4cb1-b8be-5a6eaaa93e1f",
      "resource": {
        "resourceType": "Patient",
        "id": "5091da10-9a9f-4cb1-b8be-5a6eaaa93e1f",
        "meta": {
          "security": [
            {
              "system": "http://terminology.hl7.org/CodeSystem/v3-ActReason",
              "code": "HTEST"
            },
            {
              "system": "http://terminology.hl7.org/CodeSystem/v3-ActReason",
              "code": "TRAIN"
            }
          ],
          "tag": [
            {
              "system": "https://synderai.net/fhir/CodeSystem/tags",
              "code": "synthetic",
              "display": "SYNDERAI Synthetic data"
            }
          ],
          "profile": [
            "http://hl7.eu/fhir/base/StructureDefinition/patient-eu-core"
          ]
        },
        "identifier": [
          {
            "type": {
              "coding": [
                {
                  "code": "PT",
                  "system": "http://terminology.hl7.org/CodeSystem/v2-0203"
                }
              ]
            },
            "system": "http://ec.europa.eu/identifier/eci",
            "value": "1586-567257-8"
          },
          {
            "type": {
              "coding": [
                {
                  "code": "MR",
                  "system": "http://terminology.hl7.org/CodeSystem/v2-0203"
                }
              ]
            },
            "system": "http://local.setting.eu/identifier",
            "value": "443e6379-f231-b364-3ccb-644740a1aa2a"
          }
        ],
        "name": [
          {
            "family": "Neary"
          },
          {
            "given": [
              "Meaghan"
            ]
          },
          {
            "text": "Meaghan Neary"
          }
        ],
        "address": [
          {
            "line": [
              "64 Linskey Street"
            ],
            "use": "home",
            "type": "physical",
            "postalCode": "D02",
            "city": "Dublin",
            "country": "Ireland"
          }
        ],
        "telecom": [
          {
            "system": "phone",
            "value": "001-967-573-0911x465"
          }
        ],
        "extension": [
          {
            "url": "http://hl7.org/fhir/StructureDefinition/patient-nationality",
            "valueCodeableConcept": {
              "coding": [
                {
                  "code": "IE",
                  "system": "http://hl7.org/fhir/ValueSet/country"
                }
              ]
            }
          }
        ],
        "text": {
          "status": "generated",
          "div": "<div xmlns=\"http://www.w3.org/1999/xhtml\"><table class=\"hl7__ips\"><tr><td>Meaghan Neary</td><td>female</td><td>19-Dec-1960</td></tr></table></div>"
        },
        "gender": "female",
        "birthDate": "1960-12-19"
      }
    },
    {
      "fullUrl": "urn:uuid:df8c5ed6-f027-48f7-9fdd-3545135fc028",
      "resource": {
        "resourceType": "ServiceRequest",
        "id": "df8c5ed6-f027-48f7-9fdd-3545135fc028",
        "meta": {
          "profile": [
            "http://hl7.eu/fhir/laboratory/StructureDefinition/ServiceRequest-eu-lab"
          ]
        },
        "identifier": [
          {
            "system": "http://example.org",
            "value": "b0fb581d-d1dd-4a4c-8797-67cae839341f"
          }
        ],
        "specimen": [
          {
            "reference": "urn:uuid:1a927534-0669-4f68-912e-5f6952d34ff3"
          },
          {
            "reference": "urn:uuid:f1e7aebe-1e75-4175-96cc-217e5c76eec0"
          },
          {
            "reference": "urn:uuid:6048c6c9-f2fa-4d39-8697-66d7da47f280"
          }
        ],
        "reasonCode": [
          {
            "coding": [
              {
                "code": "55822004",
                "system": "http://snomed.info/sct",
                "display": "Hyperlipidemia"
              }
            ]
          },
          {
            "coding": [
              {
                "code": "433144002",
                "system": "http://snomed.info/sct",
                "display": "Chronic kidney disease stage 3"
              }
            ]
          },
          {
            "coding": [
              {
                "code": "157141000119108",
                "system": "http://snomed.info/sct",
                "display": "Proteinuria due to type 2 diabetes mellitus"
              }
            ]
          },
          {
            "coding": [
              {
                "code": "431856006",
                "system": "http://snomed.info/sct",
                "display": "Chronic kidney disease stage 2"
              }
            ]
          },
          {
            "coding": [
              {
                "code": "90781000119102",
                "system": "http://snomed.info/sct",
                "display": "Microalbuminuria due to type 2 diabetes mellitus"
              }
            ]
          },
          {
            "coding": [
              {
                "code": "127013003",
                "system": "http://snomed.info/sct",
                "display": "Disorder of kidney due to diabetes mellitus"
              }
            ]
          },
          {
            "coding": [
              {
                "code": "431855005",
                "system": "http://snomed.info/sct",
                "display": "Chronic kidney disease stage 1"
              }
            ]
          },
          {
            "coding": [
              {
                "code": "237602007",
                "system": "http://snomed.info/sct",
                "display": "Metabolic syndrome X"
              }
            ]
          },
          {
            "coding": [
              {
                "code": "271737000",
                "system": "http://snomed.info/sct",
                "display": "Anemia"
              }
            ]
          },
          {
            "coding": [
              {
                "code": "15777000",
                "system": "http://snomed.info/sct",
                "display": "Prediabetes"
              }
            ]
          },
          {
            "coding": [
              {
                "code": "59621000",
                "system": "http://snomed.info/sct",
                "display": "Essential hypertension"
              }
            ]
          }
        ],
        "status": "active",
        "intent": "order",
        "code": {
          "coding": [
            {
              "code": "108252007",
              "system": "http://snomed.info/sct",
              "display": "Laboratory procedure"
            }
          ]
        },
        "subject": {
          "reference": "urn:uuid:5091da10-9a9f-4cb1-b8be-5a6eaaa93e1f",
          "display": "Meaghan Neary"
        },
        "requester": {
          "reference": "urn:uuid:a5153cb6-521c-49cc-a8c1-0b0eaaad82e1"
        }
      }
    },
    {
      "fullUrl": "urn:uuid:a5153cb6-521c-49cc-a8c1-0b0eaaad82e1",
      "resource": {
        "resourceType": "PractitionerRole",
        "id": "a5153cb6-521c-49cc-a8c1-0b0eaaad82e1",
        "meta": {
          "profile": [
            "http://hl7.eu/fhir/base/StructureDefinition/practitionerRole-eu"
          ]
        },
        "text": {
          "status": "generated",
          "div": "<div xmlns=\"http://www.w3.org/1999/xhtml\">Provider Role Id: a5153cb6-521c-49cc-a8c1-0b0eaaad82e1</div>"
        },
        "organization": {
          "reference": "urn:uuid:0d7cb7c4-e5dc-4d60-9212-b3b8e112802e"
        }
      }
    },
    {
      "fullUrl": "urn:uuid:0d7cb7c4-e5dc-4d60-9212-b3b8e112802e",
      "resource": {
        "resourceType": "Organization",
        "id": "0d7cb7c4-e5dc-4d60-9212-b3b8e112802e",
        "meta": {
          "profile": [
            "http://hl7.eu/fhir/base/StructureDefinition/organization-eu"
          ]
        },
        "identifier": [
          {
            "assigner": {
              "display": "HL7 Europe"
            },
            "system": "urn:oid:2.16.840.1.113883.2.51.999",
            "value": "5b9595ca-6235-4195-80b3-a66b56428d4a"
          }
        ],
        "address": [
          {
            "line": [
              "Parnell Square West nan"
            ],
            "city": "Dublin",
            "postalCode": "D01",
            "country": "Ireland"
          }
        ],
        "text": {
          "status": "generated",
          "div": "<div xmlns=\"http://www.w3.org/1999/xhtml\">Provider Organization: Rotunda Hospital</div>"
        },
        "name": "Rotunda Hospital"
      }
    },
    {
      "fullUrl": "urn:uuid:1a927534-0669-4f68-912e-5f6952d34ff3",
      "resource": {
        "resourceType": "Specimen",
        "id": "1a927534-0669-4f68-912e-5f6952d34ff3",
        "meta": {
          "profile": [
            "http://hl7.eu/fhir/laboratory/StructureDefinition/Specimen-eu-lab"
          ]
        },
        "collection": {
          "collectedDateTime": "2025-05-19"
        },
        "text": {
          "status": "generated",
          "div": "<div xmlns=\"http://www.w3.org/1999/xhtml\"><table class=\"hl7__eu__lab__report\"><tr><th>Specimen</th><th>Collection Date</th></tr><tr><td>Acellular blood (serum or plasma) specimen</td><td><span class=\"nb\">19-May-2025</span></td></tr></table></div>"
        },
        "type": {
          "coding": [
            {
              "code": "122592007",
              "system": "http://snomed.info/sct",
              "display": "Acellular blood (serum or plasma) specimen"
            }
          ]
        }
      }
    },
    {
      "fullUrl": "urn:uuid:f1e7aebe-1e75-4175-96cc-217e5c76eec0",
      "resource": {
        "resourceType": "Specimen",
        "id": "f1e7aebe-1e75-4175-96cc-217e5c76eec0",
        "meta": {
          "profile": [
            "http://hl7.eu/fhir/laboratory/StructureDefinition/Specimen-eu-lab"
          ]
        },
        "collection": {
          "collectedDateTime": "2025-05-19"
        },
        "text": {
          "status": "generated",
          "div": "<div xmlns=\"http://www.w3.org/1999/xhtml\"><table class=\"hl7__eu__lab__report\"><tr><th>Specimen</th><th>Collection Date</th></tr><tr><td>Urine specimen</td><td><span class=\"nb\">19-May-2025</span></td></tr></table></div>"
        },
        "type": {
          "coding": [
            {
              "code": "122575003",
              "system": "http://snomed.info/sct",
              "display": "Urine specimen"
            }
          ]
        }
      }
    },
    {
      "fullUrl": "urn:uuid:6048c6c9-f2fa-4d39-8697-66d7da47f280",
      "resource": {
        "resourceType": "Specimen",
        "id": "6048c6c9-f2fa-4d39-8697-66d7da47f280",
        "meta": {
          "profile": [
            "http://hl7.eu/fhir/laboratory/StructureDefinition/Specimen-eu-lab"
          ]
        },
        "collection": {
          "collectedDateTime": "2025-05-19"
        },
        "text": {
          "status": "generated",
          "div": "<div xmlns=\"http://www.w3.org/1999/xhtml\"><table class=\"hl7__eu__lab__report\"><tr><th>Specimen</th><th>Collection Date</th></tr><tr><td>Whole blood specimen (specimen)</td><td><span class=\"nb\">19-May-2025</span></td></tr></table></div>"
        },
        "type": {
          "coding": [
            {
              "code": "258580003",
              "system": "http://snomed.info/sct",
              "display": "Whole blood specimen (specimen)"
            }
          ]
        }
      }
    },
    {
      "fullUrl": "urn:uuid:ca8316ef-2e96-4ec7-a3d0-842dcd9c8f71",
      "resource": {
        "resourceType": "Observation",
        "id": "ca8316ef-2e96-4ec7-a3d0-842dcd9c8f71",
        "meta": {
          "profile": [
            "http://hl7.eu/fhir/laboratory/StructureDefinition/Observation-resultslab-eu-lab"
          ]
        },
        "performer": [
          {
            "display": "The Central European Lab"
          }
        ],
        "category": [
          {
            "coding": [
              {
                "system": "http://terminology.hl7.org/CodeSystem/observation-category",
                "code": "laboratory"
              }
            ]
          }
        ],
        "code": {
          "coding": [
            {
              "code": "2345-7",
              "system": "http://loinc.org",
              "display": "Glucose [Mass/volume] in Serum or Plasma"
            }
          ],
          "text": "Glucose [Mass/volume] in Serum or Plasma"
        },
        "valueQuantity": {
          "system": "http://unitsofmeasure.org",
          "value": 97.2,
          "unit": "mg/dL",
          "code": "mg/dL"
        },
        "referenceRange": [
          {
            "low": {
              "value": 70,
              "code": "mg/dL",
              "system": "http://unitsofmeasure.org"
            }
          },
          {
            "high": {
              "value": 99,
              "code": "mg/dL",
              "system": "http://unitsofmeasure.org"
            }
          }
        ],
        "text": {
          "status": "generated",
          "div": "<div xmlns=\"http://www.w3.org/1999/xhtml\"><table class=\"hl7__eu__lab__report\"><tr><th>Test</th><th>20-May-2025</th><th>Reference&#xA0;Range</th><th>Unit</th></tr><tr><td>Glucose [Mass/volume] in Serum or Plasma</td><td>97.2</td><td>70 - 99</td><td></td><td>mg/dL</td></tr></table></div>"
        },
        "status": "final",
        "subject": {
          "reference": "urn:uuid:5091da10-9a9f-4cb1-b8be-5a6eaaa93e1f",
          "display": "Meaghan Neary"
        },
        "effectiveDateTime": "2025-05-19T22:11:04Z",
        "specimen": {
          "reference": "urn:uuid:1a927534-0669-4f68-912e-5f6952d34ff3"
        }
      }
    },
    {
      "fullUrl": "urn:uuid:7de0c453-6169-4a90-b3ee-39cd58ba72ed",
      "resource": {
        "resourceType": "Observation",
        "id": "7de0c453-6169-4a90-b3ee-39cd58ba72ed",
        "meta": {
          "profile": [
            "http://hl7.eu/fhir/laboratory/StructureDefinition/Observation-resultslab-eu-lab"
          ]
        },
        "performer": [
          {
            "display": "The Central European Lab"
          }
        ],
        "category": [
          {
            "coding": [
              {
                "system": "http://terminology.hl7.org/CodeSystem/observation-category",
                "code": "laboratory"
              }
            ]
          }
        ],
        "code": {
          "coding": [
            {
              "code": "3094-0",
              "system": "http://loinc.org",
              "display": "Urea nitrogen [Mass/volume] in Serum or Plasma"
            }
          ],
          "text": "Urea nitrogen [Mass/volume] in Serum or Plasma"
        },
        "valueQuantity": {
          "system": "http://unitsofmeasure.org",
          "value": 7.7,
          "unit": "mg/dL",
          "code": "mg/dL"
        },
        "referenceRange": [
          {
            "low": {
              "value": 7,
              "code": "mg/dL",
              "system": "http://unitsofmeasure.org"
            }
          },
          {
            "high": {
              "value": 50,
              "code": "mg/dL",
              "system": "http://unitsofmeasure.org"
            }
          }
        ],
        "text": {
          "status": "generated",
          "div": "<div xmlns=\"http://www.w3.org/1999/xhtml\"><table class=\"hl7__eu__lab__report\"><tr><th>Test</th><th>20-May-2025</th><th>Reference&#xA0;Range</th><th>Unit</th></tr><tr><td>Urea nitrogen [Mass/volume] in Serum or Plasma</td><td>7.7</td><td>7 - 50</td><td></td><td>mg/dL</td></tr></table></div>"
        },
        "status": "final",
        "subject": {
          "reference": "urn:uuid:5091da10-9a9f-4cb1-b8be-5a6eaaa93e1f",
          "display": "Meaghan Neary"
        },
        "effectiveDateTime": "2025-05-19T22:11:04Z",
        "specimen": {
          "reference": "urn:uuid:1a927534-0669-4f68-912e-5f6952d34ff3"
        }
      }
    },
    {
      "fullUrl": "urn:uuid:c5ac8c3c-e66f-4cff-8ed7-754125e575ef",
      "resource": {
        "resourceType": "Observation",
        "id": "c5ac8c3c-e66f-4cff-8ed7-754125e575ef",
        "meta": {
          "profile": [
            "http://hl7.eu/fhir/laboratory/StructureDefinition/Observation-resultslab-eu-lab"
          ]
        },
        "performer": [
          {
            "display": "The Central European Lab"
          }
        ],
        "category": [
          {
            "coding": [
              {
                "system": "http://terminology.hl7.org/CodeSystem/observation-category",
                "code": "laboratory"
              }
            ]
          }
        ],
        "code": {
          "coding": [
            {
              "code": "2160-0",
              "system": "http://loinc.org",
              "display": "Creatinine [Mass/volume] in Serum or Plasma"
            }
          ],
          "text": "Creatinine [Mass/volume] in Serum or Plasma"
        },
        "valueQuantity": {
          "system": "http://unitsofmeasure.org",
          "value": 2.1,
          "unit": "mg/dL",
          "code": "mg/dL"
        },
        "referenceRange": [
          {
            "low": {
              "value": 0.6,
              "code": "mg/dL",
              "system": "http://unitsofmeasure.org"
            }
          },
          {
            "high": {
              "value": 1.1,
              "code": "mg/dL",
              "system": "http://unitsofmeasure.org"
            }
          }
        ],
        "interpretation": [
          {
            "coding": [
              {
                "code": "H",
                "system": "http://terminology.hl7.org/CodeSystem/v3-ObservationInterpretation",
                "display": "High"
              }
            ]
          }
        ],
        "text": {
          "status": "generated",
          "div": "<div xmlns=\"http://www.w3.org/1999/xhtml\"><table class=\"hl7__eu__lab__report\"><tr><th>Test</th><th>20-May-2025</th><th>Reference&#xA0;Range</th><th>Unit</th></tr><tr><td>Creatinine [Mass/volume] in Serum or Plasma</td><td>2.1</td><td>0.6 - 1.1</td><td>H</td><td>mg/dL</td></tr></table></div>"
        },
        "status": "final",
        "subject": {
          "reference": "urn:uuid:5091da10-9a9f-4cb1-b8be-5a6eaaa93e1f",
          "display": "Meaghan Neary"
        },
        "effectiveDateTime": "2025-05-19T22:11:04Z",
        "specimen": {
          "reference": "urn:uuid:1a927534-0669-4f68-912e-5f6952d34ff3"
        }
      }
    },
    {
      "fullUrl": "urn:uuid:6b9f4105-3f60-4fc1-aa04-d51b230a4812",
      "resource": {
        "resourceType": "Observation",
        "id": "6b9f4105-3f60-4fc1-aa04-d51b230a4812",
        "meta": {
          "profile": [
            "http://hl7.eu/fhir/laboratory/StructureDefinition/Observation-resultslab-eu-lab"
          ]
        },
        "performer": [
          {
            "display": "The Central European Lab"
          }
        ],
        "category": [
          {
            "coding": [
              {
                "system": "http://terminology.hl7.org/CodeSystem/observation-category",
                "code": "laboratory"
              }
            ]
          }
        ],
        "code": {
          "coding": [
            {
              "code": "17861-6",
              "system": "http://loinc.org",
              "display": "Calcium [Mass/volume] in Serum or Plasma"
            }
          ],
          "text": "Calcium [Mass/volume] in Serum or Plasma"
        },
        "valueQuantity": {
          "system": "http://unitsofmeasure.org",
          "value": 8.6,
          "unit": "mg/dL",
          "code": "mg/dL"
        },
        "referenceRange": [
          {
            "low": {
              "value": 8.6,
              "code": "mg/dL",
              "system": "http://unitsofmeasure.org"
            }
          },
          {
            "high": {
              "value": 10.4,
              "code": "mg/dL",
              "system": "http://unitsofmeasure.org"
            }
          }
        ],
        "text": {
          "status": "generated",
          "div": "<div xmlns=\"http://www.w3.org/1999/xhtml\"><table class=\"hl7__eu__lab__report\"><tr><th>Test</th><th>20-May-2025</th><th>Reference&#xA0;Range</th><th>Unit</th></tr><tr><td>Calcium [Mass/volume] in Serum or Plasma</td><td>8.6</td><td>8.6 - 10.4</td><td></td><td>mg/dL</td></tr></table></div>"
        },
        "status": "final",
        "subject": {
          "reference": "urn:uuid:5091da10-9a9f-4cb1-b8be-5a6eaaa93e1f",
          "display": "Meaghan Neary"
        },
        "effectiveDateTime": "2025-05-19T22:11:04Z",
        "specimen": {
          "reference": "urn:uuid:1a927534-0669-4f68-912e-5f6952d34ff3"
        }
      }
    },
    {
      "fullUrl": "urn:uuid:c33d2e2e-344d-4f51-8391-5c452be153e4",
      "resource": {
        "resourceType": "Observation",
        "id": "c33d2e2e-344d-4f51-8391-5c452be153e4",
        "meta": {
          "profile": [
            "http://hl7.eu/fhir/laboratory/StructureDefinition/Observation-resultslab-eu-lab"
          ]
        },
        "performer": [
          {
            "display": "The Central European Lab"
          }
        ],
        "category": [
          {
            "coding": [
              {
                "system": "http://terminology.hl7.org/CodeSystem/observation-category",
                "code": "laboratory"
              }
            ]
          }
        ],
        "code": {
          "coding": [
            {
              "code": "2951-2",
              "system": "http://loinc.org",
              "display": "Sodium [Moles/volume] in Serum or Plasma"
            }
          ],
          "text": "Sodium [Moles/volume] in Serum or Plasma"
        },
        "valueQuantity": {
          "system": "http://unitsofmeasure.org",
          "value": 143.5,
          "unit": "mmol/L",
          "code": "mmol/L"
        },
        "referenceRange": [
          {
            "low": {
              "value": 135,
              "code": "mmol/L",
              "system": "http://unitsofmeasure.org"
            }
          },
          {
            "high": {
              "value": 145,
              "code": "mmol/L",
              "system": "http://unitsofmeasure.org"
            }
          }
        ],
        "text": {
          "status": "generated",
          "div": "<div xmlns=\"http://www.w3.org/1999/xhtml\"><table class=\"hl7__eu__lab__report\"><tr><th>Test</th><th>20-May-2025</th><th>Reference&#xA0;Range</th><th>Unit</th></tr><tr><td>Sodium [Moles/volume] in Serum or Plasma</td><td>143.5</td><td>135 - 145</td><td></td><td>mmol/L</td></tr></table></div>"
        },
        "status": "final",
        "subject": {
          "reference": "urn:uuid:5091da10-9a9f-4cb1-b8be-5a6eaaa93e1f",
          "display": "Meaghan Neary"
        },
        "effectiveDateTime": "2025-05-19T22:11:04Z",
        "specimen": {
          "reference": "urn:uuid:1a927534-0669-4f68-912e-5f6952d34ff3"
        }
      }
    },
    {
      "fullUrl": "urn:uuid:4914e668-5c82-4dbe-88ee-dcfb1e45f992",
      "resource": {
        "resourceType": "Observation",
        "id": "4914e668-5c82-4dbe-88ee-dcfb1e45f992",
        "meta": {
          "profile": [
            "http://hl7.eu/fhir/laboratory/StructureDefinition/Observation-resultslab-eu-lab"
          ]
        },
        "performer": [
          {
            "display": "The Central European Lab"
          }
        ],
        "category": [
          {
            "coding": [
              {
                "system": "http://terminology.hl7.org/CodeSystem/observation-category",
                "code": "laboratory"
              }
            ]
          }
        ],
        "code": {
          "coding": [
            {
              "code": "2823-3",
              "system": "http://loinc.org",
              "display": "Potassium [Moles/volume] in Serum or Plasma"
            }
          ],
          "text": "Potassium [Moles/volume] in Serum or Plasma"
        },
        "valueQuantity": {
          "system": "http://unitsofmeasure.org",
          "value": 4.9,
          "unit": "mmol/L",
          "code": "mmol/L"
        },
        "referenceRange": [
          {
            "low": {
              "value": 3.5,
              "code": "mmol/L",
              "system": "http://unitsofmeasure.org"
            }
          },
          {
            "high": {
              "value": 5.1,
              "code": "mmol/L",
              "system": "http://unitsofmeasure.org"
            }
          }
        ],
        "text": {
          "status": "generated",
          "div": "<div xmlns=\"http://www.w3.org/1999/xhtml\"><table class=\"hl7__eu__lab__report\"><tr><th>Test</th><th>20-May-2025</th><th>Reference&#xA0;Range</th><th>Unit</th></tr><tr><td>Potassium [Moles/volume] in Serum or Plasma</td><td>4.9</td><td>3.5 - 5.1</td><td></td><td>mmol/L</td></tr></table></div>"
        },
        "status": "final",
        "subject": {
          "reference": "urn:uuid:5091da10-9a9f-4cb1-b8be-5a6eaaa93e1f",
          "display": "Meaghan Neary"
        },
        "effectiveDateTime": "2025-05-19T22:11:04Z",
        "specimen": {
          "reference": "urn:uuid:1a927534-0669-4f68-912e-5f6952d34ff3"
        }
      }
    },
    {
      "fullUrl": "urn:uuid:80b75246-4410-4650-8b0c-be31059fcebf",
      "resource": {
        "resourceType": "Observation",
        "id": "80b75246-4410-4650-8b0c-be31059fcebf",
        "meta": {
          "profile": [
            "http://hl7.eu/fhir/laboratory/StructureDefinition/Observation-resultslab-eu-lab"
          ]
        },
        "performer": [
          {
            "display": "The Central European Lab"
          }
        ],
        "category": [
          {
            "coding": [
              {
                "system": "http://terminology.hl7.org/CodeSystem/observation-category",
                "code": "laboratory"
              }
            ]
          }
        ],
        "code": {
          "coding": [
            {
              "code": "2075-0",
              "system": "http://loinc.org",
              "display": "Chloride [Moles/volume] in Serum or Plasma"
            }
          ],
          "text": "Chloride [Moles/volume] in Serum or Plasma"
        },
        "valueQuantity": {
          "system": "http://unitsofmeasure.org",
          "value": 103.5,
          "unit": "mmol/L",
          "code": "mmol/L"
        },
        "referenceRange": [
          {
            "low": {
              "value": 98,
              "code": "mmol/L",
              "system": "http://unitsofmeasure.org"
            }
          },
          {
            "high": {
              "value": 108,
              "code": "mmol/L",
              "system": "http://unitsofmeasure.org"
            }
          }
        ],
        "text": {
          "status": "generated",
          "div": "<div xmlns=\"http://www.w3.org/1999/xhtml\"><table class=\"hl7__eu__lab__report\"><tr><th>Test</th><th>20-May-2025</th><th>Reference&#xA0;Range</th><th>Unit</th></tr><tr><td>Chloride [Moles/volume] in Serum or Plasma</td><td>103.5</td><td>98 - 108</td><td></td><td>mmol/L</td></tr></table></div>"
        },
        "status": "final",
        "subject": {
          "reference": "urn:uuid:5091da10-9a9f-4cb1-b8be-5a6eaaa93e1f",
          "display": "Meaghan Neary"
        },
        "effectiveDateTime": "2025-05-19T22:11:04Z",
        "specimen": {
          "reference": "urn:uuid:1a927534-0669-4f68-912e-5f6952d34ff3"
        }
      }
    },
    {
      "fullUrl": "urn:uuid:b0865b1a-415c-498b-a2aa-cae31b77238d",
      "resource": {
        "resourceType": "Observation",
        "id": "b0865b1a-415c-498b-a2aa-cae31b77238d",
        "meta": {
          "profile": [
            "http://hl7.eu/fhir/laboratory/StructureDefinition/Observation-resultslab-eu-lab"
          ]
        },
        "performer": [
          {
            "display": "The Central European Lab"
          }
        ],
        "category": [
          {
            "coding": [
              {
                "system": "http://terminology.hl7.org/CodeSystem/observation-category",
                "code": "laboratory"
              }
            ]
          }
        ],
        "code": {
          "coding": [
            {
              "code": "2028-9",
              "system": "http://loinc.org",
              "display": "Carbon dioxide, total [Moles/volume] in Serum or Plasma"
            }
          ],
          "text": "Carbon dioxide, total [Moles/volume] in Serum or Plasma"
        },
        "valueQuantity": {
          "system": "http://unitsofmeasure.org",
          "value": 21.4,
          "unit": "mmol/L",
          "code": "mmol/L"
        },
        "referenceRange": [
          {
            "low": {
              "value": 22,
              "code": "mmol/L",
              "system": "http://unitsofmeasure.org"
            }
          },
          {
            "high": {
              "value": 32,
              "code": "mmol/L",
              "system": "http://unitsofmeasure.org"
            }
          }
        ],
        "interpretation": [
          {
            "coding": [
              {
                "code": "L",
                "system": "http://terminology.hl7.org/CodeSystem/v3-ObservationInterpretation",
                "display": "Low"
              }
            ]
          }
        ],
        "text": {
          "status": "generated",
          "div": "<div xmlns=\"http://www.w3.org/1999/xhtml\"><table class=\"hl7__eu__lab__report\"><tr><th>Test</th><th>20-May-2025</th><th>Reference&#xA0;Range</th><th>Unit</th></tr><tr><td>Carbon dioxide, total [Moles/volume] in Serum or Plasma</td><td>21.4</td><td>22 - 32</td><td>L</td><td>mmol/L</td></tr></table></div>"
        },
        "status": "final",
        "subject": {
          "reference": "urn:uuid:5091da10-9a9f-4cb1-b8be-5a6eaaa93e1f",
          "display": "Meaghan Neary"
        },
        "effectiveDateTime": "2025-05-19T22:11:04Z",
        "specimen": {
          "reference": "urn:uuid:1a927534-0669-4f68-912e-5f6952d34ff3"
        }
      }
    },
    {
      "fullUrl": "urn:uuid:ff264927-e59f-4f4a-8d6d-42ad2603cc89",
      "resource": {
        "resourceType": "Observation",
        "id": "ff264927-e59f-4f4a-8d6d-42ad2603cc89",
        "meta": {
          "profile": [
            "http://hl7.eu/fhir/laboratory/StructureDefinition/Observation-resultslab-eu-lab"
          ]
        },
        "performer": [
          {
            "display": "The Central European Lab"
          }
        ],
        "category": [
          {
            "coding": [
              {
                "system": "http://terminology.hl7.org/CodeSystem/observation-category",
                "code": "laboratory"
              }
            ]
          }
        ],
        "code": {
          "coding": [
            {
              "code": "5767-9",
              "system": "http://loinc.org",
              "display": "Appearance of Urine"
            }
          ],
          "text": "Appearance of Urine"
        },
        "text": {
          "status": "generated",
          "div": "<div xmlns=\"http://www.w3.org/1999/xhtml\"><table class=\"hl7__eu__lab__report\"><tr><th>Test</th><th>20-May-2025</th><th>Reference&#xA0;Range</th><th>Unit</th></tr><tr><td>Appearance of Urine</td></tr></table></div>"
        },
        "status": "final",
        "subject": {
          "reference": "urn:uuid:5091da10-9a9f-4cb1-b8be-5a6eaaa93e1f",
          "display": "Meaghan Neary"
        },
        "effectiveDateTime": "2025-05-19T22:11:04Z",
        "specimen": {
          "reference": "urn:uuid:f1e7aebe-1e75-4175-96cc-217e5c76eec0"
        }
      }
    },
    {
      "fullUrl": "urn:uuid:40966160-df8b-4cfc-8f68-018578c2f09b",
      "resource": {
        "resourceType": "Observation",
        "id": "40966160-df8b-4cfc-8f68-018578c2f09b",
        "meta": {
          "profile": [
            "http://hl7.eu/fhir/laboratory/StructureDefinition/Observation-resultslab-eu-lab"
          ]
        },
        "performer": [
          {
            "display": "The Central European Lab"
          }
        ],
        "category": [
          {
            "coding": [
              {
                "system": "http://terminology.hl7.org/CodeSystem/observation-category",
                "code": "laboratory"
              }
            ]
          }
        ],
        "code": {
          "coding": [
            {
              "code": "34533-0",
              "system": "http://loinc.org",
              "display": "Odor of Urine"
            }
          ],
          "text": "Odor of Urine"
        },
        "text": {
          "status": "generated",
          "div": "<div xmlns=\"http://www.w3.org/1999/xhtml\"><table class=\"hl7__eu__lab__report\"><tr><th>Test</th><th>20-May-2025</th><th>Reference&#xA0;Range</th><th>Unit</th></tr><tr><td>Odor of Urine</td></tr></table></div>"
        },
        "status": "final",
        "subject": {
          "reference": "urn:uuid:5091da10-9a9f-4cb1-b8be-5a6eaaa93e1f",
          "display": "Meaghan Neary"
        },
        "effectiveDateTime": "2025-05-19T22:11:04Z",
        "specimen": {
          "reference": "urn:uuid:f1e7aebe-1e75-4175-96cc-217e5c76eec0"
        }
      }
    },
    {
      "fullUrl": "urn:uuid:9ac4eb1b-62e2-4f1b-975b-8196083f4719",
      "resource": {
        "resourceType": "Observation",
        "id": "9ac4eb1b-62e2-4f1b-975b-8196083f4719",
        "meta": {
          "profile": [
            "http://hl7.eu/fhir/laboratory/StructureDefinition/Observation-resultslab-eu-lab"
          ]
        },
        "performer": [
          {
            "display": "The Central European Lab"
          }
        ],
        "category": [
          {
            "coding": [
              {
                "system": "http://terminology.hl7.org/CodeSystem/observation-category",
                "code": "laboratory"
              }
            ]
          }
        ],
        "code": {
          "coding": [
            {
              "code": "32167-9",
              "system": "http://loinc.org",
              "display": "Clarity of Urine"
            }
          ],
          "text": "Clarity of Urine"
        },
        "text": {
          "status": "generated",
          "div": "<div xmlns=\"http://www.w3.org/1999/xhtml\"><table class=\"hl7__eu__lab__report\"><tr><th>Test</th><th>20-May-2025</th><th>Reference&#xA0;Range</th><th>Unit</th></tr><tr><td>Clarity of Urine</td></tr></table></div>"
        },
        "status": "final",
        "subject": {
          "reference": "urn:uuid:5091da10-9a9f-4cb1-b8be-5a6eaaa93e1f",
          "display": "Meaghan Neary"
        },
        "effectiveDateTime": "2025-05-19T22:11:04Z",
        "specimen": {
          "reference": "urn:uuid:f1e7aebe-1e75-4175-96cc-217e5c76eec0"
        }
      }
    },
    {
      "fullUrl": "urn:uuid:90d466f3-9529-487c-ad62-ea7f89ccdb8d",
      "resource": {
        "resourceType": "Observation",
        "id": "90d466f3-9529-487c-ad62-ea7f89ccdb8d",
        "meta": {
          "profile": [
            "http://hl7.eu/fhir/laboratory/StructureDefinition/Observation-resultslab-eu-lab"
          ]
        },
        "performer": [
          {
            "display": "The Central European Lab"
          }
        ],
        "category": [
          {
            "coding": [
              {
                "system": "http://terminology.hl7.org/CodeSystem/observation-category",
                "code": "laboratory"
              }
            ]
          }
        ],
        "code": {
          "coding": [
            {
              "code": "5778-6",
              "system": "http://loinc.org",
              "display": "Color of Urine"
            }
          ],
          "text": "Color of Urine"
        },
        "text": {
          "status": "generated",
          "div": "<div xmlns=\"http://www.w3.org/1999/xhtml\"><table class=\"hl7__eu__lab__report\"><tr><th>Test</th><th>20-May-2025</th><th>Reference&#xA0;Range</th><th>Unit</th></tr><tr><td>Color of Urine</td></tr></table></div>"
        },
        "status": "final",
        "subject": {
          "reference": "urn:uuid:5091da10-9a9f-4cb1-b8be-5a6eaaa93e1f",
          "display": "Meaghan Neary"
        },
        "effectiveDateTime": "2025-05-19T22:11:04Z",
        "specimen": {
          "reference": "urn:uuid:f1e7aebe-1e75-4175-96cc-217e5c76eec0"
        }
      }
    },
    {
      "fullUrl": "urn:uuid:2d2d3b4a-c488-4f19-b0b4-ad4b4f64a17f",
      "resource": {
        "resourceType": "Observation",
        "id": "2d2d3b4a-c488-4f19-b0b4-ad4b4f64a17f",
        "meta": {
          "profile": [
            "http://hl7.eu/fhir/laboratory/StructureDefinition/Observation-resultslab-eu-lab"
          ]
        },
        "performer": [
          {
            "display": "The Central European Lab"
          }
        ],
        "category": [
          {
            "coding": [
              {
                "system": "http://terminology.hl7.org/CodeSystem/observation-category",
                "code": "laboratory"
              }
            ]
          }
        ],
        "code": {
          "coding": [
            {
              "code": "5792-7",
              "system": "http://loinc.org",
              "display": "Glucose [Mass/volume] in Urine by Test strip"
            }
          ],
          "text": "Glucose [Mass/volume] in Urine by Test strip"
        },
        "valueQuantity": {
          "system": "http://unitsofmeasure.org",
          "value": 1,
          "unit": "mg/dL",
          "code": "mg/dL"
        },
        "referenceRange": [
          {
            "low": {
              "value": 0.8,
              "code": "mg/dL",
              "system": "http://unitsofmeasure.org"
            }
          },
          {
            "high": {
              "value": 0,
              "code": "mg/dL",
              "system": "http://unitsofmeasure.org"
            }
          }
        ],
        "interpretation": [
          {
            "coding": [
              {
                "code": "H",
                "system": "http://terminology.hl7.org/CodeSystem/v3-ObservationInterpretation",
                "display": "High"
              }
            ]
          }
        ],
        "text": {
          "status": "generated",
          "div": "<div xmlns=\"http://www.w3.org/1999/xhtml\"><table class=\"hl7__eu__lab__report\"><tr><th>Test</th><th>20-May-2025</th><th>Reference&#xA0;Range</th><th>Unit</th></tr><tr><td>Glucose [Mass/volume] in Urine by Test strip</td><td>1.0</td><td>0.8 - 0</td><td>H</td><td>mg/dL</td></tr></table></div>"
        },
        "status": "final",
        "subject": {
          "reference": "urn:uuid:5091da10-9a9f-4cb1-b8be-5a6eaaa93e1f",
          "display": "Meaghan Neary"
        },
        "effectiveDateTime": "2025-05-19T22:11:04Z",
        "specimen": {
          "reference": "urn:uuid:f1e7aebe-1e75-4175-96cc-217e5c76eec0"
        }
      }
    },
    {
      "fullUrl": "urn:uuid:42159df7-75a6-45ad-b89a-eb64768ece30",
      "resource": {
        "resourceType": "Observation",
        "id": "42159df7-75a6-45ad-b89a-eb64768ece30",
        "meta": {
          "profile": [
            "http://hl7.eu/fhir/laboratory/StructureDefinition/Observation-resultslab-eu-lab"
          ]
        },
        "performer": [
          {
            "display": "The Central European Lab"
          }
        ],
        "category": [
          {
            "coding": [
              {
                "system": "http://terminology.hl7.org/CodeSystem/observation-category",
                "code": "laboratory"
              }
            ]
          }
        ],
        "code": {
          "coding": [
            {
              "code": "25428-4",
              "system": "http://loinc.org",
              "display": "Glucose [Presence] in Urine by Test strip"
            }
          ],
          "text": "Glucose [Presence] in Urine by Test strip"
        },
        "text": {
          "status": "generated",
          "div": "<div xmlns=\"http://www.w3.org/1999/xhtml\"><table class=\"hl7__eu__lab__report\"><tr><th>Test</th><th>20-May-2025</th><th>Reference&#xA0;Range</th><th>Unit</th></tr><tr><td>Glucose [Presence] in Urine by Test strip</td></tr></table></div>"
        },
        "status": "final",
        "subject": {
          "reference": "urn:uuid:5091da10-9a9f-4cb1-b8be-5a6eaaa93e1f",
          "display": "Meaghan Neary"
        },
        "effectiveDateTime": "2025-05-19T22:11:04Z",
        "specimen": {
          "reference": "urn:uuid:f1e7aebe-1e75-4175-96cc-217e5c76eec0"
        }
      }
    },
    {
      "fullUrl": "urn:uuid:f2c59535-98e7-4a94-b868-85d379922082",
      "resource": {
        "resourceType": "Observation",
        "id": "f2c59535-98e7-4a94-b868-85d379922082",
        "meta": {
          "profile": [
            "http://hl7.eu/fhir/laboratory/StructureDefinition/Observation-resultslab-eu-lab"
          ]
        },
        "performer": [
          {
            "display": "The Central European Lab"
          }
        ],
        "category": [
          {
            "coding": [
              {
                "system": "http://terminology.hl7.org/CodeSystem/observation-category",
                "code": "laboratory"
              }
            ]
          }
        ],
        "code": {
          "coding": [
            {
              "code": "20505-4",
              "system": "http://loinc.org",
              "display": "Bilirubin.total [Mass/volume] in Urine by Test strip"
            }
          ],
          "text": "Bilirubin.total [Mass/volume] in Urine by Test strip"
        },
        "valueQuantity": {
          "system": "http://unitsofmeasure.org",
          "value": 0.6,
          "unit": "mg/dL",
          "code": "mg/dL"
        },
        "referenceRange": [
          {
            "low": {
              "value": 0,
              "code": "mg/dL",
              "system": "http://unitsofmeasure.org"
            }
          },
          {
            "high": {
              "value": 1,
              "code": "mg/dL",
              "system": "http://unitsofmeasure.org"
            }
          }
        ],
        "text": {
          "status": "generated",
          "div": "<div xmlns=\"http://www.w3.org/1999/xhtml\"><table class=\"hl7__eu__lab__report\"><tr><th>Test</th><th>20-May-2025</th><th>Reference&#xA0;Range</th><th>Unit</th></tr><tr><td>Bilirubin.total [Mass/volume] in Urine by Test strip</td><td>0.6</td><td>0 - 1</td><td></td><td>mg/dL</td></tr></table></div>"
        },
        "status": "final",
        "subject": {
          "reference": "urn:uuid:5091da10-9a9f-4cb1-b8be-5a6eaaa93e1f",
          "display": "Meaghan Neary"
        },
        "effectiveDateTime": "2025-05-19T22:11:04Z",
        "specimen": {
          "reference": "urn:uuid:f1e7aebe-1e75-4175-96cc-217e5c76eec0"
        }
      }
    },
    {
      "fullUrl": "urn:uuid:a89a9af5-11c6-4b78-b885-08a744375554",
      "resource": {
        "resourceType": "Observation",
        "id": "a89a9af5-11c6-4b78-b885-08a744375554",
        "meta": {
          "profile": [
            "http://hl7.eu/fhir/laboratory/StructureDefinition/Observation-resultslab-eu-lab"
          ]
        },
        "performer": [
          {
            "display": "The Central European Lab"
          }
        ],
        "category": [
          {
            "coding": [
              {
                "system": "http://terminology.hl7.org/CodeSystem/observation-category",
                "code": "laboratory"
              }
            ]
          }
        ],
        "code": {
          "coding": [
            {
              "code": "5770-3",
              "system": "http://loinc.org",
              "display": "Bilirubin.total [Presence] in Urine by Test strip"
            }
          ],
          "text": "Bilirubin.total [Presence] in Urine by Test strip"
        },
        "text": {
          "status": "generated",
          "div": "<div xmlns=\"http://www.w3.org/1999/xhtml\"><table class=\"hl7__eu__lab__report\"><tr><th>Test</th><th>20-May-2025</th><th>Reference&#xA0;Range</th><th>Unit</th></tr><tr><td>Bilirubin.total [Presence] in Urine by Test strip</td></tr></table></div>"
        },
        "status": "final",
        "subject": {
          "reference": "urn:uuid:5091da10-9a9f-4cb1-b8be-5a6eaaa93e1f",
          "display": "Meaghan Neary"
        },
        "effectiveDateTime": "2025-05-19T22:11:04Z",
        "specimen": {
          "reference": "urn:uuid:f1e7aebe-1e75-4175-96cc-217e5c76eec0"
        }
      }
    },
    {
      "fullUrl": "urn:uuid:b9a01378-0900-4b0f-82ac-31a89a5c3ab5",
      "resource": {
        "resourceType": "Observation",
        "id": "b9a01378-0900-4b0f-82ac-31a89a5c3ab5",
        "meta": {
          "profile": [
            "http://hl7.eu/fhir/laboratory/StructureDefinition/Observation-resultslab-eu-lab"
          ]
        },
        "performer": [
          {
            "display": "The Central European Lab"
          }
        ],
        "category": [
          {
            "coding": [
              {
                "system": "http://terminology.hl7.org/CodeSystem/observation-category",
                "code": "laboratory"
              }
            ]
          }
        ],
        "code": {
          "coding": [
            {
              "code": "5797-6",
              "system": "http://loinc.org",
              "display": "Ketones [Mass/volume] in Urine by Test strip"
            }
          ],
          "text": "Ketones [Mass/volume] in Urine by Test strip"
        },
        "valueQuantity": {
          "system": "http://unitsofmeasure.org",
          "value": 12.1,
          "unit": "mg/dL",
          "code": "mg/dL"
        },
        "referenceRange": [
          {
            "low": {
              "value": 0,
              "code": "mg/dL",
              "system": "http://unitsofmeasure.org"
            }
          },
          {
            "high": {
              "value": 4,
              "code": "mg/dL",
              "system": "http://unitsofmeasure.org"
            }
          }
        ],
        "interpretation": [
          {
            "coding": [
              {
                "code": "H",
                "system": "http://terminology.hl7.org/CodeSystem/v3-ObservationInterpretation",
                "display": "High"
              }
            ]
          }
        ],
        "text": {
          "status": "generated",
          "div": "<div xmlns=\"http://www.w3.org/1999/xhtml\"><table class=\"hl7__eu__lab__report\"><tr><th>Test</th><th>20-May-2025</th><th>Reference&#xA0;Range</th><th>Unit</th></tr><tr><td>Ketones [Mass/volume] in Urine by Test strip</td><td>12.1</td><td>0 - 4</td><td>H</td><td>mg/dL</td></tr></table></div>"
        },
        "status": "final",
        "subject": {
          "reference": "urn:uuid:5091da10-9a9f-4cb1-b8be-5a6eaaa93e1f",
          "display": "Meaghan Neary"
        },
        "effectiveDateTime": "2025-05-19T22:11:04Z",
        "specimen": {
          "reference": "urn:uuid:f1e7aebe-1e75-4175-96cc-217e5c76eec0"
        }
      }
    },
    {
      "fullUrl": "urn:uuid:418cdbde-07b4-45e3-b61a-bfe699a5e35e",
      "resource": {
        "resourceType": "Observation",
        "id": "418cdbde-07b4-45e3-b61a-bfe699a5e35e",
        "meta": {
          "profile": [
            "http://hl7.eu/fhir/laboratory/StructureDefinition/Observation-resultslab-eu-lab"
          ]
        },
        "performer": [
          {
            "display": "The Central European Lab"
          }
        ],
        "category": [
          {
            "coding": [
              {
                "system": "http://terminology.hl7.org/CodeSystem/observation-category",
                "code": "laboratory"
              }
            ]
          }
        ],
        "code": {
          "coding": [
            {
              "code": "2514-8",
              "system": "http://loinc.org",
              "display": "Ketones [Presence] in Urine by Test strip"
            }
          ],
          "text": "Ketones [Presence] in Urine by Test strip"
        },
        "text": {
          "status": "generated",
          "div": "<div xmlns=\"http://www.w3.org/1999/xhtml\"><table class=\"hl7__eu__lab__report\"><tr><th>Test</th><th>20-May-2025</th><th>Reference&#xA0;Range</th><th>Unit</th></tr><tr><td>Ketones [Presence] in Urine by Test strip</td></tr></table></div>"
        },
        "status": "final",
        "subject": {
          "reference": "urn:uuid:5091da10-9a9f-4cb1-b8be-5a6eaaa93e1f",
          "display": "Meaghan Neary"
        },
        "effectiveDateTime": "2025-05-19T22:11:04Z",
        "specimen": {
          "reference": "urn:uuid:f1e7aebe-1e75-4175-96cc-217e5c76eec0"
        }
      }
    },
    {
      "fullUrl": "urn:uuid:13759890-1b8d-4ee8-8ee8-3a6f47b3c141",
      "resource": {
        "resourceType": "Observation",
        "id": "13759890-1b8d-4ee8-8ee8-3a6f47b3c141",
        "meta": {
          "profile": [
            "http://hl7.eu/fhir/laboratory/StructureDefinition/Observation-resultslab-eu-lab"
          ]
        },
        "performer": [
          {
            "display": "The Central European Lab"
          }
        ],
        "category": [
          {
            "coding": [
              {
                "system": "http://terminology.hl7.org/CodeSystem/observation-category",
                "code": "laboratory"
              }
            ]
          }
        ],
        "code": {
          "coding": [
            {
              "code": "5811-5",
              "system": "http://loinc.org",
              "display": "Specific gravity of Urine by Test strip"
            }
          ],
          "text": "Specific gravity of Urine by Test strip"
        },
        "valueQuantity": {
          "system": "http://unitsofmeasure.org",
          "value": 1,
          "unit": "{nominal}",
          "code": "{nominal}"
        },
        "referenceRange": [
          {
            "low": {
              "value": 1.005,
              "code": "g/mL",
              "system": "http://unitsofmeasure.org"
            }
          },
          {
            "high": {
              "value": 1.03,
              "code": "g/mL",
              "system": "http://unitsofmeasure.org"
            }
          }
        ],
        "interpretation": [
          {
            "coding": [
              {
                "code": "L",
                "system": "http://terminology.hl7.org/CodeSystem/v3-ObservationInterpretation",
                "display": "Low"
              }
            ]
          }
        ],
        "text": {
          "status": "generated",
          "div": "<div xmlns=\"http://www.w3.org/1999/xhtml\"><table class=\"hl7__eu__lab__report\"><tr><th>Test</th><th>20-May-2025</th><th>Reference&#xA0;Range</th><th>Unit</th></tr><tr><td>Specific gravity of Urine by Test strip</td><td>1.0</td><td>1.005 - 1.03</td><td>L</td><td>{nominal}</td></tr></table></div>"
        },
        "status": "final",
        "subject": {
          "reference": "urn:uuid:5091da10-9a9f-4cb1-b8be-5a6eaaa93e1f",
          "display": "Meaghan Neary"
        },
        "effectiveDateTime": "2025-05-19T22:11:04Z",
        "specimen": {
          "reference": "urn:uuid:f1e7aebe-1e75-4175-96cc-217e5c76eec0"
        }
      }
    },
    {
      "fullUrl": "urn:uuid:230d1b80-11cb-4444-befc-f42ac31c703c",
      "resource": {
        "resourceType": "Observation",
        "id": "230d1b80-11cb-4444-befc-f42ac31c703c",
        "meta": {
          "profile": [
            "http://hl7.eu/fhir/laboratory/StructureDefinition/Observation-resultslab-eu-lab"
          ]
        },
        "performer": [
          {
            "display": "The Central European Lab"
          }
        ],
        "category": [
          {
            "coding": [
              {
                "system": "http://terminology.hl7.org/CodeSystem/observation-category",
                "code": "laboratory"
              }
            ]
          }
        ],
        "code": {
          "coding": [
            {
              "code": "5803-2",
              "system": "http://loinc.org",
              "display": "pH of Urine by Test strip"
            }
          ],
          "text": "pH of Urine by Test strip"
        },
        "valueQuantity": {
          "system": "http://unitsofmeasure.org",
          "value": 6.9,
          "unit": "pH",
          "code": "pH"
        },
        "referenceRange": [
          {
            "low": {
              "value": 4.6,
              "code": "pH",
              "system": "http://unitsofmeasure.org"
            }
          },
          {
            "high": {
              "value": 7,
              "code": "pH",
              "system": "http://unitsofmeasure.org"
            }
          }
        ],
        "text": {
          "status": "generated",
          "div": "<div xmlns=\"http://www.w3.org/1999/xhtml\"><table class=\"hl7__eu__lab__report\"><tr><th>Test</th><th>20-May-2025</th><th>Reference&#xA0;Range</th><th>Unit</th></tr><tr><td>pH of Urine by Test strip</td><td>6.9</td><td>4.6 - 7</td><td></td><td>pH</td></tr></table></div>"
        },
        "status": "final",
        "subject": {
          "reference": "urn:uuid:5091da10-9a9f-4cb1-b8be-5a6eaaa93e1f",
          "display": "Meaghan Neary"
        },
        "effectiveDateTime": "2025-05-19T22:11:04Z",
        "specimen": {
          "reference": "urn:uuid:f1e7aebe-1e75-4175-96cc-217e5c76eec0"
        }
      }
    },
    {
      "fullUrl": "urn:uuid:ca3d968c-09ef-45f4-bbb5-a978c4a33e2b",
      "resource": {
        "resourceType": "Observation",
        "id": "ca3d968c-09ef-45f4-bbb5-a978c4a33e2b",
        "meta": {
          "profile": [
            "http://hl7.eu/fhir/laboratory/StructureDefinition/Observation-resultslab-eu-lab"
          ]
        },
        "performer": [
          {
            "display": "The Central European Lab"
          }
        ],
        "category": [
          {
            "coding": [
              {
                "system": "http://terminology.hl7.org/CodeSystem/observation-category",
                "code": "laboratory"
              }
            ]
          }
        ],
        "code": {
          "coding": [
            {
              "code": "5804-0",
              "system": "http://loinc.org",
              "display": "Protein [Mass/volume] in Urine by Test strip"
            }
          ],
          "text": "Protein [Mass/volume] in Urine by Test strip"
        },
        "valueQuantity": {
          "system": "http://unitsofmeasure.org",
          "value": 393.3,
          "unit": "mg/dL",
          "code": "mg/dL"
        },
        "referenceRange": [
          {
            "low": {
              "value": 0,
              "code": "mg/dL",
              "system": "http://unitsofmeasure.org"
            }
          },
          {
            "high": {
              "value": 14,
              "code": "mg/dL",
              "system": "http://unitsofmeasure.org"
            }
          }
        ],
        "interpretation": [
          {
            "coding": [
              {
                "code": "H",
                "system": "http://terminology.hl7.org/CodeSystem/v3-ObservationInterpretation",
                "display": "High"
              }
            ]
          }
        ],
        "text": {
          "status": "generated",
          "div": "<div xmlns=\"http://www.w3.org/1999/xhtml\"><table class=\"hl7__eu__lab__report\"><tr><th>Test</th><th>20-May-2025</th><th>Reference&#xA0;Range</th><th>Unit</th></tr><tr><td>Protein [Mass/volume] in Urine by Test strip</td><td>393.3</td><td>0 - 14</td><td>H</td><td>mg/dL</td></tr></table></div>"
        },
        "status": "final",
        "subject": {
          "reference": "urn:uuid:5091da10-9a9f-4cb1-b8be-5a6eaaa93e1f",
          "display": "Meaghan Neary"
        },
        "effectiveDateTime": "2025-05-19T22:11:04Z",
        "specimen": {
          "reference": "urn:uuid:f1e7aebe-1e75-4175-96cc-217e5c76eec0"
        }
      }
    },
    {
      "fullUrl": "urn:uuid:c33014d5-512d-4655-9606-dad78fac7ea3",
      "resource": {
        "resourceType": "Observation",
        "id": "c33014d5-512d-4655-9606-dad78fac7ea3",
        "meta": {
          "profile": [
            "http://hl7.eu/fhir/laboratory/StructureDefinition/Observation-resultslab-eu-lab"
          ]
        },
        "performer": [
          {
            "display": "The Central European Lab"
          }
        ],
        "category": [
          {
            "coding": [
              {
                "system": "http://terminology.hl7.org/CodeSystem/observation-category",
                "code": "laboratory"
              }
            ]
          }
        ],
        "code": {
          "coding": [
            {
              "code": "20454-5",
              "system": "http://loinc.org",
              "display": "Protein [Presence] in Urine by Test strip"
            }
          ],
          "text": "Protein [Presence] in Urine by Test strip"
        },
        "text": {
          "status": "generated",
          "div": "<div xmlns=\"http://www.w3.org/1999/xhtml\"><table class=\"hl7__eu__lab__report\"><tr><th>Test</th><th>20-May-2025</th><th>Reference&#xA0;Range</th><th>Unit</th></tr><tr><td>Protein [Presence] in Urine by Test strip</td></tr></table></div>"
        },
        "status": "final",
        "subject": {
          "reference": "urn:uuid:5091da10-9a9f-4cb1-b8be-5a6eaaa93e1f",
          "display": "Meaghan Neary"
        },
        "effectiveDateTime": "2025-05-19T22:11:04Z",
        "specimen": {
          "reference": "urn:uuid:f1e7aebe-1e75-4175-96cc-217e5c76eec0"
        }
      }
    },
    {
      "fullUrl": "urn:uuid:02e9442c-7a52-4920-9e39-b0cac4a92129",
      "resource": {
        "resourceType": "Observation",
        "id": "02e9442c-7a52-4920-9e39-b0cac4a92129",
        "meta": {
          "profile": [
            "http://hl7.eu/fhir/laboratory/StructureDefinition/Observation-resultslab-eu-lab"
          ]
        },
        "performer": [
          {
            "display": "The Central European Lab"
          }
        ],
        "category": [
          {
            "coding": [
              {
                "system": "http://terminology.hl7.org/CodeSystem/observation-category",
                "code": "laboratory"
              }
            ]
          }
        ],
        "code": {
          "coding": [
            {
              "code": "5802-4",
              "system": "http://loinc.org",
              "display": "Nitrite [Presence] in Urine by Test strip"
            }
          ],
          "text": "Nitrite [Presence] in Urine by Test strip"
        },
        "text": {
          "status": "generated",
          "div": "<div xmlns=\"http://www.w3.org/1999/xhtml\"><table class=\"hl7__eu__lab__report\"><tr><th>Test</th><th>20-May-2025</th><th>Reference&#xA0;Range</th><th>Unit</th></tr><tr><td>Nitrite [Presence] in Urine by Test strip</td></tr></table></div>"
        },
        "status": "final",
        "subject": {
          "reference": "urn:uuid:5091da10-9a9f-4cb1-b8be-5a6eaaa93e1f",
          "display": "Meaghan Neary"
        },
        "effectiveDateTime": "2025-05-19T22:11:04Z",
        "specimen": {
          "reference": "urn:uuid:f1e7aebe-1e75-4175-96cc-217e5c76eec0"
        }
      }
    },
    {
      "fullUrl": "urn:uuid:bfb8241a-61eb-4c3a-9233-1c296c276712",
      "resource": {
        "resourceType": "Observation",
        "id": "bfb8241a-61eb-4c3a-9233-1c296c276712",
        "meta": {
          "profile": [
            "http://hl7.eu/fhir/laboratory/StructureDefinition/Observation-resultslab-eu-lab"
          ]
        },
        "performer": [
          {
            "display": "The Central European Lab"
          }
        ],
        "category": [
          {
            "coding": [
              {
                "system": "http://terminology.hl7.org/CodeSystem/observation-category",
                "code": "laboratory"
              }
            ]
          }
        ],
        "code": {
          "coding": [
            {
              "code": "5794-3",
              "system": "http://loinc.org",
              "display": "Hemoglobin [Presence] in Urine by Test strip"
            }
          ],
          "text": "Hemoglobin [Presence] in Urine by Test strip"
        },
        "text": {
          "status": "generated",
          "div": "<div xmlns=\"http://www.w3.org/1999/xhtml\"><table class=\"hl7__eu__lab__report\"><tr><th>Test</th><th>20-May-2025</th><th>Reference&#xA0;Range</th><th>Unit</th></tr><tr><td>Hemoglobin [Presence] in Urine by Test strip</td></tr></table></div>"
        },
        "status": "final",
        "subject": {
          "reference": "urn:uuid:5091da10-9a9f-4cb1-b8be-5a6eaaa93e1f",
          "display": "Meaghan Neary"
        },
        "effectiveDateTime": "2025-05-19T22:11:04Z",
        "specimen": {
          "reference": "urn:uuid:f1e7aebe-1e75-4175-96cc-217e5c76eec0"
        }
      }
    },
    {
      "fullUrl": "urn:uuid:6f242eb3-648c-4beb-b2e8-cb0e51c691e9",
      "resource": {
        "resourceType": "Observation",
        "id": "6f242eb3-648c-4beb-b2e8-cb0e51c691e9",
        "meta": {
          "profile": [
            "http://hl7.eu/fhir/laboratory/StructureDefinition/Observation-resultslab-eu-lab"
          ]
        },
        "performer": [
          {
            "display": "The Central European Lab"
          }
        ],
        "category": [
          {
            "coding": [
              {
                "system": "http://terminology.hl7.org/CodeSystem/observation-category",
                "code": "laboratory"
              }
            ]
          }
        ],
        "code": {
          "coding": [
            {
              "code": "5799-2",
              "system": "http://loinc.org",
              "display": "Leukocyte esterase [Presence] in Urine by Test strip"
            }
          ],
          "text": "Leukocyte esterase [Presence] in Urine by Test strip"
        },
        "text": {
          "status": "generated",
          "div": "<div xmlns=\"http://www.w3.org/1999/xhtml\"><table class=\"hl7__eu__lab__report\"><tr><th>Test</th><th>20-May-2025</th><th>Reference&#xA0;Range</th><th>Unit</th></tr><tr><td>Leukocyte esterase [Presence] in Urine by Test strip</td></tr></table></div>"
        },
        "status": "final",
        "subject": {
          "reference": "urn:uuid:5091da10-9a9f-4cb1-b8be-5a6eaaa93e1f",
          "display": "Meaghan Neary"
        },
        "effectiveDateTime": "2025-05-19T22:11:04Z",
        "specimen": {
          "reference": "urn:uuid:f1e7aebe-1e75-4175-96cc-217e5c76eec0"
        }
      }
    },
    {
      "fullUrl": "urn:uuid:3adc5b02-1e3e-4289-ad60-7720ff22254d",
      "resource": {
        "resourceType": "Observation",
        "id": "3adc5b02-1e3e-4289-ad60-7720ff22254d",
        "meta": {
          "profile": [
            "http://hl7.eu/fhir/laboratory/StructureDefinition/Observation-resultslab-eu-lab"
          ]
        },
        "performer": [
          {
            "display": "The Central European Lab"
          }
        ],
        "category": [
          {
            "coding": [
              {
                "system": "http://terminology.hl7.org/CodeSystem/observation-category",
                "code": "laboratory"
              }
            ]
          }
        ],
        "code": {
          "coding": [
            {
              "code": "4548-4",
              "system": "http://loinc.org",
              "display": "Hemoglobin A1c/Hemoglobin.total in Blood"
            }
          ],
          "text": "Hemoglobin A1c/Hemoglobin.total in Blood"
        },
        "valueQuantity": {
          "system": "http://unitsofmeasure.org",
          "value": 4,
          "unit": "%",
          "code": "%"
        },
        "referenceRange": [
          {
            "low": {
              "value": 4,
              "code": "%",
              "system": "http://unitsofmeasure.org"
            }
          },
          {
            "high": {
              "value": 6.4,
              "code": "%",
              "system": "http://unitsofmeasure.org"
            }
          }
        ],
        "text": {
          "status": "generated",
          "div": "<div xmlns=\"http://www.w3.org/1999/xhtml\"><table class=\"hl7__eu__lab__report\"><tr><th>Test</th><th>20-May-2025</th><th>Reference&#xA0;Range</th><th>Unit</th></tr><tr><td>Hemoglobin A1c/Hemoglobin.total in Blood</td><td>4.0</td><td>4 - 6.4</td><td></td><td>%</td></tr></table></div>"
        },
        "status": "final",
        "subject": {
          "reference": "urn:uuid:5091da10-9a9f-4cb1-b8be-5a6eaaa93e1f",
          "display": "Meaghan Neary"
        },
        "effectiveDateTime": "2025-05-19T22:11:04Z",
        "specimen": {
          "reference": "urn:uuid:6048c6c9-f2fa-4d39-8697-66d7da47f280"
        }
      }
    },
    {
      "fullUrl": "urn:uuid:357e8359-f0d6-4646-b09d-de9ebc5f6545",
      "resource": {
        "resourceType": "Observation",
        "id": "357e8359-f0d6-4646-b09d-de9ebc5f6545",
        "meta": {
          "profile": [
            "http://hl7.eu/fhir/laboratory/StructureDefinition/Observation-resultslab-eu-lab"
          ]
        },
        "performer": [
          {
            "display": "The Central European Lab"
          }
        ],
        "category": [
          {
            "coding": [
              {
                "system": "http://terminology.hl7.org/CodeSystem/observation-category",
                "code": "laboratory"
              }
            ]
          }
        ],
        "code": {
          "coding": [
            {
              "code": "2339-0",
              "system": "http://loinc.org",
              "display": "Glucose [Mass/volume] in Blood"
            }
          ],
          "text": "Glucose [Mass/volume] in Blood"
        },
        "valueQuantity": {
          "system": "http://unitsofmeasure.org",
          "value": 97.2,
          "unit": "mg/dL",
          "code": "mg/dL"
        },
        "referenceRange": [
          {
            "low": {
              "value": 70,
              "code": "mg/dL",
              "system": "http://unitsofmeasure.org"
            }
          },
          {
            "high": {
              "value": 100,
              "code": "mg/dL",
              "system": "http://unitsofmeasure.org"
            }
          }
        ],
        "text": {
          "status": "generated",
          "div": "<div xmlns=\"http://www.w3.org/1999/xhtml\"><table class=\"hl7__eu__lab__report\"><tr><th>Test</th><th>20-May-2025</th><th>Reference&#xA0;Range</th><th>Unit</th></tr><tr><td>Glucose [Mass/volume] in Blood</td><td>97.2</td><td>70 - 100</td><td></td><td>mg/dL</td></tr></table></div>"
        },
        "status": "final",
        "subject": {
          "reference": "urn:uuid:5091da10-9a9f-4cb1-b8be-5a6eaaa93e1f",
          "display": "Meaghan Neary"
        },
        "effectiveDateTime": "2025-05-19T22:11:04Z",
        "specimen": {
          "reference": "urn:uuid:6048c6c9-f2fa-4d39-8697-66d7da47f280"
        }
      }
    },
    {
      "fullUrl": "urn:uuid:d201424c-3a88-45bb-a12c-2f5dcdef1499",
      "resource": {
        "resourceType": "Observation",
        "id": "d201424c-3a88-45bb-a12c-2f5dcdef1499",
        "meta": {
          "profile": [
            "http://hl7.eu/fhir/laboratory/StructureDefinition/Observation-resultslab-eu-lab"
          ]
        },
        "performer": [
          {
            "display": "The Central European Lab"
          }
        ],
        "category": [
          {
            "coding": [
              {
                "system": "http://terminology.hl7.org/CodeSystem/observation-category",
                "code": "laboratory"
              }
            ]
          }
        ],
        "code": {
          "coding": [
            {
              "code": "6299-2",
              "system": "http://loinc.org",
              "display": "Urea nitrogen [Mass/volume] in Blood"
            }
          ],
          "text": "Urea nitrogen [Mass/volume] in Blood"
        },
        "valueQuantity": {
          "system": "http://unitsofmeasure.org",
          "value": 7.7,
          "unit": "mg/dL",
          "code": "mg/dL"
        },
        "referenceRange": [
          {
            "low": {
              "value": 7,
              "code": "mg/dL",
              "system": "http://unitsofmeasure.org"
            }
          },
          {
            "high": {
              "value": 43,
              "code": "mg/dL",
              "system": "http://unitsofmeasure.org"
            }
          }
        ],
        "text": {
          "status": "generated",
          "div": "<div xmlns=\"http://www.w3.org/1999/xhtml\"><table class=\"hl7__eu__lab__report\"><tr><th>Test</th><th>20-May-2025</th><th>Reference&#xA0;Range</th><th>Unit</th></tr><tr><td>Urea nitrogen [Mass/volume] in Blood</td><td>7.7</td><td>7 - 43</td><td></td><td>mg/dL</td></tr></table></div>"
        },
        "status": "final",
        "subject": {
          "reference": "urn:uuid:5091da10-9a9f-4cb1-b8be-5a6eaaa93e1f",
          "display": "Meaghan Neary"
        },
        "effectiveDateTime": "2025-05-19T22:11:04Z",
        "specimen": {
          "reference": "urn:uuid:6048c6c9-f2fa-4d39-8697-66d7da47f280"
        }
      }
    },
    {
      "fullUrl": "urn:uuid:76b9bd82-ae34-4524-b7b7-7ec4491fe9a0",
      "resource": {
        "resourceType": "Observation",
        "id": "76b9bd82-ae34-4524-b7b7-7ec4491fe9a0",
        "meta": {
          "profile": [
            "http://hl7.eu/fhir/laboratory/StructureDefinition/Observation-resultslab-eu-lab"
          ]
        },
        "performer": [
          {
            "display": "The Central European Lab"
          }
        ],
        "category": [
          {
            "coding": [
              {
                "system": "http://terminology.hl7.org/CodeSystem/observation-category",
                "code": "laboratory"
              }
            ]
          }
        ],
        "code": {
          "coding": [
            {
              "code": "38483-4",
              "system": "http://loinc.org",
              "display": "Creatinine [Mass/volume] in Blood"
            }
          ],
          "text": "Creatinine [Mass/volume] in Blood"
        },
        "valueQuantity": {
          "system": "http://unitsofmeasure.org",
          "value": 2.5,
          "unit": "mg/dL",
          "code": "mg/dL"
        },
        "referenceRange": [
          {
            "low": {
              "value": 0.6,
              "code": "mg/dL",
              "system": "http://unitsofmeasure.org"
            }
          },
          {
            "high": {
              "value": 1.1,
              "code": "mg/dL",
              "system": "http://unitsofmeasure.org"
            }
          }
        ],
        "interpretation": [
          {
            "coding": [
              {
                "code": "H",
                "system": "http://terminology.hl7.org/CodeSystem/v3-ObservationInterpretation",
                "display": "High"
              }
            ]
          }
        ],
        "text": {
          "status": "generated",
          "div": "<div xmlns=\"http://www.w3.org/1999/xhtml\"><table class=\"hl7__eu__lab__report\"><tr><th>Test</th><th>20-May-2025</th><th>Reference&#xA0;Range</th><th>Unit</th></tr><tr><td>Creatinine [Mass/volume] in Blood</td><td>2.5</td><td>0.6 - 1.1</td><td>H</td><td>mg/dL</td></tr></table></div>"
        },
        "status": "final",
        "subject": {
          "reference": "urn:uuid:5091da10-9a9f-4cb1-b8be-5a6eaaa93e1f",
          "display": "Meaghan Neary"
        },
        "effectiveDateTime": "2025-05-19T22:11:04Z",
        "specimen": {
          "reference": "urn:uuid:6048c6c9-f2fa-4d39-8697-66d7da47f280"
        }
      }
    },
    {
      "fullUrl": "urn:uuid:10df53c9-6ea0-4a40-ad2b-ee1aedfe0922",
      "resource": {
        "resourceType": "Observation",
        "id": "10df53c9-6ea0-4a40-ad2b-ee1aedfe0922",
        "meta": {
          "profile": [
            "http://hl7.eu/fhir/laboratory/StructureDefinition/Observation-resultslab-eu-lab"
          ]
        },
        "performer": [
          {
            "display": "The Central European Lab"
          }
        ],
        "category": [
          {
            "coding": [
              {
                "system": "http://terminology.hl7.org/CodeSystem/observation-category",
                "code": "laboratory"
              }
            ]
          }
        ],
        "code": {
          "coding": [
            {
              "code": "49765-1",
              "system": "http://loinc.org",
              "display": "Calcium [Mass/volume] in Blood"
            }
          ],
          "text": "Calcium [Mass/volume] in Blood"
        },
        "valueQuantity": {
          "system": "http://unitsofmeasure.org",
          "value": 8.6,
          "unit": "mg/dL",
          "code": "mg/dL"
        },
        "referenceRange": [
          {
            "low": {
              "value": 8.5,
              "code": "mg/dL",
              "system": "http://unitsofmeasure.org"
            }
          },
          {
            "high": {
              "value": 10.5,
              "code": "mg/dL",
              "system": "http://unitsofmeasure.org"
            }
          }
        ],
        "text": {
          "status": "generated",
          "div": "<div xmlns=\"http://www.w3.org/1999/xhtml\"><table class=\"hl7__eu__lab__report\"><tr><th>Test</th><th>20-May-2025</th><th>Reference&#xA0;Range</th><th>Unit</th></tr><tr><td>Calcium [Mass/volume] in Blood</td><td>8.6</td><td>8.5 - 10.5</td><td></td><td>mg/dL</td></tr></table></div>"
        },
        "status": "final",
        "subject": {
          "reference": "urn:uuid:5091da10-9a9f-4cb1-b8be-5a6eaaa93e1f",
          "display": "Meaghan Neary"
        },
        "effectiveDateTime": "2025-05-19T22:11:04Z",
        "specimen": {
          "reference": "urn:uuid:6048c6c9-f2fa-4d39-8697-66d7da47f280"
        }
      }
    },
    {
      "fullUrl": "urn:uuid:cf3ac9bb-e2b0-4a76-9e20-ec42a7820638",
      "resource": {
        "resourceType": "Observation",
        "id": "cf3ac9bb-e2b0-4a76-9e20-ec42a7820638",
        "meta": {
          "profile": [
            "http://hl7.eu/fhir/laboratory/StructureDefinition/Observation-resultslab-eu-lab"
          ]
        },
        "performer": [
          {
            "display": "The Central European Lab"
          }
        ],
        "category": [
          {
            "coding": [
              {
                "system": "http://terminology.hl7.org/CodeSystem/observation-category",
                "code": "laboratory"
              }
            ]
          }
        ],
        "code": {
          "coding": [
            {
              "code": "2947-0",
              "system": "http://loinc.org",
              "display": "Sodium [Moles/volume] in Blood"
            }
          ],
          "text": "Sodium [Moles/volume] in Blood"
        },
        "valueQuantity": {
          "system": "http://unitsofmeasure.org",
          "value": 143.5,
          "unit": "mmol/L",
          "code": "mmol/L"
        },
        "referenceRange": [
          {
            "low": {
              "value": 135,
              "code": "mmol/L",
              "system": "http://unitsofmeasure.org"
            }
          },
          {
            "high": {
              "value": 145,
              "code": "mmol/L",
              "system": "http://unitsofmeasure.org"
            }
          }
        ],
        "text": {
          "status": "generated",
          "div": "<div xmlns=\"http://www.w3.org/1999/xhtml\"><table class=\"hl7__eu__lab__report\"><tr><th>Test</th><th>20-May-2025</th><th>Reference&#xA0;Range</th><th>Unit</th></tr><tr><td>Sodium [Moles/volume] in Blood</td><td>143.5</td><td>135 - 145</td><td></td><td>mmol/L</td></tr></table></div>"
        },
        "status": "final",
        "subject": {
          "reference": "urn:uuid:5091da10-9a9f-4cb1-b8be-5a6eaaa93e1f",
          "display": "Meaghan Neary"
        },
        "effectiveDateTime": "2025-05-19T22:11:04Z",
        "specimen": {
          "reference": "urn:uuid:6048c6c9-f2fa-4d39-8697-66d7da47f280"
        }
      }
    },
    {
      "fullUrl": "urn:uuid:95c4f464-b582-4628-be32-e98bba03af0f",
      "resource": {
        "resourceType": "Observation",
        "id": "95c4f464-b582-4628-be32-e98bba03af0f",
        "meta": {
          "profile": [
            "http://hl7.eu/fhir/laboratory/StructureDefinition/Observation-resultslab-eu-lab"
          ]
        },
        "performer": [
          {
            "display": "The Central European Lab"
          }
        ],
        "category": [
          {
            "coding": [
              {
                "system": "http://terminology.hl7.org/CodeSystem/observation-category",
                "code": "laboratory"
              }
            ]
          }
        ],
        "code": {
          "coding": [
            {
              "code": "6298-4",
              "system": "http://loinc.org",
              "display": "Potassium [Moles/volume] in Blood"
            }
          ],
          "text": "Potassium [Moles/volume] in Blood"
        },
        "valueQuantity": {
          "system": "http://unitsofmeasure.org",
          "value": 4.9,
          "unit": "mmol/L",
          "code": "mmol/L"
        },
        "referenceRange": [
          {
            "low": {
              "value": 3.5,
              "code": "mmol/L",
              "system": "http://unitsofmeasure.org"
            }
          },
          {
            "high": {
              "value": 5.1,
              "code": "mmol/L",
              "system": "http://unitsofmeasure.org"
            }
          }
        ],
        "text": {
          "status": "generated",
          "div": "<div xmlns=\"http://www.w3.org/1999/xhtml\"><table class=\"hl7__eu__lab__report\"><tr><th>Test</th><th>20-May-2025</th><th>Reference&#xA0;Range</th><th>Unit</th></tr><tr><td>Potassium [Moles/volume] in Blood</td><td>4.9</td><td>3.5 - 5.1</td><td></td><td>mmol/L</td></tr></table></div>"
        },
        "status": "final",
        "subject": {
          "reference": "urn:uuid:5091da10-9a9f-4cb1-b8be-5a6eaaa93e1f",
          "display": "Meaghan Neary"
        },
        "effectiveDateTime": "2025-05-19T22:11:04Z",
        "specimen": {
          "reference": "urn:uuid:6048c6c9-f2fa-4d39-8697-66d7da47f280"
        }
      }
    },
    {
      "fullUrl": "urn:uuid:b623089f-622e-4684-8ada-7f73cb64165e",
      "resource": {
        "resourceType": "Observation",
        "id": "b623089f-622e-4684-8ada-7f73cb64165e",
        "meta": {
          "profile": [
            "http://hl7.eu/fhir/laboratory/StructureDefinition/Observation-resultslab-eu-lab"
          ]
        },
        "performer": [
          {
            "display": "The Central European Lab"
          }
        ],
        "category": [
          {
            "coding": [
              {
                "system": "http://terminology.hl7.org/CodeSystem/observation-category",
                "code": "laboratory"
              }
            ]
          }
        ],
        "code": {
          "coding": [
            {
              "code": "2069-3",
              "system": "http://loinc.org",
              "display": "Chloride [Moles/volume] in Blood"
            }
          ],
          "text": "Chloride [Moles/volume] in Blood"
        },
        "valueQuantity": {
          "system": "http://unitsofmeasure.org",
          "value": 103.5,
          "unit": "mmol/L",
          "code": "mmol/L"
        },
        "referenceRange": [
          {
            "low": {
              "value": 98,
              "code": "mmol/L",
              "system": "http://unitsofmeasure.org"
            }
          },
          {
            "high": {
              "value": 108,
              "code": "mmol/L",
              "system": "http://unitsofmeasure.org"
            }
          }
        ],
        "text": {
          "status": "generated",
          "div": "<div xmlns=\"http://www.w3.org/1999/xhtml\"><table class=\"hl7__eu__lab__report\"><tr><th>Test</th><th>20-May-2025</th><th>Reference&#xA0;Range</th><th>Unit</th></tr><tr><td>Chloride [Moles/volume] in Blood</td><td>103.5</td><td>98 - 108</td><td></td><td>mmol/L</td></tr></table></div>"
        },
        "status": "final",
        "subject": {
          "reference": "urn:uuid:5091da10-9a9f-4cb1-b8be-5a6eaaa93e1f",
          "display": "Meaghan Neary"
        },
        "effectiveDateTime": "2025-05-19T22:11:04Z",
        "specimen": {
          "reference": "urn:uuid:6048c6c9-f2fa-4d39-8697-66d7da47f280"
        }
      }
    },
    {
      "fullUrl": "urn:uuid:db5a5b90-4d51-4d79-88f1-9e7386fda0d7",
      "resource": {
        "resourceType": "Observation",
        "id": "db5a5b90-4d51-4d79-88f1-9e7386fda0d7",
        "meta": {
          "profile": [
            "http://hl7.eu/fhir/laboratory/StructureDefinition/Observation-resultslab-eu-lab"
          ]
        },
        "performer": [
          {
            "display": "The Central European Lab"
          }
        ],
        "category": [
          {
            "coding": [
              {
                "system": "http://terminology.hl7.org/CodeSystem/observation-category",
                "code": "laboratory"
              }
            ]
          }
        ],
        "code": {
          "coding": [
            {
              "code": "20565-8",
              "system": "http://loinc.org",
              "display": "Carbon dioxide, total [Moles/volume] in Blood"
            }
          ],
          "text": "Carbon dioxide, total [Moles/volume] in Blood"
        },
        "valueQuantity": {
          "system": "http://unitsofmeasure.org",
          "value": 21.4,
          "unit": "mmol/L",
          "code": "mmol/L"
        },
        "referenceRange": [
          {
            "low": {
              "value": 22,
              "code": "mmol/L",
              "system": "http://unitsofmeasure.org"
            }
          },
          {
            "high": {
              "value": 29,
              "code": "mmol/L",
              "system": "http://unitsofmeasure.org"
            }
          }
        ],
        "interpretation": [
          {
            "coding": [
              {
                "code": "L",
                "system": "http://terminology.hl7.org/CodeSystem/v3-ObservationInterpretation",
                "display": "Low"
              }
            ]
          }
        ],
        "text": {
          "status": "generated",
          "div": "<div xmlns=\"http://www.w3.org/1999/xhtml\"><table class=\"hl7__eu__lab__report\"><tr><th>Test</th><th>20-May-2025</th><th>Reference&#xA0;Range</th><th>Unit</th></tr><tr><td>Carbon dioxide, total [Moles/volume] in Blood</td><td>21.4</td><td>22 - 29</td><td>L</td><td>mmol/L</td></tr></table></div>"
        },
        "status": "final",
        "subject": {
          "reference": "urn:uuid:5091da10-9a9f-4cb1-b8be-5a6eaaa93e1f",
          "display": "Meaghan Neary"
        },
        "effectiveDateTime": "2025-05-19T22:11:04Z",
        "specimen": {
          "reference": "urn:uuid:6048c6c9-f2fa-4d39-8697-66d7da47f280"
        }
      }
    },
    {
      "fullUrl": "urn:uuid:4b7e6a4d-8bfa-488a-8a8d-9e1509b25c59",
      "resource": {
        "resourceType": "Device",
        "id": "4b7e6a4d-8bfa-488a-8a8d-9e1509b25c59",
        "deviceName": [
          {
            "name": "SYNDERAI Synthetic Generator",
            "type": "manufacturer-name"
          }
        ],
        "version": [
          {
            "value": "5.0"
          }
        ],
        "text": {
          "status": "generated",
          "div": "<div xmlns=\"http://www.w3.org/1999/xhtml\">SYNDERAI Synthetic Generator v5.0</div>"
        },
        "status": "active\"",
        "distinctIdentifier": "synderai-generator-50",
        "manufacturer": "SYNDERAI Project"
      }
    },
    {
      "fullUrl": "urn:uuid:d839c438-1089-4283-9636-9b1bb2082a61",
      "resource": {
        "resourceType": "Provenance",
        "id": "d839c438-1089-4283-9636-9b1bb2082a61",
        "target": [
          {
            "reference": "Patient/5091da10-9a9f-4cb1-b8be-5a6eaaa93e1f"
          },
          {
            "reference": "Bundle/15dd6752-962e-414c-a060-583d65a06faf"
          },
          {
            "reference": "Composition/8c41a886-55b4-456d-8cc0-66e2f0b826f4"
          },
          {
            "reference": "PractitionerRole/553b6eac-65cf-4791-91b6-d4725a10d827"
          },
          {
            "reference": "Practitioner/9c237c32-b04b-4059-9b69-16a565680ab8"
          },
          {
            "reference": "PractitionerRole/a5153cb6-521c-49cc-a8c1-0b0eaaad82e1"
          },
          {
            "reference": "Organization/0d7cb7c4-e5dc-4d60-9212-b3b8e112802e"
          }
        ],
        "activity": {
          "text": "Synthetic Example Data Generation"
        },
        "policy": [
          "https://synderai.net/synderai-synthetic-data-policy"
        ],
        "agent": [
          {
            "type": {
              "text": "author"
            },
            "who": {
              "reference": "Device/4b7e6a4d-8bfa-488a-8a8d-9e1509b25c59"
            }
          }
        ],
        "reason": [
          {
            "text": "Interoperability Testing and Training (non-clinical use)"
          }
        ],
        "text": {
          "status": "generated",
          "div": "<div xmlns=\"http://www.w3.org/1999/xhtml\">Provenance for SYNDERAI Synthetic Example Data Resource</div>"
        },
        "recorded": "2025-05-20T00:11:04Z"
      }
    },
    {
      "fullUrl": "urn:uuid:553b6eac-65cf-4791-91b6-d4725a10d827",
      "resource": {
        "resourceType": "PractitionerRole",
        "id": "553b6eac-65cf-4791-91b6-d4725a10d827",
        "meta": {
          "profile": [
            "http://hl7.eu/fhir/base/StructureDefinition/practitionerRole-eu"
          ]
        },
        "text": {
          "status": "generated",
          "div": "<div xmlns=\"http://www.w3.org/1999/xhtml\">Laboratory Role Id: 553b6eac-65cf-4791-91b6-d4725a10d827</div>"
        },
        "practitioner": {
          "reference": "urn:uuid:9c237c32-b04b-4059-9b69-16a565680ab8"
        }
      }
    },
    {
      "fullUrl": "urn:uuid:9c237c32-b04b-4059-9b69-16a565680ab8",
      "resource": {
        "resourceType": "Practitioner",
        "id": "9c237c32-b04b-4059-9b69-16a565680ab8",
        "meta": {
          "profile": [
            "http://hl7.eu/fhir/base/StructureDefinition/practitioner-eu"
          ]
        },
        "identifier": [
          {
            "assigner": {
              "display": "HL7 Europe"
            },
            "system": "urn:oid:2.16.840.1.113883.2.51.999",
            "value": "24e148df-4b8b-4bd5-beea-5b007585ceea"
          }
        ],
        "name": [
          {
            "prefix": [
              "dr"
            ],
            "given": [
              "Ex"
            ],
            "family": "Ample"
          }
        ],
        "address": [
          {
            "line": [
              "Laboratoire Central Européenne",
              "Boulevard du Jardin Botanique 32"
            ],
            "postalCode": "1000",
            "city": "Brussels",
            "country": "Belgium"
          }
        ],
        "text": {
          "status": "generated",
          "div": "<div xmlns=\"http://www.w3.org/1999/xhtml\">Laboratory: Laboratoire Central Européenne, 1000 Brussels, Belgium</div>"
        }
      }
    }
  ],
  "type": "document",
  "timestamp": "2025-05-20T00:11:04Z"
}
