{
  "resourceType": "Bundle",
  "id": "d8ad0c2c-984f-40d7-b5f2-65510865861e",
  "meta": {
    "profile": [
      "http://hl7.eu/fhir/laboratory/StructureDefinition/Bundle-eu-lab"
    ]
  },
  "identifier": {
    "assigner": {
      "display": "HL7 Europe"
    },
    "system": "urn:oid:2.16.840.1.113883.2.51.999",
    "value": "bec18de4-a539-40d8-85ac-33cf529a1e44"
  },
  "entry": [
    {
      "fullUrl": "urn:uuid:b929558e-92cc-4ba3-8a1c-e4b4453e29e6",
      "resource": {
        "resourceType": "Composition",
        "id": "b929558e-92cc-4ba3-8a1c-e4b4453e29e6",
        "meta": {
          "profile": [
            "http://hl7.eu/fhir/laboratory/StructureDefinition/Composition-eu-lab"
          ]
        },
        "identifier": {
          "assigner": {
            "display": "HL7 Europe"
          },
          "system": "urn:oid:2.16.840.1.113883.2.51.999",
          "value": "9f07ecb6-39ba-454d-9b40-330ef4e7c602"
        },
        "author": [
          {
            "reference": "urn:uuid:0911a9da-c7b7-49a6-8b73-b1c91bc8df3b"
          }
        ],
        "category": [
          {
            "coding": [
              {
                "code": "26436-6",
                "system": "http://loinc.org",
                "display": "Laboratory studies (set)"
              }
            ]
          }
        ],
        "type": {
          "coding": [
            {
              "code": "11502-2",
              "system": "http://loinc.org",
              "display": "Laboratory report"
            }
          ],
          "text": "Laboratory Report"
        },
        "section": [
          {
            "code": {
              "coding": [
                {
                  "code": "26436-6",
                  "system": "http://loinc.org",
                  "display": "Laboratory studies (set)"
                }
              ],
              "text": "Laboratory studies"
            },
            "section": [
              {
                "code": {
                  "coding": [
                    {
                      "code": "$18719-5",
                      "system": "http://loinc.org",
                      "display": "Chemistry studies (set)"
                    }
                  ],
                  "text": "Chemistry"
                },
                "entry": [
                  {
                    "reference": "urn:uuid:3ebd2822-30ad-43de-89f8-fb88a3bba665"
                  },
                  {
                    "reference": "urn:uuid:55e7da00-1030-4b42-bf53-ac2aa9a28c52"
                  },
                  {
                    "reference": "urn:uuid:51f21a76-ba1d-423c-9024-89b8c5a3eb64"
                  },
                  {
                    "reference": "urn:uuid:95f6313d-cf04-4f11-a094-ac8129e53f77"
                  },
                  {
                    "reference": "urn:uuid:1f144865-2625-463a-a6a1-74cec6ada654"
                  },
                  {
                    "reference": "urn:uuid:806e8db9-2c82-422a-9b16-08bc68e11250"
                  },
                  {
                    "reference": "urn:uuid:db32ca05-0e18-4abd-965e-e78b49bd90b6"
                  },
                  {
                    "reference": "urn:uuid:a7c67d6b-25df-43b9-bf1f-5c9fda7298f2"
                  },
                  {
                    "reference": "urn:uuid:44124f3a-cc20-432b-b629-b1e836caca5f"
                  },
                  {
                    "reference": "urn:uuid:2d154181-f508-427a-a637-31dc5f20d666"
                  },
                  {
                    "reference": "urn:uuid:23e6d6c0-bb7c-466b-b0a0-30f33c109153"
                  },
                  {
                    "reference": "urn:uuid:19b2aaa5-285d-453f-8d98-f15021c06b05"
                  },
                  {
                    "reference": "urn:uuid:ea5cb1a2-2c1f-4d91-814a-fd12b163d34e"
                  },
                  {
                    "reference": "urn:uuid:e21cecad-43dd-4111-9932-3f84f7411be7"
                  },
                  {
                    "reference": "urn:uuid:5be3f0b1-eaa3-4659-bfae-7432584dd280"
                  },
                  {
                    "reference": "urn:uuid:b1ac26a6-6cf4-4804-aaa7-e66f9b4d52d3"
                  },
                  {
                    "reference": "urn:uuid:0d59fb67-d04a-41b0-baf5-5ce06dbffccb"
                  },
                  {
                    "reference": "urn:uuid:b386156e-a531-4674-93c4-7e8e32873139"
                  }
                ],
                "text": {
                  "status": "generated",
                  "div": "<div xmlns=\"http://www.w3.org/1999/xhtml\"><h3>Chemistry</h3><table class=\"hl7__eu__lab__report\"><thead><tr><th>Test</th><th>26-OCT-2015</th><th>Reference&#xA0;Range</th><th>Unit</th></tr></thead><tbody><tr><td>Glucose [Mass/volume] in Serum or Plasma</td><td>80.5</td><td>70 - 99</td><td>mg/dL</td></tr><tr><td>Urea nitrogen [Mass/volume] in Serum or Plasma</td><td>12.1</td><td>7 - 50</td><td>mg/dL</td></tr><tr><td>Creatinine [Mass/volume] in Serum or Plasma</td><td><strong>2.0 H</strong></td><td>0.6 - 1.1</td><td>mg/dL</td></tr><tr><td>Calcium [Mass/volume] in Serum or Plasma</td><td>10.1</td><td>8.6 - 10.4</td><td>mg/dL</td></tr><tr><td>Sodium [Moles/volume] in Serum or Plasma</td><td>136.9</td><td>135 - 145</td><td>mmol/L</td></tr><tr><td>Potassium [Moles/volume] in Serum or Plasma</td><td>4.6</td><td>3.5 - 5.1</td><td>mmol/L</td></tr><tr><td>Chloride [Moles/volume] in Serum or Plasma</td><td><strong>108.9 H</strong></td><td>98 - 108</td><td>mmol/L</td></tr><tr><td>Carbon dioxide, total [Moles/volume] in Serum or Plasma</td><td><strong>20.7 L</strong></td><td>22 - 32</td><td>mmol/L</td></tr><tr><td>Ketones [Presence] in Urine by Test strip</td><td>Urine ketone test = +</td><td></td><td></td></tr><tr><td>Hemoglobin A1c/Hemoglobin.total in Blood</td><td><strong>2.8 L</strong></td><td>4 - 6.4</td><td>%</td></tr><tr><td>Glucose [Mass/volume] in Blood</td><td>80.5</td><td>70 - 100</td><td>mg/dL</td></tr><tr><td>Urea nitrogen [Mass/volume] in Blood</td><td>12.1</td><td>7 - 43</td><td>mg/dL</td></tr><tr><td>Creatinine [Mass/volume] in Blood</td><td><strong>1.6 H</strong></td><td>0.6 - 1.1</td><td>mg/dL</td></tr><tr><td>Calcium [Mass/volume] in Blood</td><td>10.1</td><td>8.5 - 10.5</td><td>mg/dL</td></tr><tr><td>Sodium [Moles/volume] in Blood</td><td>136.9</td><td>135 - 145</td><td>mmol/L</td></tr><tr><td>Potassium [Moles/volume] in Blood</td><td>4.6</td><td>3.5 - 5.1</td><td>mmol/L</td></tr><tr><td>Chloride [Moles/volume] in Blood</td><td><strong>108.9 H</strong></td><td>98 - 108</td><td>mmol/L</td></tr><tr><td>Carbon dioxide, total [Moles/volume] in Blood</td><td><strong>20.7 L</strong></td><td>22 - 29</td><td>mmol/L</td></tr></tbody></table></div>"
                },
                "title": "Chemistry"
              },
              {
                "code": {
                  "coding": [
                    {
                      "code": "$18729-4",
                      "system": "http://loinc.org",
                      "display": "Urinalysis studies (set)"
                    }
                  ],
                  "text": "Urinalysis"
                },
                "entry": [
                  {
                    "reference": "urn:uuid:21795028-9354-4625-af85-2023f98b6ea5"
                  },
                  {
                    "reference": "urn:uuid:f22e23de-6591-4624-b5c5-0b024d1cec1b"
                  },
                  {
                    "reference": "urn:uuid:b6300b90-32dd-4756-87b7-f7fdf9698736"
                  },
                  {
                    "reference": "urn:uuid:603fcd81-557f-4db1-ac8b-d7530a845cb9"
                  },
                  {
                    "reference": "urn:uuid:825bd71b-e7a3-433f-bcca-1a149f400141"
                  },
                  {
                    "reference": "urn:uuid:04710fbb-0ee4-402e-8e08-eabf4893f277"
                  },
                  {
                    "reference": "urn:uuid:e36c8220-b7ba-4933-9096-cccdd1751b51"
                  },
                  {
                    "reference": "urn:uuid:02b022a9-ef39-477e-81fa-403e93c7b83e"
                  },
                  {
                    "reference": "urn:uuid:6d78adec-13a4-4ec7-92b8-6dced407ed33"
                  },
                  {
                    "reference": "urn:uuid:91324b88-4091-43f2-93be-6b0af325e827"
                  },
                  {
                    "reference": "urn:uuid:525f7e16-abf4-4b43-a533-289dd90645ef"
                  },
                  {
                    "reference": "urn:uuid:07115f8d-cb3d-4fcf-bbd8-21c9eaec95d6"
                  }
                ],
                "text": {
                  "status": "generated",
                  "div": "<div xmlns=\"http://www.w3.org/1999/xhtml\"><h3>Urinalysis</h3><table class=\"hl7__eu__lab__report\"><thead><tr><th>Test</th><th>26-OCT-2015</th><th>Reference&#xA0;Range</th><th>Unit</th></tr></thead><tbody><tr><td>Glucose [Mass/volume] in Urine by Test strip</td><td><strong>1.7 H</strong></td><td>0.8 - 0</td><td>mg/dL</td></tr><tr><td>Glucose [Presence] in Urine by Test strip</td><td>++</td><td></td><td></td></tr><tr><td>Bilirubin.total [Mass/volume] in Urine by Test strip</td><td><strong>1.5 H</strong></td><td>0 - 1</td><td>mg/dL</td></tr><tr><td>Bilirubin.total [Presence] in Urine by Test strip</td><td>Finding of bilirubin in urine</td><td></td><td></td></tr><tr><td>Ketones [Mass/volume] in Urine by Test strip</td><td>1.9</td><td>0 - 4</td><td>mg/dL</td></tr><tr><td>Specific gravity of Urine by Test strip</td><td><strong>1.0 L</strong></td><td>1.005 - 1.03</td><td>{nominal}</td></tr><tr><td>pH of Urine by Test strip</td><td>6.4</td><td>4.6 - 7</td><td>pH</td></tr><tr><td>Protein [Mass/volume] in Urine by Test strip</td><td><strong>181.9 H</strong></td><td>0 - 14</td><td>mg/dL</td></tr><tr><td>Protein [Presence] in Urine by Test strip</td><td>Urine protein test = ++</td><td></td><td></td></tr><tr><td>Nitrite [Presence] in Urine by Test strip</td><td>Urine nitrite negative</td><td></td><td></td></tr><tr><td>Hemoglobin [Presence] in Urine by Test strip</td><td>Urine blood test = negative</td><td></td><td></td></tr><tr><td>Leukocyte esterase [Presence] in Urine by Test strip</td><td>Urine leukocyte test negative</td><td></td><td></td></tr></tbody></table></div>"
                },
                "title": "Urinalysis"
              },
              {
                "code": {
                  "coding": [
                    {
                      "code": "$LP7846-1",
                      "system": "http://loinc.org",
                      "display": "Specimen information"
                    }
                  ],
                  "text": "Specimen information"
                },
                "entry": [
                  {
                    "reference": "urn:uuid:2bcf6e12-59b6-4f79-a56e-1187960decf1"
                  },
                  {
                    "reference": "urn:uuid:1f5da97c-b9e9-48fc-b759-fffb4d0a31e3"
                  },
                  {
                    "reference": "urn:uuid:14fab90a-d9b0-4794-a030-18dc52a4114d"
                  },
                  {
                    "reference": "urn:uuid:ba7d7d81-b769-4d08-8434-75e8898d1c7e"
                  }
                ],
                "text": {
                  "status": "generated",
                  "div": "<div xmlns=\"http://www.w3.org/1999/xhtml\"><h3>Specimen information</h3><table class=\"hl7__eu__lab__report\"><thead><tr><th>Test</th><th>26-OCT-2015</th><th>Specimen</th><th></th></tr></thead><tbody><tr><td>Appearance of Urine</td><td>Cloudy urine</td><td>Urine</td><td></td></tr><tr><td>Odor of Urine</td><td>Urine smell ammoniacal</td><td>Urine</td><td></td></tr><tr><td>Clarity of Urine</td><td>Translucent</td><td>Urine</td><td></td></tr><tr><td>Color of Urine</td><td>Brown color</td><td>Urine</td><td></td></tr></tbody></table></div>"
                },
                "title": "Specimen information"
              }
            ],
            "title": "Laboratory Report"
          },
          {
            "text": {
              "status": "generated",
              "div": "<div xmlns=\"http://www.w3.org/1999/xhtml\"><h3>Annotation</h3><table class=\"hl7__eu__lab__report\"><tr><th>Conclusion and Recommendations based on this report and previous findings known to us</th></tr><tr><td>The patient shows elevated creatinine, proteinuria, and abnormal urine findings (cloudy, brown, low specific gravity, bilirubinuria), suggesting possible renal dysfunction. Elevated chloride and low CO₂ may indicate mild metabolic acidosis. Blood glucose is normal, but HbA1c is unexpectedly low-potentially due to anemia or lab error. No evidence of urinary infection. Recommend further renal evaluation and correlation with clinical findings.</td></tr></table></div>"
            },
            "code": {
              "coding": [
                {
                  "system": "http://loinc.org",
                  "code": "48767-8",
                  "display": "Annotation comment"
                }
              ]
            },
            "title": "Annotation comment"
          }
        ],
        "status": "final",
        "subject": {
          "reference": "urn:uuid:e413f089-d1b0-488f-8ef7-ea27866681cc",
          "display": "Meaghan Neary"
        },
        "date": "2015-10-26T23:11:04Z",
        "title": "Laboratory Report",
        "confidentiality": "N"
      }
    },
    {
      "fullUrl": "urn:uuid:984588e4-622d-400d-a21c-1754f0d5b5b7",
      "resource": {
        "resourceType": "DiagnosticReport",
        "id": "984588e4-622d-400d-a21c-1754f0d5b5b7",
        "meta": {
          "profile": [
            "http://hl7.eu/fhir/laboratory/StructureDefinition/DiagnosticReport-eu-lab"
          ]
        },
        "identifier": [
          {
            "assigner": {
              "display": "HL7 Europe"
            },
            "system": "urn:oid:2.16.840.1.113883.2.51.999",
            "value": "856ee32e-5a59-4e4a-a226-196478357552"
          }
        ],
        "extension": [
          {
            "url": "http://hl7.org/fhir/5.0/StructureDefinition/extension-DiagnosticReport.composition",
            "valueReference": {
              "reference": "urn:uuid:9f07ecb6-39ba-454d-9b40-330ef4e7c602"
            }
          }
        ],
        "category": [
          {
            "coding": [
              {
                "code": "26436-6",
                "system": "http://loinc.org",
                "display": "Laboratory studies (set)"
              }
            ]
          }
        ],
        "specimen": [
          {
            "reference": "urn:uuid:22e633f3-e63f-42b0-9770-e1b7a3f2b286"
          },
          {
            "reference": "urn:uuid:49a0f571-6c18-4a2b-bb91-182d8617e587"
          },
          {
            "reference": "urn:uuid:9ccef9ba-5fc9-44c8-a270-e07d9e5d1476"
          }
        ],
        "result": [
          {
            "reference": "urn:uuid:3ebd2822-30ad-43de-89f8-fb88a3bba665"
          },
          {
            "reference": "urn:uuid:55e7da00-1030-4b42-bf53-ac2aa9a28c52"
          },
          {
            "reference": "urn:uuid:51f21a76-ba1d-423c-9024-89b8c5a3eb64"
          },
          {
            "reference": "urn:uuid:95f6313d-cf04-4f11-a094-ac8129e53f77"
          },
          {
            "reference": "urn:uuid:1f144865-2625-463a-a6a1-74cec6ada654"
          },
          {
            "reference": "urn:uuid:806e8db9-2c82-422a-9b16-08bc68e11250"
          },
          {
            "reference": "urn:uuid:db32ca05-0e18-4abd-965e-e78b49bd90b6"
          },
          {
            "reference": "urn:uuid:a7c67d6b-25df-43b9-bf1f-5c9fda7298f2"
          },
          {
            "reference": "urn:uuid:2bcf6e12-59b6-4f79-a56e-1187960decf1"
          },
          {
            "reference": "urn:uuid:1f5da97c-b9e9-48fc-b759-fffb4d0a31e3"
          },
          {
            "reference": "urn:uuid:14fab90a-d9b0-4794-a030-18dc52a4114d"
          },
          {
            "reference": "urn:uuid:ba7d7d81-b769-4d08-8434-75e8898d1c7e"
          },
          {
            "reference": "urn:uuid:21795028-9354-4625-af85-2023f98b6ea5"
          },
          {
            "reference": "urn:uuid:f22e23de-6591-4624-b5c5-0b024d1cec1b"
          },
          {
            "reference": "urn:uuid:b6300b90-32dd-4756-87b7-f7fdf9698736"
          },
          {
            "reference": "urn:uuid:603fcd81-557f-4db1-ac8b-d7530a845cb9"
          },
          {
            "reference": "urn:uuid:825bd71b-e7a3-433f-bcca-1a149f400141"
          },
          {
            "reference": "urn:uuid:44124f3a-cc20-432b-b629-b1e836caca5f"
          },
          {
            "reference": "urn:uuid:04710fbb-0ee4-402e-8e08-eabf4893f277"
          },
          {
            "reference": "urn:uuid:e36c8220-b7ba-4933-9096-cccdd1751b51"
          },
          {
            "reference": "urn:uuid:02b022a9-ef39-477e-81fa-403e93c7b83e"
          },
          {
            "reference": "urn:uuid:6d78adec-13a4-4ec7-92b8-6dced407ed33"
          },
          {
            "reference": "urn:uuid:91324b88-4091-43f2-93be-6b0af325e827"
          },
          {
            "reference": "urn:uuid:525f7e16-abf4-4b43-a533-289dd90645ef"
          },
          {
            "reference": "urn:uuid:07115f8d-cb3d-4fcf-bbd8-21c9eaec95d6"
          },
          {
            "reference": "urn:uuid:2d154181-f508-427a-a637-31dc5f20d666"
          },
          {
            "reference": "urn:uuid:23e6d6c0-bb7c-466b-b0a0-30f33c109153"
          },
          {
            "reference": "urn:uuid:19b2aaa5-285d-453f-8d98-f15021c06b05"
          },
          {
            "reference": "urn:uuid:ea5cb1a2-2c1f-4d91-814a-fd12b163d34e"
          },
          {
            "reference": "urn:uuid:e21cecad-43dd-4111-9932-3f84f7411be7"
          },
          {
            "reference": "urn:uuid:5be3f0b1-eaa3-4659-bfae-7432584dd280"
          },
          {
            "reference": "urn:uuid:b1ac26a6-6cf4-4804-aaa7-e66f9b4d52d3"
          },
          {
            "reference": "urn:uuid:0d59fb67-d04a-41b0-baf5-5ce06dbffccb"
          },
          {
            "reference": "urn:uuid:b386156e-a531-4674-93c4-7e8e32873139"
          }
        ],
        "status": "registered",
        "code": {
          "coding": [
            {
              "code": "11502-2",
              "system": "http://loinc.org",
              "display": "Laboratory report"
            }
          ]
        },
        "subject": {
          "reference": "urn:uuid:e413f089-d1b0-488f-8ef7-ea27866681cc",
          "display": "Meaghan Neary"
        }
      }
    },
    {
      "fullUrl": "urn:uuid:e413f089-d1b0-488f-8ef7-ea27866681cc",
      "resource": {
        "resourceType": "Patient",
        "id": "e413f089-d1b0-488f-8ef7-ea27866681cc",
        "meta": {
          "security": [
            {
              "system": "http://terminology.hl7.org/CodeSystem/v3-ActReason",
              "code": "HTEST"
            },
            {
              "system": "http://terminology.hl7.org/CodeSystem/v3-ActReason",
              "code": "TRAIN"
            }
          ],
          "tag": [
            {
              "system": "https://synderai.net/fhir/CodeSystem/tags",
              "code": "synthetic",
              "display": "SYNDERAI Synthetic data"
            }
          ],
          "profile": [
            "http://hl7.eu/fhir/base/StructureDefinition/patient-eu-core"
          ]
        },
        "identifier": [
          {
            "type": {
              "coding": [
                {
                  "code": "PT",
                  "system": "http://terminology.hl7.org/CodeSystem/v2-0203"
                }
              ]
            },
            "system": "http://ec.europa.eu/identifier/eci",
            "value": "1586-567257-8"
          },
          {
            "type": {
              "coding": [
                {
                  "code": "MR",
                  "system": "http://terminology.hl7.org/CodeSystem/v2-0203"
                }
              ]
            },
            "system": "http://local.setting.eu/identifier",
            "value": "443e6379-f231-b364-3ccb-644740a1aa2a"
          }
        ],
        "name": [
          {
            "family": "Neary"
          },
          {
            "given": [
              "Meaghan"
            ]
          },
          {
            "text": "Meaghan Neary"
          }
        ],
        "address": [
          {
            "line": [
              "64 Linskey Street"
            ],
            "use": "home",
            "type": "physical",
            "postalCode": "D02",
            "city": "Dublin",
            "country": "Ireland"
          }
        ],
        "telecom": [
          {
            "system": "phone",
            "value": "001-967-573-0911x465"
          }
        ],
        "extension": [
          {
            "url": "http://hl7.org/fhir/StructureDefinition/patient-nationality",
            "valueCodeableConcept": {
              "coding": [
                {
                  "code": "IE",
                  "system": "http://hl7.org/fhir/ValueSet/country"
                }
              ]
            }
          }
        ],
        "text": {
          "status": "generated",
          "div": "<div xmlns=\"http://www.w3.org/1999/xhtml\"><table class=\"hl7__ips\"><tr><td>Meaghan Neary</td><td>female</td><td>19-Dec-1960</td></tr></table></div>"
        },
        "gender": "female",
        "birthDate": "1960-12-19"
      }
    },
    {
      "fullUrl": "urn:uuid:963ffc05-ed38-485d-8ce7-bca360dadc1a",
      "resource": {
        "resourceType": "ServiceRequest",
        "id": "963ffc05-ed38-485d-8ce7-bca360dadc1a",
        "meta": {
          "profile": [
            "http://hl7.eu/fhir/laboratory/StructureDefinition/ServiceRequest-eu-lab"
          ]
        },
        "identifier": [
          {
            "system": "http://example.org",
            "value": "43f170e3-f0c9-48b0-9fe1-ccdce7541540"
          }
        ],
        "specimen": [
          {
            "reference": "urn:uuid:22e633f3-e63f-42b0-9770-e1b7a3f2b286"
          },
          {
            "reference": "urn:uuid:49a0f571-6c18-4a2b-bb91-182d8617e587"
          },
          {
            "reference": "urn:uuid:9ccef9ba-5fc9-44c8-a270-e07d9e5d1476"
          }
        ],
        "reasonCode": [
          {
            "coding": [
              {
                "code": "55822004",
                "system": "http://snomed.info/sct",
                "display": "Hyperlipidemia"
              }
            ]
          },
          {
            "coding": [
              {
                "code": "433144002",
                "system": "http://snomed.info/sct",
                "display": "Chronic kidney disease stage 3"
              }
            ]
          },
          {
            "coding": [
              {
                "code": "157141000119108",
                "system": "http://snomed.info/sct",
                "display": "Proteinuria due to type 2 diabetes mellitus"
              }
            ]
          },
          {
            "coding": [
              {
                "code": "431856006",
                "system": "http://snomed.info/sct",
                "display": "Chronic kidney disease stage 2"
              }
            ]
          },
          {
            "coding": [
              {
                "code": "90781000119102",
                "system": "http://snomed.info/sct",
                "display": "Microalbuminuria due to type 2 diabetes mellitus"
              }
            ]
          },
          {
            "coding": [
              {
                "code": "127013003",
                "system": "http://snomed.info/sct",
                "display": "Disorder of kidney due to diabetes mellitus"
              }
            ]
          },
          {
            "coding": [
              {
                "code": "431855005",
                "system": "http://snomed.info/sct",
                "display": "Chronic kidney disease stage 1"
              }
            ]
          },
          {
            "coding": [
              {
                "code": "237602007",
                "system": "http://snomed.info/sct",
                "display": "Metabolic syndrome X"
              }
            ]
          },
          {
            "coding": [
              {
                "code": "271737000",
                "system": "http://snomed.info/sct",
                "display": "Anemia"
              }
            ]
          },
          {
            "coding": [
              {
                "code": "15777000",
                "system": "http://snomed.info/sct",
                "display": "Prediabetes"
              }
            ]
          },
          {
            "coding": [
              {
                "code": "59621000",
                "system": "http://snomed.info/sct",
                "display": "Essential hypertension"
              }
            ]
          }
        ],
        "status": "active",
        "intent": "order",
        "code": {
          "coding": [
            {
              "code": "108252007",
              "system": "http://snomed.info/sct",
              "display": "Laboratory procedure"
            }
          ]
        },
        "subject": {
          "reference": "urn:uuid:e413f089-d1b0-488f-8ef7-ea27866681cc",
          "display": "Meaghan Neary"
        },
        "requester": {
          "reference": "urn:uuid:87f53235-c0ab-40cc-b8a2-d1c51556ed8d"
        }
      }
    },
    {
      "fullUrl": "urn:uuid:87f53235-c0ab-40cc-b8a2-d1c51556ed8d",
      "resource": {
        "resourceType": "PractitionerRole",
        "id": "87f53235-c0ab-40cc-b8a2-d1c51556ed8d",
        "meta": {
          "profile": [
            "http://hl7.eu/fhir/base/StructureDefinition/practitionerRole-eu"
          ]
        },
        "text": {
          "status": "generated",
          "div": "<div xmlns=\"http://www.w3.org/1999/xhtml\">Provider Role Id: 87f53235-c0ab-40cc-b8a2-d1c51556ed8d</div>"
        },
        "organization": {
          "reference": "urn:uuid:1e504a5a-9968-41e0-8e43-243aabdc08cd"
        }
      }
    },
    {
      "fullUrl": "urn:uuid:1e504a5a-9968-41e0-8e43-243aabdc08cd",
      "resource": {
        "resourceType": "Organization",
        "id": "1e504a5a-9968-41e0-8e43-243aabdc08cd",
        "meta": {
          "profile": [
            "http://hl7.eu/fhir/base/StructureDefinition/organization-eu"
          ]
        },
        "identifier": [
          {
            "assigner": {
              "display": "HL7 Europe"
            },
            "system": "urn:oid:2.16.840.1.113883.2.51.999",
            "value": "d17ece4e-4bd7-4d68-8ecd-5c67c3fd0c8c"
          }
        ],
        "address": [
          {
            "line": [
              "Parnell Square West nan"
            ],
            "city": "Dublin",
            "postalCode": "D01",
            "country": "Ireland"
          }
        ],
        "text": {
          "status": "generated",
          "div": "<div xmlns=\"http://www.w3.org/1999/xhtml\">Provider Organization: Rotunda Hospital</div>"
        },
        "name": "Rotunda Hospital"
      }
    },
    {
      "fullUrl": "urn:uuid:22e633f3-e63f-42b0-9770-e1b7a3f2b286",
      "resource": {
        "resourceType": "Specimen",
        "id": "22e633f3-e63f-42b0-9770-e1b7a3f2b286",
        "meta": {
          "profile": [
            "http://hl7.eu/fhir/laboratory/StructureDefinition/Specimen-eu-lab"
          ]
        },
        "collection": {
          "collectedDateTime": "2015-10-26"
        },
        "text": {
          "status": "generated",
          "div": "<div xmlns=\"http://www.w3.org/1999/xhtml\"><table class=\"hl7__eu__lab__report\"><tr><th>Specimen</th><th>Collection Date</th></tr><tr><td>Acellular blood (serum or plasma) specimen</td><td><span class=\"nb\">26-Oct-2015</span></td></tr></table></div>"
        },
        "type": {
          "coding": [
            {
              "code": "122592007",
              "system": "http://snomed.info/sct",
              "display": "Acellular blood (serum or plasma) specimen"
            }
          ]
        }
      }
    },
    {
      "fullUrl": "urn:uuid:49a0f571-6c18-4a2b-bb91-182d8617e587",
      "resource": {
        "resourceType": "Specimen",
        "id": "49a0f571-6c18-4a2b-bb91-182d8617e587",
        "meta": {
          "profile": [
            "http://hl7.eu/fhir/laboratory/StructureDefinition/Specimen-eu-lab"
          ]
        },
        "collection": {
          "collectedDateTime": "2015-10-26"
        },
        "text": {
          "status": "generated",
          "div": "<div xmlns=\"http://www.w3.org/1999/xhtml\"><table class=\"hl7__eu__lab__report\"><tr><th>Specimen</th><th>Collection Date</th></tr><tr><td>Urine specimen</td><td><span class=\"nb\">26-Oct-2015</span></td></tr></table></div>"
        },
        "type": {
          "coding": [
            {
              "code": "122575003",
              "system": "http://snomed.info/sct",
              "display": "Urine specimen"
            }
          ]
        }
      }
    },
    {
      "fullUrl": "urn:uuid:9ccef9ba-5fc9-44c8-a270-e07d9e5d1476",
      "resource": {
        "resourceType": "Specimen",
        "id": "9ccef9ba-5fc9-44c8-a270-e07d9e5d1476",
        "meta": {
          "profile": [
            "http://hl7.eu/fhir/laboratory/StructureDefinition/Specimen-eu-lab"
          ]
        },
        "collection": {
          "collectedDateTime": "2015-10-26"
        },
        "text": {
          "status": "generated",
          "div": "<div xmlns=\"http://www.w3.org/1999/xhtml\"><table class=\"hl7__eu__lab__report\"><tr><th>Specimen</th><th>Collection Date</th></tr><tr><td>Whole blood specimen (specimen)</td><td><span class=\"nb\">26-Oct-2015</span></td></tr></table></div>"
        },
        "type": {
          "coding": [
            {
              "code": "258580003",
              "system": "http://snomed.info/sct",
              "display": "Whole blood specimen (specimen)"
            }
          ]
        }
      }
    },
    {
      "fullUrl": "urn:uuid:3ebd2822-30ad-43de-89f8-fb88a3bba665",
      "resource": {
        "resourceType": "Observation",
        "id": "3ebd2822-30ad-43de-89f8-fb88a3bba665",
        "meta": {
          "profile": [
            "http://hl7.eu/fhir/laboratory/StructureDefinition/Observation-resultslab-eu-lab"
          ]
        },
        "performer": [
          {
            "display": "The Central European Lab"
          }
        ],
        "category": [
          {
            "coding": [
              {
                "system": "http://terminology.hl7.org/CodeSystem/observation-category",
                "code": "laboratory"
              }
            ]
          }
        ],
        "code": {
          "coding": [
            {
              "code": "2345-7",
              "system": "http://loinc.org",
              "display": "Glucose [Mass/volume] in Serum or Plasma"
            }
          ],
          "text": "Glucose [Mass/volume] in Serum or Plasma"
        },
        "valueQuantity": {
          "system": "http://unitsofmeasure.org",
          "value": 80.5,
          "unit": "mg/dL",
          "code": "mg/dL"
        },
        "referenceRange": [
          {
            "low": {
              "value": 70,
              "code": "mg/dL",
              "system": "http://unitsofmeasure.org"
            }
          },
          {
            "high": {
              "value": 99,
              "code": "mg/dL",
              "system": "http://unitsofmeasure.org"
            }
          }
        ],
        "text": {
          "status": "generated",
          "div": "<div xmlns=\"http://www.w3.org/1999/xhtml\"><table class=\"hl7__eu__lab__report\"><tr><th>Test</th><th>26-Oct-2015</th><th>Reference&#xA0;Range</th><th>Unit</th></tr><tr><td>Glucose [Mass/volume] in Serum or Plasma</td><td>80.5</td><td>70 - 99</td><td></td><td>mg/dL</td></tr></table></div>"
        },
        "status": "final",
        "subject": {
          "reference": "urn:uuid:e413f089-d1b0-488f-8ef7-ea27866681cc",
          "display": "Meaghan Neary"
        },
        "effectiveDateTime": "2015-10-26T22:11:04Z",
        "specimen": {
          "reference": "urn:uuid:22e633f3-e63f-42b0-9770-e1b7a3f2b286"
        }
      }
    },
    {
      "fullUrl": "urn:uuid:55e7da00-1030-4b42-bf53-ac2aa9a28c52",
      "resource": {
        "resourceType": "Observation",
        "id": "55e7da00-1030-4b42-bf53-ac2aa9a28c52",
        "meta": {
          "profile": [
            "http://hl7.eu/fhir/laboratory/StructureDefinition/Observation-resultslab-eu-lab"
          ]
        },
        "performer": [
          {
            "display": "The Central European Lab"
          }
        ],
        "category": [
          {
            "coding": [
              {
                "system": "http://terminology.hl7.org/CodeSystem/observation-category",
                "code": "laboratory"
              }
            ]
          }
        ],
        "code": {
          "coding": [
            {
              "code": "3094-0",
              "system": "http://loinc.org",
              "display": "Urea nitrogen [Mass/volume] in Serum or Plasma"
            }
          ],
          "text": "Urea nitrogen [Mass/volume] in Serum or Plasma"
        },
        "valueQuantity": {
          "system": "http://unitsofmeasure.org",
          "value": 12.1,
          "unit": "mg/dL",
          "code": "mg/dL"
        },
        "referenceRange": [
          {
            "low": {
              "value": 7,
              "code": "mg/dL",
              "system": "http://unitsofmeasure.org"
            }
          },
          {
            "high": {
              "value": 50,
              "code": "mg/dL",
              "system": "http://unitsofmeasure.org"
            }
          }
        ],
        "text": {
          "status": "generated",
          "div": "<div xmlns=\"http://www.w3.org/1999/xhtml\"><table class=\"hl7__eu__lab__report\"><tr><th>Test</th><th>26-Oct-2015</th><th>Reference&#xA0;Range</th><th>Unit</th></tr><tr><td>Urea nitrogen [Mass/volume] in Serum or Plasma</td><td>12.1</td><td>7 - 50</td><td></td><td>mg/dL</td></tr></table></div>"
        },
        "status": "final",
        "subject": {
          "reference": "urn:uuid:e413f089-d1b0-488f-8ef7-ea27866681cc",
          "display": "Meaghan Neary"
        },
        "effectiveDateTime": "2015-10-26T22:11:04Z",
        "specimen": {
          "reference": "urn:uuid:22e633f3-e63f-42b0-9770-e1b7a3f2b286"
        }
      }
    },
    {
      "fullUrl": "urn:uuid:51f21a76-ba1d-423c-9024-89b8c5a3eb64",
      "resource": {
        "resourceType": "Observation",
        "id": "51f21a76-ba1d-423c-9024-89b8c5a3eb64",
        "meta": {
          "profile": [
            "http://hl7.eu/fhir/laboratory/StructureDefinition/Observation-resultslab-eu-lab"
          ]
        },
        "performer": [
          {
            "display": "The Central European Lab"
          }
        ],
        "category": [
          {
            "coding": [
              {
                "system": "http://terminology.hl7.org/CodeSystem/observation-category",
                "code": "laboratory"
              }
            ]
          }
        ],
        "code": {
          "coding": [
            {
              "code": "2160-0",
              "system": "http://loinc.org",
              "display": "Creatinine [Mass/volume] in Serum or Plasma"
            }
          ],
          "text": "Creatinine [Mass/volume] in Serum or Plasma"
        },
        "valueQuantity": {
          "system": "http://unitsofmeasure.org",
          "value": 2,
          "unit": "mg/dL",
          "code": "mg/dL"
        },
        "referenceRange": [
          {
            "low": {
              "value": 0.6,
              "code": "mg/dL",
              "system": "http://unitsofmeasure.org"
            }
          },
          {
            "high": {
              "value": 1.1,
              "code": "mg/dL",
              "system": "http://unitsofmeasure.org"
            }
          }
        ],
        "interpretation": [
          {
            "coding": [
              {
                "code": "H",
                "system": "http://terminology.hl7.org/CodeSystem/v3-ObservationInterpretation",
                "display": "High"
              }
            ]
          }
        ],
        "text": {
          "status": "generated",
          "div": "<div xmlns=\"http://www.w3.org/1999/xhtml\"><table class=\"hl7__eu__lab__report\"><tr><th>Test</th><th>26-Oct-2015</th><th>Reference&#xA0;Range</th><th>Unit</th></tr><tr><td>Creatinine [Mass/volume] in Serum or Plasma</td><td>2.0</td><td>0.6 - 1.1</td><td>H</td><td>mg/dL</td></tr></table></div>"
        },
        "status": "final",
        "subject": {
          "reference": "urn:uuid:e413f089-d1b0-488f-8ef7-ea27866681cc",
          "display": "Meaghan Neary"
        },
        "effectiveDateTime": "2015-10-26T22:11:04Z",
        "specimen": {
          "reference": "urn:uuid:22e633f3-e63f-42b0-9770-e1b7a3f2b286"
        }
      }
    },
    {
      "fullUrl": "urn:uuid:95f6313d-cf04-4f11-a094-ac8129e53f77",
      "resource": {
        "resourceType": "Observation",
        "id": "95f6313d-cf04-4f11-a094-ac8129e53f77",
        "meta": {
          "profile": [
            "http://hl7.eu/fhir/laboratory/StructureDefinition/Observation-resultslab-eu-lab"
          ]
        },
        "performer": [
          {
            "display": "The Central European Lab"
          }
        ],
        "category": [
          {
            "coding": [
              {
                "system": "http://terminology.hl7.org/CodeSystem/observation-category",
                "code": "laboratory"
              }
            ]
          }
        ],
        "code": {
          "coding": [
            {
              "code": "17861-6",
              "system": "http://loinc.org",
              "display": "Calcium [Mass/volume] in Serum or Plasma"
            }
          ],
          "text": "Calcium [Mass/volume] in Serum or Plasma"
        },
        "valueQuantity": {
          "system": "http://unitsofmeasure.org",
          "value": 10.1,
          "unit": "mg/dL",
          "code": "mg/dL"
        },
        "referenceRange": [
          {
            "low": {
              "value": 8.6,
              "code": "mg/dL",
              "system": "http://unitsofmeasure.org"
            }
          },
          {
            "high": {
              "value": 10.4,
              "code": "mg/dL",
              "system": "http://unitsofmeasure.org"
            }
          }
        ],
        "text": {
          "status": "generated",
          "div": "<div xmlns=\"http://www.w3.org/1999/xhtml\"><table class=\"hl7__eu__lab__report\"><tr><th>Test</th><th>26-Oct-2015</th><th>Reference&#xA0;Range</th><th>Unit</th></tr><tr><td>Calcium [Mass/volume] in Serum or Plasma</td><td>10.1</td><td>8.6 - 10.4</td><td></td><td>mg/dL</td></tr></table></div>"
        },
        "status": "final",
        "subject": {
          "reference": "urn:uuid:e413f089-d1b0-488f-8ef7-ea27866681cc",
          "display": "Meaghan Neary"
        },
        "effectiveDateTime": "2015-10-26T22:11:04Z",
        "specimen": {
          "reference": "urn:uuid:22e633f3-e63f-42b0-9770-e1b7a3f2b286"
        }
      }
    },
    {
      "fullUrl": "urn:uuid:1f144865-2625-463a-a6a1-74cec6ada654",
      "resource": {
        "resourceType": "Observation",
        "id": "1f144865-2625-463a-a6a1-74cec6ada654",
        "meta": {
          "profile": [
            "http://hl7.eu/fhir/laboratory/StructureDefinition/Observation-resultslab-eu-lab"
          ]
        },
        "performer": [
          {
            "display": "The Central European Lab"
          }
        ],
        "category": [
          {
            "coding": [
              {
                "system": "http://terminology.hl7.org/CodeSystem/observation-category",
                "code": "laboratory"
              }
            ]
          }
        ],
        "code": {
          "coding": [
            {
              "code": "2951-2",
              "system": "http://loinc.org",
              "display": "Sodium [Moles/volume] in Serum or Plasma"
            }
          ],
          "text": "Sodium [Moles/volume] in Serum or Plasma"
        },
        "valueQuantity": {
          "system": "http://unitsofmeasure.org",
          "value": 136.9,
          "unit": "mmol/L",
          "code": "mmol/L"
        },
        "referenceRange": [
          {
            "low": {
              "value": 135,
              "code": "mmol/L",
              "system": "http://unitsofmeasure.org"
            }
          },
          {
            "high": {
              "value": 145,
              "code": "mmol/L",
              "system": "http://unitsofmeasure.org"
            }
          }
        ],
        "text": {
          "status": "generated",
          "div": "<div xmlns=\"http://www.w3.org/1999/xhtml\"><table class=\"hl7__eu__lab__report\"><tr><th>Test</th><th>26-Oct-2015</th><th>Reference&#xA0;Range</th><th>Unit</th></tr><tr><td>Sodium [Moles/volume] in Serum or Plasma</td><td>136.9</td><td>135 - 145</td><td></td><td>mmol/L</td></tr></table></div>"
        },
        "status": "final",
        "subject": {
          "reference": "urn:uuid:e413f089-d1b0-488f-8ef7-ea27866681cc",
          "display": "Meaghan Neary"
        },
        "effectiveDateTime": "2015-10-26T22:11:04Z",
        "specimen": {
          "reference": "urn:uuid:22e633f3-e63f-42b0-9770-e1b7a3f2b286"
        }
      }
    },
    {
      "fullUrl": "urn:uuid:806e8db9-2c82-422a-9b16-08bc68e11250",
      "resource": {
        "resourceType": "Observation",
        "id": "806e8db9-2c82-422a-9b16-08bc68e11250",
        "meta": {
          "profile": [
            "http://hl7.eu/fhir/laboratory/StructureDefinition/Observation-resultslab-eu-lab"
          ]
        },
        "performer": [
          {
            "display": "The Central European Lab"
          }
        ],
        "category": [
          {
            "coding": [
              {
                "system": "http://terminology.hl7.org/CodeSystem/observation-category",
                "code": "laboratory"
              }
            ]
          }
        ],
        "code": {
          "coding": [
            {
              "code": "2823-3",
              "system": "http://loinc.org",
              "display": "Potassium [Moles/volume] in Serum or Plasma"
            }
          ],
          "text": "Potassium [Moles/volume] in Serum or Plasma"
        },
        "valueQuantity": {
          "system": "http://unitsofmeasure.org",
          "value": 4.6,
          "unit": "mmol/L",
          "code": "mmol/L"
        },
        "referenceRange": [
          {
            "low": {
              "value": 3.5,
              "code": "mmol/L",
              "system": "http://unitsofmeasure.org"
            }
          },
          {
            "high": {
              "value": 5.1,
              "code": "mmol/L",
              "system": "http://unitsofmeasure.org"
            }
          }
        ],
        "text": {
          "status": "generated",
          "div": "<div xmlns=\"http://www.w3.org/1999/xhtml\"><table class=\"hl7__eu__lab__report\"><tr><th>Test</th><th>26-Oct-2015</th><th>Reference&#xA0;Range</th><th>Unit</th></tr><tr><td>Potassium [Moles/volume] in Serum or Plasma</td><td>4.6</td><td>3.5 - 5.1</td><td></td><td>mmol/L</td></tr></table></div>"
        },
        "status": "final",
        "subject": {
          "reference": "urn:uuid:e413f089-d1b0-488f-8ef7-ea27866681cc",
          "display": "Meaghan Neary"
        },
        "effectiveDateTime": "2015-10-26T22:11:04Z",
        "specimen": {
          "reference": "urn:uuid:22e633f3-e63f-42b0-9770-e1b7a3f2b286"
        }
      }
    },
    {
      "fullUrl": "urn:uuid:db32ca05-0e18-4abd-965e-e78b49bd90b6",
      "resource": {
        "resourceType": "Observation",
        "id": "db32ca05-0e18-4abd-965e-e78b49bd90b6",
        "meta": {
          "profile": [
            "http://hl7.eu/fhir/laboratory/StructureDefinition/Observation-resultslab-eu-lab"
          ]
        },
        "performer": [
          {
            "display": "The Central European Lab"
          }
        ],
        "category": [
          {
            "coding": [
              {
                "system": "http://terminology.hl7.org/CodeSystem/observation-category",
                "code": "laboratory"
              }
            ]
          }
        ],
        "code": {
          "coding": [
            {
              "code": "2075-0",
              "system": "http://loinc.org",
              "display": "Chloride [Moles/volume] in Serum or Plasma"
            }
          ],
          "text": "Chloride [Moles/volume] in Serum or Plasma"
        },
        "valueQuantity": {
          "system": "http://unitsofmeasure.org",
          "value": 108.9,
          "unit": "mmol/L",
          "code": "mmol/L"
        },
        "referenceRange": [
          {
            "low": {
              "value": 98,
              "code": "mmol/L",
              "system": "http://unitsofmeasure.org"
            }
          },
          {
            "high": {
              "value": 108,
              "code": "mmol/L",
              "system": "http://unitsofmeasure.org"
            }
          }
        ],
        "interpretation": [
          {
            "coding": [
              {
                "code": "H",
                "system": "http://terminology.hl7.org/CodeSystem/v3-ObservationInterpretation",
                "display": "High"
              }
            ]
          }
        ],
        "text": {
          "status": "generated",
          "div": "<div xmlns=\"http://www.w3.org/1999/xhtml\"><table class=\"hl7__eu__lab__report\"><tr><th>Test</th><th>26-Oct-2015</th><th>Reference&#xA0;Range</th><th>Unit</th></tr><tr><td>Chloride [Moles/volume] in Serum or Plasma</td><td>108.9</td><td>98 - 108</td><td>H</td><td>mmol/L</td></tr></table></div>"
        },
        "status": "final",
        "subject": {
          "reference": "urn:uuid:e413f089-d1b0-488f-8ef7-ea27866681cc",
          "display": "Meaghan Neary"
        },
        "effectiveDateTime": "2015-10-26T22:11:04Z",
        "specimen": {
          "reference": "urn:uuid:22e633f3-e63f-42b0-9770-e1b7a3f2b286"
        }
      }
    },
    {
      "fullUrl": "urn:uuid:a7c67d6b-25df-43b9-bf1f-5c9fda7298f2",
      "resource": {
        "resourceType": "Observation",
        "id": "a7c67d6b-25df-43b9-bf1f-5c9fda7298f2",
        "meta": {
          "profile": [
            "http://hl7.eu/fhir/laboratory/StructureDefinition/Observation-resultslab-eu-lab"
          ]
        },
        "performer": [
          {
            "display": "The Central European Lab"
          }
        ],
        "category": [
          {
            "coding": [
              {
                "system": "http://terminology.hl7.org/CodeSystem/observation-category",
                "code": "laboratory"
              }
            ]
          }
        ],
        "code": {
          "coding": [
            {
              "code": "2028-9",
              "system": "http://loinc.org",
              "display": "Carbon dioxide, total [Moles/volume] in Serum or Plasma"
            }
          ],
          "text": "Carbon dioxide, total [Moles/volume] in Serum or Plasma"
        },
        "valueQuantity": {
          "system": "http://unitsofmeasure.org",
          "value": 20.7,
          "unit": "mmol/L",
          "code": "mmol/L"
        },
        "referenceRange": [
          {
            "low": {
              "value": 22,
              "code": "mmol/L",
              "system": "http://unitsofmeasure.org"
            }
          },
          {
            "high": {
              "value": 32,
              "code": "mmol/L",
              "system": "http://unitsofmeasure.org"
            }
          }
        ],
        "interpretation": [
          {
            "coding": [
              {
                "code": "L",
                "system": "http://terminology.hl7.org/CodeSystem/v3-ObservationInterpretation",
                "display": "Low"
              }
            ]
          }
        ],
        "text": {
          "status": "generated",
          "div": "<div xmlns=\"http://www.w3.org/1999/xhtml\"><table class=\"hl7__eu__lab__report\"><tr><th>Test</th><th>26-Oct-2015</th><th>Reference&#xA0;Range</th><th>Unit</th></tr><tr><td>Carbon dioxide, total [Moles/volume] in Serum or Plasma</td><td>20.7</td><td>22 - 32</td><td>L</td><td>mmol/L</td></tr></table></div>"
        },
        "status": "final",
        "subject": {
          "reference": "urn:uuid:e413f089-d1b0-488f-8ef7-ea27866681cc",
          "display": "Meaghan Neary"
        },
        "effectiveDateTime": "2015-10-26T22:11:04Z",
        "specimen": {
          "reference": "urn:uuid:22e633f3-e63f-42b0-9770-e1b7a3f2b286"
        }
      }
    },
    {
      "fullUrl": "urn:uuid:2bcf6e12-59b6-4f79-a56e-1187960decf1",
      "resource": {
        "resourceType": "Observation",
        "id": "2bcf6e12-59b6-4f79-a56e-1187960decf1",
        "meta": {
          "profile": [
            "http://hl7.eu/fhir/laboratory/StructureDefinition/Observation-resultslab-eu-lab"
          ]
        },
        "performer": [
          {
            "display": "The Central European Lab"
          }
        ],
        "category": [
          {
            "coding": [
              {
                "system": "http://terminology.hl7.org/CodeSystem/observation-category",
                "code": "laboratory"
              }
            ]
          }
        ],
        "code": {
          "coding": [
            {
              "code": "5767-9",
              "system": "http://loinc.org",
              "display": "Appearance of Urine"
            }
          ],
          "text": "Appearance of Urine"
        },
        "text": {
          "status": "generated",
          "div": "<div xmlns=\"http://www.w3.org/1999/xhtml\"><table class=\"hl7__eu__lab__report\"><tr><th>Test</th><th>26-Oct-2015</th><th>Reference&#xA0;Range</th><th>Unit</th></tr><tr><td>Appearance of Urine</td></tr></table></div>"
        },
        "status": "final",
        "subject": {
          "reference": "urn:uuid:e413f089-d1b0-488f-8ef7-ea27866681cc",
          "display": "Meaghan Neary"
        },
        "effectiveDateTime": "2015-10-26T22:11:04Z",
        "specimen": {
          "reference": "urn:uuid:49a0f571-6c18-4a2b-bb91-182d8617e587"
        }
      }
    },
    {
      "fullUrl": "urn:uuid:1f5da97c-b9e9-48fc-b759-fffb4d0a31e3",
      "resource": {
        "resourceType": "Observation",
        "id": "1f5da97c-b9e9-48fc-b759-fffb4d0a31e3",
        "meta": {
          "profile": [
            "http://hl7.eu/fhir/laboratory/StructureDefinition/Observation-resultslab-eu-lab"
          ]
        },
        "performer": [
          {
            "display": "The Central European Lab"
          }
        ],
        "category": [
          {
            "coding": [
              {
                "system": "http://terminology.hl7.org/CodeSystem/observation-category",
                "code": "laboratory"
              }
            ]
          }
        ],
        "code": {
          "coding": [
            {
              "code": "34533-0",
              "system": "http://loinc.org",
              "display": "Odor of Urine"
            }
          ],
          "text": "Odor of Urine"
        },
        "text": {
          "status": "generated",
          "div": "<div xmlns=\"http://www.w3.org/1999/xhtml\"><table class=\"hl7__eu__lab__report\"><tr><th>Test</th><th>26-Oct-2015</th><th>Reference&#xA0;Range</th><th>Unit</th></tr><tr><td>Odor of Urine</td></tr></table></div>"
        },
        "status": "final",
        "subject": {
          "reference": "urn:uuid:e413f089-d1b0-488f-8ef7-ea27866681cc",
          "display": "Meaghan Neary"
        },
        "effectiveDateTime": "2015-10-26T22:11:04Z",
        "specimen": {
          "reference": "urn:uuid:49a0f571-6c18-4a2b-bb91-182d8617e587"
        }
      }
    },
    {
      "fullUrl": "urn:uuid:14fab90a-d9b0-4794-a030-18dc52a4114d",
      "resource": {
        "resourceType": "Observation",
        "id": "14fab90a-d9b0-4794-a030-18dc52a4114d",
        "meta": {
          "profile": [
            "http://hl7.eu/fhir/laboratory/StructureDefinition/Observation-resultslab-eu-lab"
          ]
        },
        "performer": [
          {
            "display": "The Central European Lab"
          }
        ],
        "category": [
          {
            "coding": [
              {
                "system": "http://terminology.hl7.org/CodeSystem/observation-category",
                "code": "laboratory"
              }
            ]
          }
        ],
        "code": {
          "coding": [
            {
              "code": "32167-9",
              "system": "http://loinc.org",
              "display": "Clarity of Urine"
            }
          ],
          "text": "Clarity of Urine"
        },
        "text": {
          "status": "generated",
          "div": "<div xmlns=\"http://www.w3.org/1999/xhtml\"><table class=\"hl7__eu__lab__report\"><tr><th>Test</th><th>26-Oct-2015</th><th>Reference&#xA0;Range</th><th>Unit</th></tr><tr><td>Clarity of Urine</td></tr></table></div>"
        },
        "status": "final",
        "subject": {
          "reference": "urn:uuid:e413f089-d1b0-488f-8ef7-ea27866681cc",
          "display": "Meaghan Neary"
        },
        "effectiveDateTime": "2015-10-26T22:11:04Z",
        "specimen": {
          "reference": "urn:uuid:49a0f571-6c18-4a2b-bb91-182d8617e587"
        }
      }
    },
    {
      "fullUrl": "urn:uuid:ba7d7d81-b769-4d08-8434-75e8898d1c7e",
      "resource": {
        "resourceType": "Observation",
        "id": "ba7d7d81-b769-4d08-8434-75e8898d1c7e",
        "meta": {
          "profile": [
            "http://hl7.eu/fhir/laboratory/StructureDefinition/Observation-resultslab-eu-lab"
          ]
        },
        "performer": [
          {
            "display": "The Central European Lab"
          }
        ],
        "category": [
          {
            "coding": [
              {
                "system": "http://terminology.hl7.org/CodeSystem/observation-category",
                "code": "laboratory"
              }
            ]
          }
        ],
        "code": {
          "coding": [
            {
              "code": "5778-6",
              "system": "http://loinc.org",
              "display": "Color of Urine"
            }
          ],
          "text": "Color of Urine"
        },
        "text": {
          "status": "generated",
          "div": "<div xmlns=\"http://www.w3.org/1999/xhtml\"><table class=\"hl7__eu__lab__report\"><tr><th>Test</th><th>26-Oct-2015</th><th>Reference&#xA0;Range</th><th>Unit</th></tr><tr><td>Color of Urine</td></tr></table></div>"
        },
        "status": "final",
        "subject": {
          "reference": "urn:uuid:e413f089-d1b0-488f-8ef7-ea27866681cc",
          "display": "Meaghan Neary"
        },
        "effectiveDateTime": "2015-10-26T22:11:04Z",
        "specimen": {
          "reference": "urn:uuid:49a0f571-6c18-4a2b-bb91-182d8617e587"
        }
      }
    },
    {
      "fullUrl": "urn:uuid:21795028-9354-4625-af85-2023f98b6ea5",
      "resource": {
        "resourceType": "Observation",
        "id": "21795028-9354-4625-af85-2023f98b6ea5",
        "meta": {
          "profile": [
            "http://hl7.eu/fhir/laboratory/StructureDefinition/Observation-resultslab-eu-lab"
          ]
        },
        "performer": [
          {
            "display": "The Central European Lab"
          }
        ],
        "category": [
          {
            "coding": [
              {
                "system": "http://terminology.hl7.org/CodeSystem/observation-category",
                "code": "laboratory"
              }
            ]
          }
        ],
        "code": {
          "coding": [
            {
              "code": "5792-7",
              "system": "http://loinc.org",
              "display": "Glucose [Mass/volume] in Urine by Test strip"
            }
          ],
          "text": "Glucose [Mass/volume] in Urine by Test strip"
        },
        "valueQuantity": {
          "system": "http://unitsofmeasure.org",
          "value": 1.7,
          "unit": "mg/dL",
          "code": "mg/dL"
        },
        "referenceRange": [
          {
            "low": {
              "value": 0.8,
              "code": "mg/dL",
              "system": "http://unitsofmeasure.org"
            }
          },
          {
            "high": {
              "value": 0,
              "code": "mg/dL",
              "system": "http://unitsofmeasure.org"
            }
          }
        ],
        "interpretation": [
          {
            "coding": [
              {
                "code": "H",
                "system": "http://terminology.hl7.org/CodeSystem/v3-ObservationInterpretation",
                "display": "High"
              }
            ]
          }
        ],
        "text": {
          "status": "generated",
          "div": "<div xmlns=\"http://www.w3.org/1999/xhtml\"><table class=\"hl7__eu__lab__report\"><tr><th>Test</th><th>26-Oct-2015</th><th>Reference&#xA0;Range</th><th>Unit</th></tr><tr><td>Glucose [Mass/volume] in Urine by Test strip</td><td>1.7</td><td>0.8 - 0</td><td>H</td><td>mg/dL</td></tr></table></div>"
        },
        "status": "final",
        "subject": {
          "reference": "urn:uuid:e413f089-d1b0-488f-8ef7-ea27866681cc",
          "display": "Meaghan Neary"
        },
        "effectiveDateTime": "2015-10-26T22:11:04Z",
        "specimen": {
          "reference": "urn:uuid:49a0f571-6c18-4a2b-bb91-182d8617e587"
        }
      }
    },
    {
      "fullUrl": "urn:uuid:f22e23de-6591-4624-b5c5-0b024d1cec1b",
      "resource": {
        "resourceType": "Observation",
        "id": "f22e23de-6591-4624-b5c5-0b024d1cec1b",
        "meta": {
          "profile": [
            "http://hl7.eu/fhir/laboratory/StructureDefinition/Observation-resultslab-eu-lab"
          ]
        },
        "performer": [
          {
            "display": "The Central European Lab"
          }
        ],
        "category": [
          {
            "coding": [
              {
                "system": "http://terminology.hl7.org/CodeSystem/observation-category",
                "code": "laboratory"
              }
            ]
          }
        ],
        "code": {
          "coding": [
            {
              "code": "25428-4",
              "system": "http://loinc.org",
              "display": "Glucose [Presence] in Urine by Test strip"
            }
          ],
          "text": "Glucose [Presence] in Urine by Test strip"
        },
        "text": {
          "status": "generated",
          "div": "<div xmlns=\"http://www.w3.org/1999/xhtml\"><table class=\"hl7__eu__lab__report\"><tr><th>Test</th><th>26-Oct-2015</th><th>Reference&#xA0;Range</th><th>Unit</th></tr><tr><td>Glucose [Presence] in Urine by Test strip</td></tr></table></div>"
        },
        "status": "final",
        "subject": {
          "reference": "urn:uuid:e413f089-d1b0-488f-8ef7-ea27866681cc",
          "display": "Meaghan Neary"
        },
        "effectiveDateTime": "2015-10-26T22:11:04Z",
        "specimen": {
          "reference": "urn:uuid:49a0f571-6c18-4a2b-bb91-182d8617e587"
        }
      }
    },
    {
      "fullUrl": "urn:uuid:b6300b90-32dd-4756-87b7-f7fdf9698736",
      "resource": {
        "resourceType": "Observation",
        "id": "b6300b90-32dd-4756-87b7-f7fdf9698736",
        "meta": {
          "profile": [
            "http://hl7.eu/fhir/laboratory/StructureDefinition/Observation-resultslab-eu-lab"
          ]
        },
        "performer": [
          {
            "display": "The Central European Lab"
          }
        ],
        "category": [
          {
            "coding": [
              {
                "system": "http://terminology.hl7.org/CodeSystem/observation-category",
                "code": "laboratory"
              }
            ]
          }
        ],
        "code": {
          "coding": [
            {
              "code": "20505-4",
              "system": "http://loinc.org",
              "display": "Bilirubin.total [Mass/volume] in Urine by Test strip"
            }
          ],
          "text": "Bilirubin.total [Mass/volume] in Urine by Test strip"
        },
        "valueQuantity": {
          "system": "http://unitsofmeasure.org",
          "value": 1.5,
          "unit": "mg/dL",
          "code": "mg/dL"
        },
        "referenceRange": [
          {
            "low": {
              "value": 0,
              "code": "mg/dL",
              "system": "http://unitsofmeasure.org"
            }
          },
          {
            "high": {
              "value": 1,
              "code": "mg/dL",
              "system": "http://unitsofmeasure.org"
            }
          }
        ],
        "interpretation": [
          {
            "coding": [
              {
                "code": "H",
                "system": "http://terminology.hl7.org/CodeSystem/v3-ObservationInterpretation",
                "display": "High"
              }
            ]
          }
        ],
        "text": {
          "status": "generated",
          "div": "<div xmlns=\"http://www.w3.org/1999/xhtml\"><table class=\"hl7__eu__lab__report\"><tr><th>Test</th><th>26-Oct-2015</th><th>Reference&#xA0;Range</th><th>Unit</th></tr><tr><td>Bilirubin.total [Mass/volume] in Urine by Test strip</td><td>1.5</td><td>0 - 1</td><td>H</td><td>mg/dL</td></tr></table></div>"
        },
        "status": "final",
        "subject": {
          "reference": "urn:uuid:e413f089-d1b0-488f-8ef7-ea27866681cc",
          "display": "Meaghan Neary"
        },
        "effectiveDateTime": "2015-10-26T22:11:04Z",
        "specimen": {
          "reference": "urn:uuid:49a0f571-6c18-4a2b-bb91-182d8617e587"
        }
      }
    },
    {
      "fullUrl": "urn:uuid:603fcd81-557f-4db1-ac8b-d7530a845cb9",
      "resource": {
        "resourceType": "Observation",
        "id": "603fcd81-557f-4db1-ac8b-d7530a845cb9",
        "meta": {
          "profile": [
            "http://hl7.eu/fhir/laboratory/StructureDefinition/Observation-resultslab-eu-lab"
          ]
        },
        "performer": [
          {
            "display": "The Central European Lab"
          }
        ],
        "category": [
          {
            "coding": [
              {
                "system": "http://terminology.hl7.org/CodeSystem/observation-category",
                "code": "laboratory"
              }
            ]
          }
        ],
        "code": {
          "coding": [
            {
              "code": "5770-3",
              "system": "http://loinc.org",
              "display": "Bilirubin.total [Presence] in Urine by Test strip"
            }
          ],
          "text": "Bilirubin.total [Presence] in Urine by Test strip"
        },
        "text": {
          "status": "generated",
          "div": "<div xmlns=\"http://www.w3.org/1999/xhtml\"><table class=\"hl7__eu__lab__report\"><tr><th>Test</th><th>26-Oct-2015</th><th>Reference&#xA0;Range</th><th>Unit</th></tr><tr><td>Bilirubin.total [Presence] in Urine by Test strip</td></tr></table></div>"
        },
        "status": "final",
        "subject": {
          "reference": "urn:uuid:e413f089-d1b0-488f-8ef7-ea27866681cc",
          "display": "Meaghan Neary"
        },
        "effectiveDateTime": "2015-10-26T22:11:04Z",
        "specimen": {
          "reference": "urn:uuid:49a0f571-6c18-4a2b-bb91-182d8617e587"
        }
      }
    },
    {
      "fullUrl": "urn:uuid:825bd71b-e7a3-433f-bcca-1a149f400141",
      "resource": {
        "resourceType": "Observation",
        "id": "825bd71b-e7a3-433f-bcca-1a149f400141",
        "meta": {
          "profile": [
            "http://hl7.eu/fhir/laboratory/StructureDefinition/Observation-resultslab-eu-lab"
          ]
        },
        "performer": [
          {
            "display": "The Central European Lab"
          }
        ],
        "category": [
          {
            "coding": [
              {
                "system": "http://terminology.hl7.org/CodeSystem/observation-category",
                "code": "laboratory"
              }
            ]
          }
        ],
        "code": {
          "coding": [
            {
              "code": "5797-6",
              "system": "http://loinc.org",
              "display": "Ketones [Mass/volume] in Urine by Test strip"
            }
          ],
          "text": "Ketones [Mass/volume] in Urine by Test strip"
        },
        "valueQuantity": {
          "system": "http://unitsofmeasure.org",
          "value": 1.9,
          "unit": "mg/dL",
          "code": "mg/dL"
        },
        "referenceRange": [
          {
            "low": {
              "value": 0,
              "code": "mg/dL",
              "system": "http://unitsofmeasure.org"
            }
          },
          {
            "high": {
              "value": 4,
              "code": "mg/dL",
              "system": "http://unitsofmeasure.org"
            }
          }
        ],
        "text": {
          "status": "generated",
          "div": "<div xmlns=\"http://www.w3.org/1999/xhtml\"><table class=\"hl7__eu__lab__report\"><tr><th>Test</th><th>26-Oct-2015</th><th>Reference&#xA0;Range</th><th>Unit</th></tr><tr><td>Ketones [Mass/volume] in Urine by Test strip</td><td>1.9</td><td>0 - 4</td><td></td><td>mg/dL</td></tr></table></div>"
        },
        "status": "final",
        "subject": {
          "reference": "urn:uuid:e413f089-d1b0-488f-8ef7-ea27866681cc",
          "display": "Meaghan Neary"
        },
        "effectiveDateTime": "2015-10-26T22:11:04Z",
        "specimen": {
          "reference": "urn:uuid:49a0f571-6c18-4a2b-bb91-182d8617e587"
        }
      }
    },
    {
      "fullUrl": "urn:uuid:44124f3a-cc20-432b-b629-b1e836caca5f",
      "resource": {
        "resourceType": "Observation",
        "id": "44124f3a-cc20-432b-b629-b1e836caca5f",
        "meta": {
          "profile": [
            "http://hl7.eu/fhir/laboratory/StructureDefinition/Observation-resultslab-eu-lab"
          ]
        },
        "performer": [
          {
            "display": "The Central European Lab"
          }
        ],
        "category": [
          {
            "coding": [
              {
                "system": "http://terminology.hl7.org/CodeSystem/observation-category",
                "code": "laboratory"
              }
            ]
          }
        ],
        "code": {
          "coding": [
            {
              "code": "2514-8",
              "system": "http://loinc.org",
              "display": "Ketones [Presence] in Urine by Test strip"
            }
          ],
          "text": "Ketones [Presence] in Urine by Test strip"
        },
        "text": {
          "status": "generated",
          "div": "<div xmlns=\"http://www.w3.org/1999/xhtml\"><table class=\"hl7__eu__lab__report\"><tr><th>Test</th><th>26-Oct-2015</th><th>Reference&#xA0;Range</th><th>Unit</th></tr><tr><td>Ketones [Presence] in Urine by Test strip</td></tr></table></div>"
        },
        "status": "final",
        "subject": {
          "reference": "urn:uuid:e413f089-d1b0-488f-8ef7-ea27866681cc",
          "display": "Meaghan Neary"
        },
        "effectiveDateTime": "2015-10-26T22:11:04Z",
        "specimen": {
          "reference": "urn:uuid:49a0f571-6c18-4a2b-bb91-182d8617e587"
        }
      }
    },
    {
      "fullUrl": "urn:uuid:04710fbb-0ee4-402e-8e08-eabf4893f277",
      "resource": {
        "resourceType": "Observation",
        "id": "04710fbb-0ee4-402e-8e08-eabf4893f277",
        "meta": {
          "profile": [
            "http://hl7.eu/fhir/laboratory/StructureDefinition/Observation-resultslab-eu-lab"
          ]
        },
        "performer": [
          {
            "display": "The Central European Lab"
          }
        ],
        "category": [
          {
            "coding": [
              {
                "system": "http://terminology.hl7.org/CodeSystem/observation-category",
                "code": "laboratory"
              }
            ]
          }
        ],
        "code": {
          "coding": [
            {
              "code": "5811-5",
              "system": "http://loinc.org",
              "display": "Specific gravity of Urine by Test strip"
            }
          ],
          "text": "Specific gravity of Urine by Test strip"
        },
        "valueQuantity": {
          "system": "http://unitsofmeasure.org",
          "value": 1,
          "unit": "{nominal}",
          "code": "{nominal}"
        },
        "referenceRange": [
          {
            "low": {
              "value": 1.005,
              "code": "g/mL",
              "system": "http://unitsofmeasure.org"
            }
          },
          {
            "high": {
              "value": 1.03,
              "code": "g/mL",
              "system": "http://unitsofmeasure.org"
            }
          }
        ],
        "interpretation": [
          {
            "coding": [
              {
                "code": "L",
                "system": "http://terminology.hl7.org/CodeSystem/v3-ObservationInterpretation",
                "display": "Low"
              }
            ]
          }
        ],
        "text": {
          "status": "generated",
          "div": "<div xmlns=\"http://www.w3.org/1999/xhtml\"><table class=\"hl7__eu__lab__report\"><tr><th>Test</th><th>26-Oct-2015</th><th>Reference&#xA0;Range</th><th>Unit</th></tr><tr><td>Specific gravity of Urine by Test strip</td><td>1.0</td><td>1.005 - 1.03</td><td>L</td><td>{nominal}</td></tr></table></div>"
        },
        "status": "final",
        "subject": {
          "reference": "urn:uuid:e413f089-d1b0-488f-8ef7-ea27866681cc",
          "display": "Meaghan Neary"
        },
        "effectiveDateTime": "2015-10-26T22:11:04Z",
        "specimen": {
          "reference": "urn:uuid:49a0f571-6c18-4a2b-bb91-182d8617e587"
        }
      }
    },
    {
      "fullUrl": "urn:uuid:e36c8220-b7ba-4933-9096-cccdd1751b51",
      "resource": {
        "resourceType": "Observation",
        "id": "e36c8220-b7ba-4933-9096-cccdd1751b51",
        "meta": {
          "profile": [
            "http://hl7.eu/fhir/laboratory/StructureDefinition/Observation-resultslab-eu-lab"
          ]
        },
        "performer": [
          {
            "display": "The Central European Lab"
          }
        ],
        "category": [
          {
            "coding": [
              {
                "system": "http://terminology.hl7.org/CodeSystem/observation-category",
                "code": "laboratory"
              }
            ]
          }
        ],
        "code": {
          "coding": [
            {
              "code": "5803-2",
              "system": "http://loinc.org",
              "display": "pH of Urine by Test strip"
            }
          ],
          "text": "pH of Urine by Test strip"
        },
        "valueQuantity": {
          "system": "http://unitsofmeasure.org",
          "value": 6.4,
          "unit": "pH",
          "code": "pH"
        },
        "referenceRange": [
          {
            "low": {
              "value": 4.6,
              "code": "pH",
              "system": "http://unitsofmeasure.org"
            }
          },
          {
            "high": {
              "value": 7,
              "code": "pH",
              "system": "http://unitsofmeasure.org"
            }
          }
        ],
        "text": {
          "status": "generated",
          "div": "<div xmlns=\"http://www.w3.org/1999/xhtml\"><table class=\"hl7__eu__lab__report\"><tr><th>Test</th><th>26-Oct-2015</th><th>Reference&#xA0;Range</th><th>Unit</th></tr><tr><td>pH of Urine by Test strip</td><td>6.4</td><td>4.6 - 7</td><td></td><td>pH</td></tr></table></div>"
        },
        "status": "final",
        "subject": {
          "reference": "urn:uuid:e413f089-d1b0-488f-8ef7-ea27866681cc",
          "display": "Meaghan Neary"
        },
        "effectiveDateTime": "2015-10-26T22:11:04Z",
        "specimen": {
          "reference": "urn:uuid:49a0f571-6c18-4a2b-bb91-182d8617e587"
        }
      }
    },
    {
      "fullUrl": "urn:uuid:02b022a9-ef39-477e-81fa-403e93c7b83e",
      "resource": {
        "resourceType": "Observation",
        "id": "02b022a9-ef39-477e-81fa-403e93c7b83e",
        "meta": {
          "profile": [
            "http://hl7.eu/fhir/laboratory/StructureDefinition/Observation-resultslab-eu-lab"
          ]
        },
        "performer": [
          {
            "display": "The Central European Lab"
          }
        ],
        "category": [
          {
            "coding": [
              {
                "system": "http://terminology.hl7.org/CodeSystem/observation-category",
                "code": "laboratory"
              }
            ]
          }
        ],
        "code": {
          "coding": [
            {
              "code": "5804-0",
              "system": "http://loinc.org",
              "display": "Protein [Mass/volume] in Urine by Test strip"
            }
          ],
          "text": "Protein [Mass/volume] in Urine by Test strip"
        },
        "valueQuantity": {
          "system": "http://unitsofmeasure.org",
          "value": 181.9,
          "unit": "mg/dL",
          "code": "mg/dL"
        },
        "referenceRange": [
          {
            "low": {
              "value": 0,
              "code": "mg/dL",
              "system": "http://unitsofmeasure.org"
            }
          },
          {
            "high": {
              "value": 14,
              "code": "mg/dL",
              "system": "http://unitsofmeasure.org"
            }
          }
        ],
        "interpretation": [
          {
            "coding": [
              {
                "code": "H",
                "system": "http://terminology.hl7.org/CodeSystem/v3-ObservationInterpretation",
                "display": "High"
              }
            ]
          }
        ],
        "text": {
          "status": "generated",
          "div": "<div xmlns=\"http://www.w3.org/1999/xhtml\"><table class=\"hl7__eu__lab__report\"><tr><th>Test</th><th>26-Oct-2015</th><th>Reference&#xA0;Range</th><th>Unit</th></tr><tr><td>Protein [Mass/volume] in Urine by Test strip</td><td>181.9</td><td>0 - 14</td><td>H</td><td>mg/dL</td></tr></table></div>"
        },
        "status": "final",
        "subject": {
          "reference": "urn:uuid:e413f089-d1b0-488f-8ef7-ea27866681cc",
          "display": "Meaghan Neary"
        },
        "effectiveDateTime": "2015-10-26T22:11:04Z",
        "specimen": {
          "reference": "urn:uuid:49a0f571-6c18-4a2b-bb91-182d8617e587"
        }
      }
    },
    {
      "fullUrl": "urn:uuid:6d78adec-13a4-4ec7-92b8-6dced407ed33",
      "resource": {
        "resourceType": "Observation",
        "id": "6d78adec-13a4-4ec7-92b8-6dced407ed33",
        "meta": {
          "profile": [
            "http://hl7.eu/fhir/laboratory/StructureDefinition/Observation-resultslab-eu-lab"
          ]
        },
        "performer": [
          {
            "display": "The Central European Lab"
          }
        ],
        "category": [
          {
            "coding": [
              {
                "system": "http://terminology.hl7.org/CodeSystem/observation-category",
                "code": "laboratory"
              }
            ]
          }
        ],
        "code": {
          "coding": [
            {
              "code": "20454-5",
              "system": "http://loinc.org",
              "display": "Protein [Presence] in Urine by Test strip"
            }
          ],
          "text": "Protein [Presence] in Urine by Test strip"
        },
        "text": {
          "status": "generated",
          "div": "<div xmlns=\"http://www.w3.org/1999/xhtml\"><table class=\"hl7__eu__lab__report\"><tr><th>Test</th><th>26-Oct-2015</th><th>Reference&#xA0;Range</th><th>Unit</th></tr><tr><td>Protein [Presence] in Urine by Test strip</td></tr></table></div>"
        },
        "status": "final",
        "subject": {
          "reference": "urn:uuid:e413f089-d1b0-488f-8ef7-ea27866681cc",
          "display": "Meaghan Neary"
        },
        "effectiveDateTime": "2015-10-26T22:11:04Z",
        "specimen": {
          "reference": "urn:uuid:49a0f571-6c18-4a2b-bb91-182d8617e587"
        }
      }
    },
    {
      "fullUrl": "urn:uuid:91324b88-4091-43f2-93be-6b0af325e827",
      "resource": {
        "resourceType": "Observation",
        "id": "91324b88-4091-43f2-93be-6b0af325e827",
        "meta": {
          "profile": [
            "http://hl7.eu/fhir/laboratory/StructureDefinition/Observation-resultslab-eu-lab"
          ]
        },
        "performer": [
          {
            "display": "The Central European Lab"
          }
        ],
        "category": [
          {
            "coding": [
              {
                "system": "http://terminology.hl7.org/CodeSystem/observation-category",
                "code": "laboratory"
              }
            ]
          }
        ],
        "code": {
          "coding": [
            {
              "code": "5802-4",
              "system": "http://loinc.org",
              "display": "Nitrite [Presence] in Urine by Test strip"
            }
          ],
          "text": "Nitrite [Presence] in Urine by Test strip"
        },
        "text": {
          "status": "generated",
          "div": "<div xmlns=\"http://www.w3.org/1999/xhtml\"><table class=\"hl7__eu__lab__report\"><tr><th>Test</th><th>26-Oct-2015</th><th>Reference&#xA0;Range</th><th>Unit</th></tr><tr><td>Nitrite [Presence] in Urine by Test strip</td></tr></table></div>"
        },
        "status": "final",
        "subject": {
          "reference": "urn:uuid:e413f089-d1b0-488f-8ef7-ea27866681cc",
          "display": "Meaghan Neary"
        },
        "effectiveDateTime": "2015-10-26T22:11:04Z",
        "specimen": {
          "reference": "urn:uuid:49a0f571-6c18-4a2b-bb91-182d8617e587"
        }
      }
    },
    {
      "fullUrl": "urn:uuid:525f7e16-abf4-4b43-a533-289dd90645ef",
      "resource": {
        "resourceType": "Observation",
        "id": "525f7e16-abf4-4b43-a533-289dd90645ef",
        "meta": {
          "profile": [
            "http://hl7.eu/fhir/laboratory/StructureDefinition/Observation-resultslab-eu-lab"
          ]
        },
        "performer": [
          {
            "display": "The Central European Lab"
          }
        ],
        "category": [
          {
            "coding": [
              {
                "system": "http://terminology.hl7.org/CodeSystem/observation-category",
                "code": "laboratory"
              }
            ]
          }
        ],
        "code": {
          "coding": [
            {
              "code": "5794-3",
              "system": "http://loinc.org",
              "display": "Hemoglobin [Presence] in Urine by Test strip"
            }
          ],
          "text": "Hemoglobin [Presence] in Urine by Test strip"
        },
        "text": {
          "status": "generated",
          "div": "<div xmlns=\"http://www.w3.org/1999/xhtml\"><table class=\"hl7__eu__lab__report\"><tr><th>Test</th><th>26-Oct-2015</th><th>Reference&#xA0;Range</th><th>Unit</th></tr><tr><td>Hemoglobin [Presence] in Urine by Test strip</td></tr></table></div>"
        },
        "status": "final",
        "subject": {
          "reference": "urn:uuid:e413f089-d1b0-488f-8ef7-ea27866681cc",
          "display": "Meaghan Neary"
        },
        "effectiveDateTime": "2015-10-26T22:11:04Z",
        "specimen": {
          "reference": "urn:uuid:49a0f571-6c18-4a2b-bb91-182d8617e587"
        }
      }
    },
    {
      "fullUrl": "urn:uuid:07115f8d-cb3d-4fcf-bbd8-21c9eaec95d6",
      "resource": {
        "resourceType": "Observation",
        "id": "07115f8d-cb3d-4fcf-bbd8-21c9eaec95d6",
        "meta": {
          "profile": [
            "http://hl7.eu/fhir/laboratory/StructureDefinition/Observation-resultslab-eu-lab"
          ]
        },
        "performer": [
          {
            "display": "The Central European Lab"
          }
        ],
        "category": [
          {
            "coding": [
              {
                "system": "http://terminology.hl7.org/CodeSystem/observation-category",
                "code": "laboratory"
              }
            ]
          }
        ],
        "code": {
          "coding": [
            {
              "code": "5799-2",
              "system": "http://loinc.org",
              "display": "Leukocyte esterase [Presence] in Urine by Test strip"
            }
          ],
          "text": "Leukocyte esterase [Presence] in Urine by Test strip"
        },
        "text": {
          "status": "generated",
          "div": "<div xmlns=\"http://www.w3.org/1999/xhtml\"><table class=\"hl7__eu__lab__report\"><tr><th>Test</th><th>26-Oct-2015</th><th>Reference&#xA0;Range</th><th>Unit</th></tr><tr><td>Leukocyte esterase [Presence] in Urine by Test strip</td></tr></table></div>"
        },
        "status": "final",
        "subject": {
          "reference": "urn:uuid:e413f089-d1b0-488f-8ef7-ea27866681cc",
          "display": "Meaghan Neary"
        },
        "effectiveDateTime": "2015-10-26T22:11:04Z",
        "specimen": {
          "reference": "urn:uuid:49a0f571-6c18-4a2b-bb91-182d8617e587"
        }
      }
    },
    {
      "fullUrl": "urn:uuid:2d154181-f508-427a-a637-31dc5f20d666",
      "resource": {
        "resourceType": "Observation",
        "id": "2d154181-f508-427a-a637-31dc5f20d666",
        "meta": {
          "profile": [
            "http://hl7.eu/fhir/laboratory/StructureDefinition/Observation-resultslab-eu-lab"
          ]
        },
        "performer": [
          {
            "display": "The Central European Lab"
          }
        ],
        "category": [
          {
            "coding": [
              {
                "system": "http://terminology.hl7.org/CodeSystem/observation-category",
                "code": "laboratory"
              }
            ]
          }
        ],
        "code": {
          "coding": [
            {
              "code": "4548-4",
              "system": "http://loinc.org",
              "display": "Hemoglobin A1c/Hemoglobin.total in Blood"
            }
          ],
          "text": "Hemoglobin A1c/Hemoglobin.total in Blood"
        },
        "valueQuantity": {
          "system": "http://unitsofmeasure.org",
          "value": 2.8,
          "unit": "%",
          "code": "%"
        },
        "referenceRange": [
          {
            "low": {
              "value": 4,
              "code": "%",
              "system": "http://unitsofmeasure.org"
            }
          },
          {
            "high": {
              "value": 6.4,
              "code": "%",
              "system": "http://unitsofmeasure.org"
            }
          }
        ],
        "interpretation": [
          {
            "coding": [
              {
                "code": "L",
                "system": "http://terminology.hl7.org/CodeSystem/v3-ObservationInterpretation",
                "display": "Low"
              }
            ]
          }
        ],
        "text": {
          "status": "generated",
          "div": "<div xmlns=\"http://www.w3.org/1999/xhtml\"><table class=\"hl7__eu__lab__report\"><tr><th>Test</th><th>26-Oct-2015</th><th>Reference&#xA0;Range</th><th>Unit</th></tr><tr><td>Hemoglobin A1c/Hemoglobin.total in Blood</td><td>2.8</td><td>4 - 6.4</td><td>L</td><td>%</td></tr></table></div>"
        },
        "status": "final",
        "subject": {
          "reference": "urn:uuid:e413f089-d1b0-488f-8ef7-ea27866681cc",
          "display": "Meaghan Neary"
        },
        "effectiveDateTime": "2015-10-26T22:11:04Z",
        "specimen": {
          "reference": "urn:uuid:9ccef9ba-5fc9-44c8-a270-e07d9e5d1476"
        }
      }
    },
    {
      "fullUrl": "urn:uuid:23e6d6c0-bb7c-466b-b0a0-30f33c109153",
      "resource": {
        "resourceType": "Observation",
        "id": "23e6d6c0-bb7c-466b-b0a0-30f33c109153",
        "meta": {
          "profile": [
            "http://hl7.eu/fhir/laboratory/StructureDefinition/Observation-resultslab-eu-lab"
          ]
        },
        "performer": [
          {
            "display": "The Central European Lab"
          }
        ],
        "category": [
          {
            "coding": [
              {
                "system": "http://terminology.hl7.org/CodeSystem/observation-category",
                "code": "laboratory"
              }
            ]
          }
        ],
        "code": {
          "coding": [
            {
              "code": "2339-0",
              "system": "http://loinc.org",
              "display": "Glucose [Mass/volume] in Blood"
            }
          ],
          "text": "Glucose [Mass/volume] in Blood"
        },
        "valueQuantity": {
          "system": "http://unitsofmeasure.org",
          "value": 80.5,
          "unit": "mg/dL",
          "code": "mg/dL"
        },
        "referenceRange": [
          {
            "low": {
              "value": 70,
              "code": "mg/dL",
              "system": "http://unitsofmeasure.org"
            }
          },
          {
            "high": {
              "value": 100,
              "code": "mg/dL",
              "system": "http://unitsofmeasure.org"
            }
          }
        ],
        "text": {
          "status": "generated",
          "div": "<div xmlns=\"http://www.w3.org/1999/xhtml\"><table class=\"hl7__eu__lab__report\"><tr><th>Test</th><th>26-Oct-2015</th><th>Reference&#xA0;Range</th><th>Unit</th></tr><tr><td>Glucose [Mass/volume] in Blood</td><td>80.5</td><td>70 - 100</td><td></td><td>mg/dL</td></tr></table></div>"
        },
        "status": "final",
        "subject": {
          "reference": "urn:uuid:e413f089-d1b0-488f-8ef7-ea27866681cc",
          "display": "Meaghan Neary"
        },
        "effectiveDateTime": "2015-10-26T22:11:04Z",
        "specimen": {
          "reference": "urn:uuid:9ccef9ba-5fc9-44c8-a270-e07d9e5d1476"
        }
      }
    },
    {
      "fullUrl": "urn:uuid:19b2aaa5-285d-453f-8d98-f15021c06b05",
      "resource": {
        "resourceType": "Observation",
        "id": "19b2aaa5-285d-453f-8d98-f15021c06b05",
        "meta": {
          "profile": [
            "http://hl7.eu/fhir/laboratory/StructureDefinition/Observation-resultslab-eu-lab"
          ]
        },
        "performer": [
          {
            "display": "The Central European Lab"
          }
        ],
        "category": [
          {
            "coding": [
              {
                "system": "http://terminology.hl7.org/CodeSystem/observation-category",
                "code": "laboratory"
              }
            ]
          }
        ],
        "code": {
          "coding": [
            {
              "code": "6299-2",
              "system": "http://loinc.org",
              "display": "Urea nitrogen [Mass/volume] in Blood"
            }
          ],
          "text": "Urea nitrogen [Mass/volume] in Blood"
        },
        "valueQuantity": {
          "system": "http://unitsofmeasure.org",
          "value": 12.1,
          "unit": "mg/dL",
          "code": "mg/dL"
        },
        "referenceRange": [
          {
            "low": {
              "value": 7,
              "code": "mg/dL",
              "system": "http://unitsofmeasure.org"
            }
          },
          {
            "high": {
              "value": 43,
              "code": "mg/dL",
              "system": "http://unitsofmeasure.org"
            }
          }
        ],
        "text": {
          "status": "generated",
          "div": "<div xmlns=\"http://www.w3.org/1999/xhtml\"><table class=\"hl7__eu__lab__report\"><tr><th>Test</th><th>26-Oct-2015</th><th>Reference&#xA0;Range</th><th>Unit</th></tr><tr><td>Urea nitrogen [Mass/volume] in Blood</td><td>12.1</td><td>7 - 43</td><td></td><td>mg/dL</td></tr></table></div>"
        },
        "status": "final",
        "subject": {
          "reference": "urn:uuid:e413f089-d1b0-488f-8ef7-ea27866681cc",
          "display": "Meaghan Neary"
        },
        "effectiveDateTime": "2015-10-26T22:11:04Z",
        "specimen": {
          "reference": "urn:uuid:9ccef9ba-5fc9-44c8-a270-e07d9e5d1476"
        }
      }
    },
    {
      "fullUrl": "urn:uuid:ea5cb1a2-2c1f-4d91-814a-fd12b163d34e",
      "resource": {
        "resourceType": "Observation",
        "id": "ea5cb1a2-2c1f-4d91-814a-fd12b163d34e",
        "meta": {
          "profile": [
            "http://hl7.eu/fhir/laboratory/StructureDefinition/Observation-resultslab-eu-lab"
          ]
        },
        "performer": [
          {
            "display": "The Central European Lab"
          }
        ],
        "category": [
          {
            "coding": [
              {
                "system": "http://terminology.hl7.org/CodeSystem/observation-category",
                "code": "laboratory"
              }
            ]
          }
        ],
        "code": {
          "coding": [
            {
              "code": "38483-4",
              "system": "http://loinc.org",
              "display": "Creatinine [Mass/volume] in Blood"
            }
          ],
          "text": "Creatinine [Mass/volume] in Blood"
        },
        "valueQuantity": {
          "system": "http://unitsofmeasure.org",
          "value": 1.6,
          "unit": "mg/dL",
          "code": "mg/dL"
        },
        "referenceRange": [
          {
            "low": {
              "value": 0.6,
              "code": "mg/dL",
              "system": "http://unitsofmeasure.org"
            }
          },
          {
            "high": {
              "value": 1.1,
              "code": "mg/dL",
              "system": "http://unitsofmeasure.org"
            }
          }
        ],
        "interpretation": [
          {
            "coding": [
              {
                "code": "H",
                "system": "http://terminology.hl7.org/CodeSystem/v3-ObservationInterpretation",
                "display": "High"
              }
            ]
          }
        ],
        "text": {
          "status": "generated",
          "div": "<div xmlns=\"http://www.w3.org/1999/xhtml\"><table class=\"hl7__eu__lab__report\"><tr><th>Test</th><th>26-Oct-2015</th><th>Reference&#xA0;Range</th><th>Unit</th></tr><tr><td>Creatinine [Mass/volume] in Blood</td><td>1.6</td><td>0.6 - 1.1</td><td>H</td><td>mg/dL</td></tr></table></div>"
        },
        "status": "final",
        "subject": {
          "reference": "urn:uuid:e413f089-d1b0-488f-8ef7-ea27866681cc",
          "display": "Meaghan Neary"
        },
        "effectiveDateTime": "2015-10-26T22:11:04Z",
        "specimen": {
          "reference": "urn:uuid:9ccef9ba-5fc9-44c8-a270-e07d9e5d1476"
        }
      }
    },
    {
      "fullUrl": "urn:uuid:e21cecad-43dd-4111-9932-3f84f7411be7",
      "resource": {
        "resourceType": "Observation",
        "id": "e21cecad-43dd-4111-9932-3f84f7411be7",
        "meta": {
          "profile": [
            "http://hl7.eu/fhir/laboratory/StructureDefinition/Observation-resultslab-eu-lab"
          ]
        },
        "performer": [
          {
            "display": "The Central European Lab"
          }
        ],
        "category": [
          {
            "coding": [
              {
                "system": "http://terminology.hl7.org/CodeSystem/observation-category",
                "code": "laboratory"
              }
            ]
          }
        ],
        "code": {
          "coding": [
            {
              "code": "49765-1",
              "system": "http://loinc.org",
              "display": "Calcium [Mass/volume] in Blood"
            }
          ],
          "text": "Calcium [Mass/volume] in Blood"
        },
        "valueQuantity": {
          "system": "http://unitsofmeasure.org",
          "value": 10.1,
          "unit": "mg/dL",
          "code": "mg/dL"
        },
        "referenceRange": [
          {
            "low": {
              "value": 8.5,
              "code": "mg/dL",
              "system": "http://unitsofmeasure.org"
            }
          },
          {
            "high": {
              "value": 10.5,
              "code": "mg/dL",
              "system": "http://unitsofmeasure.org"
            }
          }
        ],
        "text": {
          "status": "generated",
          "div": "<div xmlns=\"http://www.w3.org/1999/xhtml\"><table class=\"hl7__eu__lab__report\"><tr><th>Test</th><th>26-Oct-2015</th><th>Reference&#xA0;Range</th><th>Unit</th></tr><tr><td>Calcium [Mass/volume] in Blood</td><td>10.1</td><td>8.5 - 10.5</td><td></td><td>mg/dL</td></tr></table></div>"
        },
        "status": "final",
        "subject": {
          "reference": "urn:uuid:e413f089-d1b0-488f-8ef7-ea27866681cc",
          "display": "Meaghan Neary"
        },
        "effectiveDateTime": "2015-10-26T22:11:04Z",
        "specimen": {
          "reference": "urn:uuid:9ccef9ba-5fc9-44c8-a270-e07d9e5d1476"
        }
      }
    },
    {
      "fullUrl": "urn:uuid:5be3f0b1-eaa3-4659-bfae-7432584dd280",
      "resource": {
        "resourceType": "Observation",
        "id": "5be3f0b1-eaa3-4659-bfae-7432584dd280",
        "meta": {
          "profile": [
            "http://hl7.eu/fhir/laboratory/StructureDefinition/Observation-resultslab-eu-lab"
          ]
        },
        "performer": [
          {
            "display": "The Central European Lab"
          }
        ],
        "category": [
          {
            "coding": [
              {
                "system": "http://terminology.hl7.org/CodeSystem/observation-category",
                "code": "laboratory"
              }
            ]
          }
        ],
        "code": {
          "coding": [
            {
              "code": "2947-0",
              "system": "http://loinc.org",
              "display": "Sodium [Moles/volume] in Blood"
            }
          ],
          "text": "Sodium [Moles/volume] in Blood"
        },
        "valueQuantity": {
          "system": "http://unitsofmeasure.org",
          "value": 136.9,
          "unit": "mmol/L",
          "code": "mmol/L"
        },
        "referenceRange": [
          {
            "low": {
              "value": 135,
              "code": "mmol/L",
              "system": "http://unitsofmeasure.org"
            }
          },
          {
            "high": {
              "value": 145,
              "code": "mmol/L",
              "system": "http://unitsofmeasure.org"
            }
          }
        ],
        "text": {
          "status": "generated",
          "div": "<div xmlns=\"http://www.w3.org/1999/xhtml\"><table class=\"hl7__eu__lab__report\"><tr><th>Test</th><th>26-Oct-2015</th><th>Reference&#xA0;Range</th><th>Unit</th></tr><tr><td>Sodium [Moles/volume] in Blood</td><td>136.9</td><td>135 - 145</td><td></td><td>mmol/L</td></tr></table></div>"
        },
        "status": "final",
        "subject": {
          "reference": "urn:uuid:e413f089-d1b0-488f-8ef7-ea27866681cc",
          "display": "Meaghan Neary"
        },
        "effectiveDateTime": "2015-10-26T22:11:04Z",
        "specimen": {
          "reference": "urn:uuid:9ccef9ba-5fc9-44c8-a270-e07d9e5d1476"
        }
      }
    },
    {
      "fullUrl": "urn:uuid:b1ac26a6-6cf4-4804-aaa7-e66f9b4d52d3",
      "resource": {
        "resourceType": "Observation",
        "id": "b1ac26a6-6cf4-4804-aaa7-e66f9b4d52d3",
        "meta": {
          "profile": [
            "http://hl7.eu/fhir/laboratory/StructureDefinition/Observation-resultslab-eu-lab"
          ]
        },
        "performer": [
          {
            "display": "The Central European Lab"
          }
        ],
        "category": [
          {
            "coding": [
              {
                "system": "http://terminology.hl7.org/CodeSystem/observation-category",
                "code": "laboratory"
              }
            ]
          }
        ],
        "code": {
          "coding": [
            {
              "code": "6298-4",
              "system": "http://loinc.org",
              "display": "Potassium [Moles/volume] in Blood"
            }
          ],
          "text": "Potassium [Moles/volume] in Blood"
        },
        "valueQuantity": {
          "system": "http://unitsofmeasure.org",
          "value": 4.6,
          "unit": "mmol/L",
          "code": "mmol/L"
        },
        "referenceRange": [
          {
            "low": {
              "value": 3.5,
              "code": "mmol/L",
              "system": "http://unitsofmeasure.org"
            }
          },
          {
            "high": {
              "value": 5.1,
              "code": "mmol/L",
              "system": "http://unitsofmeasure.org"
            }
          }
        ],
        "text": {
          "status": "generated",
          "div": "<div xmlns=\"http://www.w3.org/1999/xhtml\"><table class=\"hl7__eu__lab__report\"><tr><th>Test</th><th>26-Oct-2015</th><th>Reference&#xA0;Range</th><th>Unit</th></tr><tr><td>Potassium [Moles/volume] in Blood</td><td>4.6</td><td>3.5 - 5.1</td><td></td><td>mmol/L</td></tr></table></div>"
        },
        "status": "final",
        "subject": {
          "reference": "urn:uuid:e413f089-d1b0-488f-8ef7-ea27866681cc",
          "display": "Meaghan Neary"
        },
        "effectiveDateTime": "2015-10-26T22:11:04Z",
        "specimen": {
          "reference": "urn:uuid:9ccef9ba-5fc9-44c8-a270-e07d9e5d1476"
        }
      }
    },
    {
      "fullUrl": "urn:uuid:0d59fb67-d04a-41b0-baf5-5ce06dbffccb",
      "resource": {
        "resourceType": "Observation",
        "id": "0d59fb67-d04a-41b0-baf5-5ce06dbffccb",
        "meta": {
          "profile": [
            "http://hl7.eu/fhir/laboratory/StructureDefinition/Observation-resultslab-eu-lab"
          ]
        },
        "performer": [
          {
            "display": "The Central European Lab"
          }
        ],
        "category": [
          {
            "coding": [
              {
                "system": "http://terminology.hl7.org/CodeSystem/observation-category",
                "code": "laboratory"
              }
            ]
          }
        ],
        "code": {
          "coding": [
            {
              "code": "2069-3",
              "system": "http://loinc.org",
              "display": "Chloride [Moles/volume] in Blood"
            }
          ],
          "text": "Chloride [Moles/volume] in Blood"
        },
        "valueQuantity": {
          "system": "http://unitsofmeasure.org",
          "value": 108.9,
          "unit": "mmol/L",
          "code": "mmol/L"
        },
        "referenceRange": [
          {
            "low": {
              "value": 98,
              "code": "mmol/L",
              "system": "http://unitsofmeasure.org"
            }
          },
          {
            "high": {
              "value": 108,
              "code": "mmol/L",
              "system": "http://unitsofmeasure.org"
            }
          }
        ],
        "interpretation": [
          {
            "coding": [
              {
                "code": "H",
                "system": "http://terminology.hl7.org/CodeSystem/v3-ObservationInterpretation",
                "display": "High"
              }
            ]
          }
        ],
        "text": {
          "status": "generated",
          "div": "<div xmlns=\"http://www.w3.org/1999/xhtml\"><table class=\"hl7__eu__lab__report\"><tr><th>Test</th><th>26-Oct-2015</th><th>Reference&#xA0;Range</th><th>Unit</th></tr><tr><td>Chloride [Moles/volume] in Blood</td><td>108.9</td><td>98 - 108</td><td>H</td><td>mmol/L</td></tr></table></div>"
        },
        "status": "final",
        "subject": {
          "reference": "urn:uuid:e413f089-d1b0-488f-8ef7-ea27866681cc",
          "display": "Meaghan Neary"
        },
        "effectiveDateTime": "2015-10-26T22:11:04Z",
        "specimen": {
          "reference": "urn:uuid:9ccef9ba-5fc9-44c8-a270-e07d9e5d1476"
        }
      }
    },
    {
      "fullUrl": "urn:uuid:b386156e-a531-4674-93c4-7e8e32873139",
      "resource": {
        "resourceType": "Observation",
        "id": "b386156e-a531-4674-93c4-7e8e32873139",
        "meta": {
          "profile": [
            "http://hl7.eu/fhir/laboratory/StructureDefinition/Observation-resultslab-eu-lab"
          ]
        },
        "performer": [
          {
            "display": "The Central European Lab"
          }
        ],
        "category": [
          {
            "coding": [
              {
                "system": "http://terminology.hl7.org/CodeSystem/observation-category",
                "code": "laboratory"
              }
            ]
          }
        ],
        "code": {
          "coding": [
            {
              "code": "20565-8",
              "system": "http://loinc.org",
              "display": "Carbon dioxide, total [Moles/volume] in Blood"
            }
          ],
          "text": "Carbon dioxide, total [Moles/volume] in Blood"
        },
        "valueQuantity": {
          "system": "http://unitsofmeasure.org",
          "value": 20.7,
          "unit": "mmol/L",
          "code": "mmol/L"
        },
        "referenceRange": [
          {
            "low": {
              "value": 22,
              "code": "mmol/L",
              "system": "http://unitsofmeasure.org"
            }
          },
          {
            "high": {
              "value": 29,
              "code": "mmol/L",
              "system": "http://unitsofmeasure.org"
            }
          }
        ],
        "interpretation": [
          {
            "coding": [
              {
                "code": "L",
                "system": "http://terminology.hl7.org/CodeSystem/v3-ObservationInterpretation",
                "display": "Low"
              }
            ]
          }
        ],
        "text": {
          "status": "generated",
          "div": "<div xmlns=\"http://www.w3.org/1999/xhtml\"><table class=\"hl7__eu__lab__report\"><tr><th>Test</th><th>26-Oct-2015</th><th>Reference&#xA0;Range</th><th>Unit</th></tr><tr><td>Carbon dioxide, total [Moles/volume] in Blood</td><td>20.7</td><td>22 - 29</td><td>L</td><td>mmol/L</td></tr></table></div>"
        },
        "status": "final",
        "subject": {
          "reference": "urn:uuid:e413f089-d1b0-488f-8ef7-ea27866681cc",
          "display": "Meaghan Neary"
        },
        "effectiveDateTime": "2015-10-26T22:11:04Z",
        "specimen": {
          "reference": "urn:uuid:9ccef9ba-5fc9-44c8-a270-e07d9e5d1476"
        }
      }
    },
    {
      "fullUrl": "urn:uuid:0491b5f4-25ec-49ea-95bb-d90f572f2a45",
      "resource": {
        "resourceType": "Device",
        "id": "0491b5f4-25ec-49ea-95bb-d90f572f2a45",
        "deviceName": [
          {
            "name": "SYNDERAI Synthetic Generator",
            "type": "manufacturer-name"
          }
        ],
        "version": [
          {
            "value": "5.0"
          }
        ],
        "text": {
          "status": "generated",
          "div": "<div xmlns=\"http://www.w3.org/1999/xhtml\">SYNDERAI Synthetic Generator v5.0</div>"
        },
        "status": "active\"",
        "distinctIdentifier": "synderai-generator-50",
        "manufacturer": "SYNDERAI Project"
      }
    },
    {
      "fullUrl": "urn:uuid:70c8510c-a946-4307-b41c-5246885ba0eb",
      "resource": {
        "resourceType": "Provenance",
        "id": "70c8510c-a946-4307-b41c-5246885ba0eb",
        "target": [
          {
            "reference": "Patient/e413f089-d1b0-488f-8ef7-ea27866681cc"
          },
          {
            "reference": "Bundle/d8ad0c2c-984f-40d7-b5f2-65510865861e"
          },
          {
            "reference": "Composition/b929558e-92cc-4ba3-8a1c-e4b4453e29e6"
          },
          {
            "reference": "PractitionerRole/0911a9da-c7b7-49a6-8b73-b1c91bc8df3b"
          },
          {
            "reference": "Practitioner/54a94819-b42c-4d8b-990b-eaabd3f698a2"
          },
          {
            "reference": "PractitionerRole/87f53235-c0ab-40cc-b8a2-d1c51556ed8d"
          },
          {
            "reference": "Organization/1e504a5a-9968-41e0-8e43-243aabdc08cd"
          }
        ],
        "activity": {
          "text": "Synthetic Example Data Generation"
        },
        "policy": [
          "https://synderai.net/synderai-synthetic-data-policy"
        ],
        "agent": [
          {
            "type": {
              "text": "author"
            },
            "who": {
              "reference": "Device/0491b5f4-25ec-49ea-95bb-d90f572f2a45"
            }
          }
        ],
        "reason": [
          {
            "text": "Interoperability Testing and Training (non-clinical use)"
          }
        ],
        "text": {
          "status": "generated",
          "div": "<div xmlns=\"http://www.w3.org/1999/xhtml\">Provenance for SYNDERAI Synthetic Example Data Resource</div>"
        },
        "recorded": "2015-10-26T23:11:04Z"
      }
    },
    {
      "fullUrl": "urn:uuid:0911a9da-c7b7-49a6-8b73-b1c91bc8df3b",
      "resource": {
        "resourceType": "PractitionerRole",
        "id": "0911a9da-c7b7-49a6-8b73-b1c91bc8df3b",
        "meta": {
          "profile": [
            "http://hl7.eu/fhir/base/StructureDefinition/practitionerRole-eu"
          ]
        },
        "text": {
          "status": "generated",
          "div": "<div xmlns=\"http://www.w3.org/1999/xhtml\">Laboratory Role Id: 0911a9da-c7b7-49a6-8b73-b1c91bc8df3b</div>"
        },
        "practitioner": {
          "reference": "urn:uuid:54a94819-b42c-4d8b-990b-eaabd3f698a2"
        }
      }
    },
    {
      "fullUrl": "urn:uuid:54a94819-b42c-4d8b-990b-eaabd3f698a2",
      "resource": {
        "resourceType": "Practitioner",
        "id": "54a94819-b42c-4d8b-990b-eaabd3f698a2",
        "meta": {
          "profile": [
            "http://hl7.eu/fhir/base/StructureDefinition/practitioner-eu"
          ]
        },
        "identifier": [
          {
            "assigner": {
              "display": "HL7 Europe"
            },
            "system": "urn:oid:2.16.840.1.113883.2.51.999",
            "value": "21fdfef7-42e0-4d2c-b5cf-05c0a740e227"
          }
        ],
        "name": [
          {
            "prefix": [
              "dr"
            ],
            "given": [
              "Ex"
            ],
            "family": "Ample"
          }
        ],
        "address": [
          {
            "line": [
              "Laboratoire Central Européenne",
              "Boulevard du Jardin Botanique 32"
            ],
            "postalCode": "1000",
            "city": "Brussels",
            "country": "Belgium"
          }
        ],
        "text": {
          "status": "generated",
          "div": "<div xmlns=\"http://www.w3.org/1999/xhtml\">Laboratory: Laboratoire Central Européenne, 1000 Brussels, Belgium</div>"
        }
      }
    }
  ],
  "type": "document",
  "timestamp": "2015-10-26T23:11:04Z"
}
