{
  "resourceType": "Bundle",
  "id": "ab85ca3a-e282-4625-b859-20fdd5896346",
  "meta": {
    "profile": [
      "http://hl7.eu/fhir/laboratory/StructureDefinition/Bundle-eu-lab"
    ]
  },
  "identifier": {
    "assigner": {
      "display": "HL7 Europe"
    },
    "system": "urn:oid:2.16.840.1.113883.2.51.999",
    "value": "7344a856-e348-4589-b577-f448633683ba"
  },
  "entry": [
    {
      "fullUrl": "urn:uuid:8fb41e91-9bed-4488-8aa1-9170749932af",
      "resource": {
        "resourceType": "Composition",
        "id": "8fb41e91-9bed-4488-8aa1-9170749932af",
        "meta": {
          "profile": [
            "http://hl7.eu/fhir/laboratory/StructureDefinition/Composition-eu-lab"
          ]
        },
        "identifier": {
          "assigner": {
            "display": "HL7 Europe"
          },
          "system": "urn:oid:2.16.840.1.113883.2.51.999",
          "value": "8aa39a9a-e5e5-409f-88f9-cb49e00e91c6"
        },
        "author": [
          {
            "reference": "urn:uuid:07428c4a-0570-490b-912a-11b1f16864d3"
          }
        ],
        "category": [
          {
            "coding": [
              {
                "code": "26436-6",
                "system": "http://loinc.org",
                "display": "Laboratory studies (set)"
              }
            ]
          }
        ],
        "type": {
          "coding": [
            {
              "code": "11502-2",
              "system": "http://loinc.org",
              "display": "Laboratory report"
            }
          ],
          "text": "Laboratory Report"
        },
        "section": [
          {
            "code": {
              "coding": [
                {
                  "code": "26436-6",
                  "system": "http://loinc.org",
                  "display": "Laboratory studies (set)"
                }
              ],
              "text": "Laboratory studies"
            },
            "section": [
              {
                "code": {
                  "coding": [
                    {
                      "code": "$18723-7",
                      "system": "http://loinc.org",
                      "display": "Hematology studies (set)"
                    }
                  ],
                  "text": "Hematology"
                },
                "entry": [
                  {
                    "reference": "urn:uuid:e34b9329-87ea-4cd4-b764-64f86ea7eee7"
                  },
                  {
                    "reference": "urn:uuid:5f95d090-aa82-42cd-81a9-3a7c0ab780e8"
                  },
                  {
                    "reference": "urn:uuid:ce41128e-eaa0-4823-83d7-f2c0c9e8c192"
                  },
                  {
                    "reference": "urn:uuid:c373a27a-f240-4712-b73b-f40ae99780a4"
                  },
                  {
                    "reference": "urn:uuid:ea102f3f-5182-4c85-80a3-a217f6c24dbd"
                  },
                  {
                    "reference": "urn:uuid:700a4e2a-bbd8-4b6a-a82e-884c0b2a7e62"
                  },
                  {
                    "reference": "urn:uuid:abc13237-59b7-46fe-b2c5-5fcb17c5058a"
                  },
                  {
                    "reference": "urn:uuid:3bf1da61-3f86-4392-8a03-45f1d9f19b3c"
                  },
                  {
                    "reference": "urn:uuid:7e4155a4-4a5d-4689-939a-1b26d0a0f769"
                  },
                  {
                    "reference": "urn:uuid:643b781a-caa4-4d6c-b660-30c2017dc0c6"
                  },
                  {
                    "reference": "urn:uuid:0c0c2f66-c751-4380-8c12-4748fcd24cbc"
                  }
                ],
                "text": {
                  "status": "generated",
                  "div": "<div xmlns=\"http://www.w3.org/1999/xhtml\"><h3>Hematology</h3><table class=\"hl7__eu__lab__report\"><thead><tr><th>Test</th><th>30-AUG-2022</th><th>Reference&#xA0;Range</th><th>Unit</th></tr></thead><tbody><tr><td>Leukocytes [#/volume] in Blood by Automated count</td><td>7.6</td><td>3.6 - 10.5</td><td>10*3/uL</td></tr><tr><td>Erythrocytes [#/volume] in Blood by Automated count</td><td>5.4</td><td>4.2 - 5.7</td><td>10*6/uL</td></tr><tr><td>Hemoglobin [Mass/volume] in Blood</td><td>13.1</td><td>12.1 - 15.5</td><td>g/dL</td></tr><tr><td>Hematocrit [Volume Fraction] of Blood by Automated count</td><td>46.3</td><td>38 - 54</td><td>%</td></tr><tr><td>MCV [Entitic volume] by Automated count</td><td><strong>81.9 L</strong></td><td>82 - 98</td><td>fL</td></tr><tr><td>MCH [Entitic mass] by Automated count</td><td>31.4</td><td>27 - 34</td><td>pg</td></tr><tr><td>MCHC [Mass/volume] by Automated count</td><td><strong>35.2 H</strong></td><td>31.5 - 35</td><td>g/dL</td></tr><tr><td>Erythrocyte distribution width [Entitic volume] by Automated count</td><td>45.3</td><td>36 - 55</td><td>fL</td></tr><tr><td>Platelets [#/volume] in Blood by Automated count</td><td>177.3</td><td>150 - 450</td><td>10*3/uL</td></tr><tr><td>Platelet distribution width [Entitic volume] in Blood by Automated count</td><td>296.6</td><td>15 - 450</td><td>fL</td></tr><tr><td>Platelet mean volume [Entitic volume] in Blood by Automated count</td><td><strong>12.3 H</strong></td><td>7.4 - 12</td><td>fL</td></tr></tbody></table></div>"
                },
                "title": "Hematology"
              },
              {
                "code": {
                  "coding": [
                    {
                      "code": "$18719-5",
                      "system": "http://loinc.org",
                      "display": "Chemistry studies (set)"
                    }
                  ],
                  "text": "Chemistry"
                },
                "entry": [
                  {
                    "reference": "urn:uuid:0a4e3d5a-6278-4c9b-b97b-702cc16bb7b6"
                  },
                  {
                    "reference": "urn:uuid:0f5d8e22-6f13-4f87-b438-799958371698"
                  },
                  {
                    "reference": "urn:uuid:6f74bf96-1c22-4dff-b53f-f45fd732a1a1"
                  },
                  {
                    "reference": "urn:uuid:a591734a-0cda-49d3-accd-05056cad7901"
                  },
                  {
                    "reference": "urn:uuid:3b9d21ae-33fb-4c5a-b9cc-54bb2c7267d8"
                  },
                  {
                    "reference": "urn:uuid:58e61781-caef-49e6-9b60-1db8b05ba96b"
                  },
                  {
                    "reference": "urn:uuid:9fee434f-874e-4884-8632-1c474a95db1f"
                  },
                  {
                    "reference": "urn:uuid:0afd693f-59da-4018-aa40-70a60494b212"
                  },
                  {
                    "reference": "urn:uuid:396dc83d-2919-4221-9f50-535cf3adbdff"
                  },
                  {
                    "reference": "urn:uuid:df310f21-1e25-4c6a-bd48-94cab2ae8791"
                  },
                  {
                    "reference": "urn:uuid:375d0425-b69e-47bd-ab09-0d6d9d64808b"
                  },
                  {
                    "reference": "urn:uuid:bee667fc-8063-4f67-8237-35450ce24a34"
                  },
                  {
                    "reference": "urn:uuid:17481fb4-c7af-486b-a0dc-2821a50d25c9"
                  },
                  {
                    "reference": "urn:uuid:2d870785-1395-445e-8280-d3aad5472fee"
                  },
                  {
                    "reference": "urn:uuid:29120a5b-5cc1-4013-a23a-9e115b262ee3"
                  },
                  {
                    "reference": "urn:uuid:8c75266e-6f1c-45c6-be74-2417ef6f24bf"
                  },
                  {
                    "reference": "urn:uuid:966011d0-3fa8-4955-b856-1ceda454a96e"
                  },
                  {
                    "reference": "urn:uuid:4d70ad3b-3d10-415a-be47-f18deea17cf0"
                  }
                ],
                "text": {
                  "status": "generated",
                  "div": "<div xmlns=\"http://www.w3.org/1999/xhtml\"><h3>Chemistry</h3><table class=\"hl7__eu__lab__report\"><thead><tr><th>Test</th><th>30-AUG-2022</th><th>Reference&#xA0;Range</th><th>Unit</th></tr></thead><tbody><tr><td>Glucose [Mass/volume] in Serum or Plasma</td><td><strong>65.9 L</strong></td><td>70 - 99</td><td>mg/dL</td></tr><tr><td>Urea nitrogen [Mass/volume] in Serum or Plasma</td><td>14.0</td><td>7 - 50</td><td>mg/dL</td></tr><tr><td>Creatinine [Mass/volume] in Serum or Plasma</td><td><strong>2.1 H</strong></td><td>0.6 - 1.1</td><td>mg/dL</td></tr><tr><td>Calcium [Mass/volume] in Serum or Plasma</td><td>8.6</td><td>8.6 - 10.4</td><td>mg/dL</td></tr><tr><td>Sodium [Moles/volume] in Serum or Plasma</td><td>144.0</td><td>135 - 145</td><td>mmol/L</td></tr><tr><td>Potassium [Moles/volume] in Serum or Plasma</td><td>3.9</td><td>3.5 - 5.1</td><td>mmol/L</td></tr><tr><td>Chloride [Moles/volume] in Serum or Plasma</td><td><strong>108.5 H</strong></td><td>98 - 108</td><td>mmol/L</td></tr><tr><td>Carbon dioxide, total [Moles/volume] in Serum or Plasma</td><td>26.2</td><td>22 - 32</td><td>mmol/L</td></tr><tr><td>Ketones [Presence] in Urine by Test strip</td><td>Urine ketone test = ++</td><td></td><td></td></tr><tr><td>Hemoglobin A1c/Hemoglobin.total in Blood</td><td><strong>3.1 L</strong></td><td>4 - 6.4</td><td>%</td></tr><tr><td>Glucose [Mass/volume] in Blood</td><td><strong>65.9 L</strong></td><td>70 - 100</td><td>mg/dL</td></tr><tr><td>Urea nitrogen [Mass/volume] in Blood</td><td>14.0</td><td>7 - 43</td><td>mg/dL</td></tr><tr><td>Creatinine [Mass/volume] in Blood</td><td><strong>2.6 H</strong></td><td>0.6 - 1.1</td><td>mg/dL</td></tr><tr><td>Calcium [Mass/volume] in Blood</td><td>8.6</td><td>8.5 - 10.5</td><td>mg/dL</td></tr><tr><td>Sodium [Moles/volume] in Blood</td><td>144.0</td><td>135 - 145</td><td>mmol/L</td></tr><tr><td>Potassium [Moles/volume] in Blood</td><td>3.9</td><td>3.5 - 5.1</td><td>mmol/L</td></tr><tr><td>Chloride [Moles/volume] in Blood</td><td><strong>108.5 H</strong></td><td>98 - 108</td><td>mmol/L</td></tr><tr><td>Carbon dioxide, total [Moles/volume] in Blood</td><td>26.2</td><td>22 - 29</td><td>mmol/L</td></tr></tbody></table></div>"
                },
                "title": "Chemistry"
              },
              {
                "code": {
                  "coding": [
                    {
                      "code": "$18729-4",
                      "system": "http://loinc.org",
                      "display": "Urinalysis studies (set)"
                    }
                  ],
                  "text": "Urinalysis"
                },
                "entry": [
                  {
                    "reference": "urn:uuid:745e9869-f571-484f-9830-70ba834bb8ac"
                  },
                  {
                    "reference": "urn:uuid:896e0943-3918-407c-82e5-bd515ebff375"
                  },
                  {
                    "reference": "urn:uuid:e28ffc01-b30e-48fe-b3f2-f4f25c8af90a"
                  },
                  {
                    "reference": "urn:uuid:425e03f1-b368-4cf3-85a0-a596239c62a1"
                  },
                  {
                    "reference": "urn:uuid:18d4114e-3dc2-48a4-9952-f1961a245a33"
                  },
                  {
                    "reference": "urn:uuid:b7c229aa-9c12-4887-ab78-8ede92a33ab4"
                  },
                  {
                    "reference": "urn:uuid:9675ebb9-3fc7-4b6c-bc9c-a2724cb0faa7"
                  },
                  {
                    "reference": "urn:uuid:42377a8f-9512-4ece-80ab-4d80f396c13f"
                  },
                  {
                    "reference": "urn:uuid:c5f9cf04-e61b-4f69-8362-c2ea328b1bcd"
                  },
                  {
                    "reference": "urn:uuid:d84c2b25-6c8d-43f5-b1d3-8b9d5ef2a49e"
                  },
                  {
                    "reference": "urn:uuid:7b64ca80-5bb5-4fd5-ab82-5cea4e339416"
                  },
                  {
                    "reference": "urn:uuid:e3e38677-edb6-4d09-9209-1c4fd9b88ef4"
                  }
                ],
                "text": {
                  "status": "generated",
                  "div": "<div xmlns=\"http://www.w3.org/1999/xhtml\"><h3>Urinalysis</h3><table class=\"hl7__eu__lab__report\"><thead><tr><th>Test</th><th>30-AUG-2022</th><th>Reference&#xA0;Range</th><th>Unit</th></tr></thead><tbody><tr><td>Glucose [Mass/volume] in Urine by Test strip</td><td><strong>2.5 H</strong></td><td>0.8 - 0</td><td>mg/dL</td></tr><tr><td>Glucose [Presence] in Urine by Test strip</td><td>++</td><td></td><td></td></tr><tr><td>Bilirubin.total [Mass/volume] in Urine by Test strip</td><td>0.7</td><td>0 - 1</td><td>mg/dL</td></tr><tr><td>Bilirubin.total [Presence] in Urine by Test strip</td><td>Finding of bilirubin in urine</td><td></td><td></td></tr><tr><td>Ketones [Mass/volume] in Urine by Test strip</td><td><strong>6.3 H</strong></td><td>0 - 4</td><td>mg/dL</td></tr><tr><td>Specific gravity of Urine by Test strip</td><td><strong>1.0 L</strong></td><td>1.005 - 1.03</td><td>{nominal}</td></tr><tr><td>pH of Urine by Test strip</td><td>6.6</td><td>4.6 - 7</td><td>pH</td></tr><tr><td>Protein [Mass/volume] in Urine by Test strip</td><td><strong>230.9 H</strong></td><td>0 - 14</td><td>mg/dL</td></tr><tr><td>Protein [Presence] in Urine by Test strip</td><td>Urine protein test = ++</td><td></td><td></td></tr><tr><td>Nitrite [Presence] in Urine by Test strip</td><td>Urine nitrite negative</td><td></td><td></td></tr><tr><td>Hemoglobin [Presence] in Urine by Test strip</td><td>Urine blood test = negative</td><td></td><td></td></tr><tr><td>Leukocyte esterase [Presence] in Urine by Test strip</td><td>Urine leukocyte test negative</td><td></td><td></td></tr></tbody></table></div>"
                },
                "title": "Urinalysis"
              },
              {
                "code": {
                  "coding": [
                    {
                      "code": "$LP7846-1",
                      "system": "http://loinc.org",
                      "display": "Specimen information"
                    }
                  ],
                  "text": "Specimen information"
                },
                "entry": [
                  {
                    "reference": "urn:uuid:3ce120e3-1d60-4326-950b-119dd91b2a87"
                  },
                  {
                    "reference": "urn:uuid:3c376b19-9a97-46ad-8900-afc7619c7134"
                  },
                  {
                    "reference": "urn:uuid:e35aaa07-21df-4385-827d-6344b2e9f5a5"
                  },
                  {
                    "reference": "urn:uuid:e51d84eb-c570-4863-a311-9679bf0955a5"
                  }
                ],
                "text": {
                  "status": "generated",
                  "div": "<div xmlns=\"http://www.w3.org/1999/xhtml\"><h3>Specimen information</h3><table class=\"hl7__eu__lab__report\"><thead><tr><th>Test</th><th>30-AUG-2022</th><th>Specimen</th><th></th></tr></thead><tbody><tr><td>Appearance of Urine</td><td>Cloudy urine</td><td>Urine</td><td></td></tr><tr><td>Odor of Urine</td><td>Urine smell ammoniacal</td><td>Urine</td><td></td></tr><tr><td>Clarity of Urine</td><td>Translucent</td><td>Urine</td><td></td></tr><tr><td>Color of Urine</td><td>Brown color</td><td>Urine</td><td></td></tr></tbody></table></div>"
                },
                "title": "Specimen information"
              }
            ],
            "title": "Laboratory Report"
          },
          {
            "text": {
              "status": "generated",
              "div": "<div xmlns=\"http://www.w3.org/1999/xhtml\"><h3>Annotation</h3><table class=\"hl7__eu__lab__report\"><tr><th>Conclusion and Recommendations based on this report and previous findings known to us</th></tr><tr><td>The patient shows evidence of renal dysfunction (elevated creatinine), significant proteinuria, and abnormal urine findings (cloudy, brown, low specific gravity, ketones, glucose). There is also hypoglycemia and low HbA1c, suggesting chronic low glucose. Electrolytes are mostly normal except for mild hyperchloremia. Hematology is largely unremarkable except for borderline low MCV and high MCHC/MPV. Findings are consistent with possible diabetic nephropathy or another glomerular pathology; recommend urgent nephrology evaluation and further assessment for underlying metabolic and renal disorders.</td></tr></table></div>"
            },
            "code": {
              "coding": [
                {
                  "system": "http://loinc.org",
                  "code": "48767-8",
                  "display": "Annotation comment"
                }
              ]
            },
            "title": "Annotation comment"
          }
        ],
        "status": "final",
        "subject": {
          "reference": "urn:uuid:523b0a8c-3df5-46f5-9393-28086ccaa64c",
          "display": "Meaghan Neary"
        },
        "date": "2022-08-30T00:11:04Z",
        "title": "Laboratory Report",
        "confidentiality": "N"
      }
    },
    {
      "fullUrl": "urn:uuid:050d190b-f814-4c06-bba7-eb927b5da86b",
      "resource": {
        "resourceType": "DiagnosticReport",
        "id": "050d190b-f814-4c06-bba7-eb927b5da86b",
        "meta": {
          "profile": [
            "http://hl7.eu/fhir/laboratory/StructureDefinition/DiagnosticReport-eu-lab"
          ]
        },
        "identifier": [
          {
            "assigner": {
              "display": "HL7 Europe"
            },
            "system": "urn:oid:2.16.840.1.113883.2.51.999",
            "value": "1aaf01bc-fb7a-4b2c-b14c-34845ece2e3b"
          }
        ],
        "extension": [
          {
            "url": "http://hl7.org/fhir/5.0/StructureDefinition/extension-DiagnosticReport.composition",
            "valueReference": {
              "reference": "urn:uuid:8aa39a9a-e5e5-409f-88f9-cb49e00e91c6"
            }
          }
        ],
        "category": [
          {
            "coding": [
              {
                "code": "26436-6",
                "system": "http://loinc.org",
                "display": "Laboratory studies (set)"
              }
            ]
          }
        ],
        "specimen": [
          {
            "reference": "urn:uuid:e2c126d0-7b7f-4765-82b7-94a1ae90c4ec"
          },
          {
            "reference": "urn:uuid:50331d32-1f7f-4126-965e-0b2345773f60"
          },
          {
            "reference": "urn:uuid:8d951db2-a99d-4ec3-ac97-f5741a015585"
          },
          {
            "reference": "urn:uuid:8d951db2-a99d-4ec3-ac97-f5741a015585"
          }
        ],
        "result": [
          {
            "reference": "urn:uuid:0a4e3d5a-6278-4c9b-b97b-702cc16bb7b6"
          },
          {
            "reference": "urn:uuid:0f5d8e22-6f13-4f87-b438-799958371698"
          },
          {
            "reference": "urn:uuid:6f74bf96-1c22-4dff-b53f-f45fd732a1a1"
          },
          {
            "reference": "urn:uuid:a591734a-0cda-49d3-accd-05056cad7901"
          },
          {
            "reference": "urn:uuid:3b9d21ae-33fb-4c5a-b9cc-54bb2c7267d8"
          },
          {
            "reference": "urn:uuid:58e61781-caef-49e6-9b60-1db8b05ba96b"
          },
          {
            "reference": "urn:uuid:9fee434f-874e-4884-8632-1c474a95db1f"
          },
          {
            "reference": "urn:uuid:0afd693f-59da-4018-aa40-70a60494b212"
          },
          {
            "reference": "urn:uuid:3ce120e3-1d60-4326-950b-119dd91b2a87"
          },
          {
            "reference": "urn:uuid:3c376b19-9a97-46ad-8900-afc7619c7134"
          },
          {
            "reference": "urn:uuid:e35aaa07-21df-4385-827d-6344b2e9f5a5"
          },
          {
            "reference": "urn:uuid:e51d84eb-c570-4863-a311-9679bf0955a5"
          },
          {
            "reference": "urn:uuid:745e9869-f571-484f-9830-70ba834bb8ac"
          },
          {
            "reference": "urn:uuid:896e0943-3918-407c-82e5-bd515ebff375"
          },
          {
            "reference": "urn:uuid:e28ffc01-b30e-48fe-b3f2-f4f25c8af90a"
          },
          {
            "reference": "urn:uuid:425e03f1-b368-4cf3-85a0-a596239c62a1"
          },
          {
            "reference": "urn:uuid:18d4114e-3dc2-48a4-9952-f1961a245a33"
          },
          {
            "reference": "urn:uuid:396dc83d-2919-4221-9f50-535cf3adbdff"
          },
          {
            "reference": "urn:uuid:b7c229aa-9c12-4887-ab78-8ede92a33ab4"
          },
          {
            "reference": "urn:uuid:9675ebb9-3fc7-4b6c-bc9c-a2724cb0faa7"
          },
          {
            "reference": "urn:uuid:42377a8f-9512-4ece-80ab-4d80f396c13f"
          },
          {
            "reference": "urn:uuid:c5f9cf04-e61b-4f69-8362-c2ea328b1bcd"
          },
          {
            "reference": "urn:uuid:d84c2b25-6c8d-43f5-b1d3-8b9d5ef2a49e"
          },
          {
            "reference": "urn:uuid:7b64ca80-5bb5-4fd5-ab82-5cea4e339416"
          },
          {
            "reference": "urn:uuid:e3e38677-edb6-4d09-9209-1c4fd9b88ef4"
          },
          {
            "reference": "urn:uuid:df310f21-1e25-4c6a-bd48-94cab2ae8791"
          },
          {
            "reference": "urn:uuid:375d0425-b69e-47bd-ab09-0d6d9d64808b"
          },
          {
            "reference": "urn:uuid:bee667fc-8063-4f67-8237-35450ce24a34"
          },
          {
            "reference": "urn:uuid:17481fb4-c7af-486b-a0dc-2821a50d25c9"
          },
          {
            "reference": "urn:uuid:2d870785-1395-445e-8280-d3aad5472fee"
          },
          {
            "reference": "urn:uuid:29120a5b-5cc1-4013-a23a-9e115b262ee3"
          },
          {
            "reference": "urn:uuid:8c75266e-6f1c-45c6-be74-2417ef6f24bf"
          },
          {
            "reference": "urn:uuid:966011d0-3fa8-4955-b856-1ceda454a96e"
          },
          {
            "reference": "urn:uuid:4d70ad3b-3d10-415a-be47-f18deea17cf0"
          },
          {
            "reference": "urn:uuid:e34b9329-87ea-4cd4-b764-64f86ea7eee7"
          },
          {
            "reference": "urn:uuid:5f95d090-aa82-42cd-81a9-3a7c0ab780e8"
          },
          {
            "reference": "urn:uuid:ce41128e-eaa0-4823-83d7-f2c0c9e8c192"
          },
          {
            "reference": "urn:uuid:c373a27a-f240-4712-b73b-f40ae99780a4"
          },
          {
            "reference": "urn:uuid:ea102f3f-5182-4c85-80a3-a217f6c24dbd"
          },
          {
            "reference": "urn:uuid:700a4e2a-bbd8-4b6a-a82e-884c0b2a7e62"
          },
          {
            "reference": "urn:uuid:abc13237-59b7-46fe-b2c5-5fcb17c5058a"
          },
          {
            "reference": "urn:uuid:3bf1da61-3f86-4392-8a03-45f1d9f19b3c"
          },
          {
            "reference": "urn:uuid:7e4155a4-4a5d-4689-939a-1b26d0a0f769"
          },
          {
            "reference": "urn:uuid:643b781a-caa4-4d6c-b660-30c2017dc0c6"
          },
          {
            "reference": "urn:uuid:0c0c2f66-c751-4380-8c12-4748fcd24cbc"
          }
        ],
        "status": "registered",
        "code": {
          "coding": [
            {
              "code": "11502-2",
              "system": "http://loinc.org",
              "display": "Laboratory report"
            }
          ]
        },
        "subject": {
          "reference": "urn:uuid:523b0a8c-3df5-46f5-9393-28086ccaa64c",
          "display": "Meaghan Neary"
        }
      }
    },
    {
      "fullUrl": "urn:uuid:523b0a8c-3df5-46f5-9393-28086ccaa64c",
      "resource": {
        "resourceType": "Patient",
        "id": "523b0a8c-3df5-46f5-9393-28086ccaa64c",
        "meta": {
          "security": [
            {
              "system": "http://terminology.hl7.org/CodeSystem/v3-ActReason",
              "code": "HTEST"
            },
            {
              "system": "http://terminology.hl7.org/CodeSystem/v3-ActReason",
              "code": "TRAIN"
            }
          ],
          "tag": [
            {
              "system": "https://synderai.net/fhir/CodeSystem/tags",
              "code": "synthetic",
              "display": "SYNDERAI Synthetic data"
            }
          ],
          "profile": [
            "http://hl7.eu/fhir/base/StructureDefinition/patient-eu-core"
          ]
        },
        "identifier": [
          {
            "type": {
              "coding": [
                {
                  "code": "PT",
                  "system": "http://terminology.hl7.org/CodeSystem/v2-0203"
                }
              ]
            },
            "system": "http://ec.europa.eu/identifier/eci",
            "value": "1586-567257-8"
          },
          {
            "type": {
              "coding": [
                {
                  "code": "MR",
                  "system": "http://terminology.hl7.org/CodeSystem/v2-0203"
                }
              ]
            },
            "system": "http://local.setting.eu/identifier",
            "value": "443e6379-f231-b364-3ccb-644740a1aa2a"
          }
        ],
        "name": [
          {
            "family": "Neary"
          },
          {
            "given": [
              "Meaghan"
            ]
          },
          {
            "text": "Meaghan Neary"
          }
        ],
        "address": [
          {
            "line": [
              "64 Linskey Street"
            ],
            "use": "home",
            "type": "physical",
            "postalCode": "D02",
            "city": "Dublin",
            "country": "Ireland"
          }
        ],
        "telecom": [
          {
            "system": "phone",
            "value": "001-967-573-0911x465"
          }
        ],
        "extension": [
          {
            "url": "http://hl7.org/fhir/StructureDefinition/patient-nationality",
            "valueCodeableConcept": {
              "coding": [
                {
                  "code": "IE",
                  "system": "http://hl7.org/fhir/ValueSet/country"
                }
              ]
            }
          }
        ],
        "text": {
          "status": "generated",
          "div": "<div xmlns=\"http://www.w3.org/1999/xhtml\"><table class=\"hl7__ips\"><tr><td>Meaghan Neary</td><td>female</td><td>19-Dec-1960</td></tr></table></div>"
        },
        "gender": "female",
        "birthDate": "1960-12-19"
      }
    },
    {
      "fullUrl": "urn:uuid:86946307-f015-4a4a-9e05-d466834aee49",
      "resource": {
        "resourceType": "ServiceRequest",
        "id": "86946307-f015-4a4a-9e05-d466834aee49",
        "meta": {
          "profile": [
            "http://hl7.eu/fhir/laboratory/StructureDefinition/ServiceRequest-eu-lab"
          ]
        },
        "identifier": [
          {
            "system": "http://example.org",
            "value": "58642803-8f2c-493b-aedd-9bb8852ed158"
          }
        ],
        "specimen": [
          {
            "reference": "urn:uuid:e2c126d0-7b7f-4765-82b7-94a1ae90c4ec"
          },
          {
            "reference": "urn:uuid:50331d32-1f7f-4126-965e-0b2345773f60"
          },
          {
            "reference": "urn:uuid:8d951db2-a99d-4ec3-ac97-f5741a015585"
          }
        ],
        "reasonCode": [
          {
            "coding": [
              {
                "code": "55822004",
                "system": "http://snomed.info/sct",
                "display": "Hyperlipidemia"
              }
            ]
          },
          {
            "coding": [
              {
                "code": "433144002",
                "system": "http://snomed.info/sct",
                "display": "Chronic kidney disease stage 3"
              }
            ]
          },
          {
            "coding": [
              {
                "code": "157141000119108",
                "system": "http://snomed.info/sct",
                "display": "Proteinuria due to type 2 diabetes mellitus"
              }
            ]
          },
          {
            "coding": [
              {
                "code": "431856006",
                "system": "http://snomed.info/sct",
                "display": "Chronic kidney disease stage 2"
              }
            ]
          },
          {
            "coding": [
              {
                "code": "90781000119102",
                "system": "http://snomed.info/sct",
                "display": "Microalbuminuria due to type 2 diabetes mellitus"
              }
            ]
          },
          {
            "coding": [
              {
                "code": "127013003",
                "system": "http://snomed.info/sct",
                "display": "Disorder of kidney due to diabetes mellitus"
              }
            ]
          },
          {
            "coding": [
              {
                "code": "431855005",
                "system": "http://snomed.info/sct",
                "display": "Chronic kidney disease stage 1"
              }
            ]
          },
          {
            "coding": [
              {
                "code": "237602007",
                "system": "http://snomed.info/sct",
                "display": "Metabolic syndrome X"
              }
            ]
          },
          {
            "coding": [
              {
                "code": "271737000",
                "system": "http://snomed.info/sct",
                "display": "Anemia"
              }
            ]
          },
          {
            "coding": [
              {
                "code": "15777000",
                "system": "http://snomed.info/sct",
                "display": "Prediabetes"
              }
            ]
          },
          {
            "coding": [
              {
                "code": "59621000",
                "system": "http://snomed.info/sct",
                "display": "Essential hypertension"
              }
            ]
          }
        ],
        "status": "active",
        "intent": "order",
        "code": {
          "coding": [
            {
              "code": "108252007",
              "system": "http://snomed.info/sct",
              "display": "Laboratory procedure"
            }
          ]
        },
        "subject": {
          "reference": "urn:uuid:523b0a8c-3df5-46f5-9393-28086ccaa64c",
          "display": "Meaghan Neary"
        },
        "requester": {
          "reference": "urn:uuid:ea95556c-eceb-4dd1-aaa8-3f6598dfa5b7"
        }
      }
    },
    {
      "fullUrl": "urn:uuid:ea95556c-eceb-4dd1-aaa8-3f6598dfa5b7",
      "resource": {
        "resourceType": "PractitionerRole",
        "id": "ea95556c-eceb-4dd1-aaa8-3f6598dfa5b7",
        "meta": {
          "profile": [
            "http://hl7.eu/fhir/base/StructureDefinition/practitionerRole-eu"
          ]
        },
        "text": {
          "status": "generated",
          "div": "<div xmlns=\"http://www.w3.org/1999/xhtml\">Provider Role Id: ea95556c-eceb-4dd1-aaa8-3f6598dfa5b7</div>"
        },
        "organization": {
          "reference": "urn:uuid:f8ce9878-1f13-4f01-82b8-d1912dca6234"
        }
      }
    },
    {
      "fullUrl": "urn:uuid:f8ce9878-1f13-4f01-82b8-d1912dca6234",
      "resource": {
        "resourceType": "Organization",
        "id": "f8ce9878-1f13-4f01-82b8-d1912dca6234",
        "meta": {
          "profile": [
            "http://hl7.eu/fhir/base/StructureDefinition/organization-eu"
          ]
        },
        "identifier": [
          {
            "assigner": {
              "display": "HL7 Europe"
            },
            "system": "urn:oid:2.16.840.1.113883.2.51.999",
            "value": "8afc69e5-4a57-4027-a83c-6ed8e32e9833"
          }
        ],
        "address": [
          {
            "line": [
              "Parnell Square West nan"
            ],
            "city": "Dublin",
            "postalCode": "D01",
            "country": "Ireland"
          }
        ],
        "text": {
          "status": "generated",
          "div": "<div xmlns=\"http://www.w3.org/1999/xhtml\">Provider Organization: Rotunda Hospital</div>"
        },
        "name": "Rotunda Hospital"
      }
    },
    {
      "fullUrl": "urn:uuid:e2c126d0-7b7f-4765-82b7-94a1ae90c4ec",
      "resource": {
        "resourceType": "Specimen",
        "id": "e2c126d0-7b7f-4765-82b7-94a1ae90c4ec",
        "meta": {
          "profile": [
            "http://hl7.eu/fhir/laboratory/StructureDefinition/Specimen-eu-lab"
          ]
        },
        "collection": {
          "collectedDateTime": "2022-08-29"
        },
        "text": {
          "status": "generated",
          "div": "<div xmlns=\"http://www.w3.org/1999/xhtml\"><table class=\"hl7__eu__lab__report\"><tr><th>Specimen</th><th>Collection Date</th></tr><tr><td>Acellular blood (serum or plasma) specimen</td><td><span class=\"nb\">29-Aug-2022</span></td></tr></table></div>"
        },
        "type": {
          "coding": [
            {
              "code": "122592007",
              "system": "http://snomed.info/sct",
              "display": "Acellular blood (serum or plasma) specimen"
            }
          ]
        }
      }
    },
    {
      "fullUrl": "urn:uuid:50331d32-1f7f-4126-965e-0b2345773f60",
      "resource": {
        "resourceType": "Specimen",
        "id": "50331d32-1f7f-4126-965e-0b2345773f60",
        "meta": {
          "profile": [
            "http://hl7.eu/fhir/laboratory/StructureDefinition/Specimen-eu-lab"
          ]
        },
        "collection": {
          "collectedDateTime": "2022-08-29"
        },
        "text": {
          "status": "generated",
          "div": "<div xmlns=\"http://www.w3.org/1999/xhtml\"><table class=\"hl7__eu__lab__report\"><tr><th>Specimen</th><th>Collection Date</th></tr><tr><td>Urine specimen</td><td><span class=\"nb\">29-Aug-2022</span></td></tr></table></div>"
        },
        "type": {
          "coding": [
            {
              "code": "122575003",
              "system": "http://snomed.info/sct",
              "display": "Urine specimen"
            }
          ]
        }
      }
    },
    {
      "fullUrl": "urn:uuid:8d951db2-a99d-4ec3-ac97-f5741a015585",
      "resource": {
        "resourceType": "Specimen",
        "id": "8d951db2-a99d-4ec3-ac97-f5741a015585",
        "meta": {
          "profile": [
            "http://hl7.eu/fhir/laboratory/StructureDefinition/Specimen-eu-lab"
          ]
        },
        "collection": {
          "collectedDateTime": "2022-08-29"
        },
        "text": {
          "status": "generated",
          "div": "<div xmlns=\"http://www.w3.org/1999/xhtml\"><table class=\"hl7__eu__lab__report\"><tr><th>Specimen</th><th>Collection Date</th></tr><tr><td>Whole blood specimen (specimen)</td><td><span class=\"nb\">29-Aug-2022</span></td></tr></table></div>"
        },
        "type": {
          "coding": [
            {
              "code": "258580003",
              "system": "http://snomed.info/sct",
              "display": "Whole blood specimen (specimen)"
            }
          ]
        }
      }
    },
    {
      "fullUrl": "urn:uuid:8d951db2-a99d-4ec3-ac97-f5741a015585",
      "resource": {
        "resourceType": "Specimen",
        "id": "8d951db2-a99d-4ec3-ac97-f5741a015585",
        "meta": {
          "profile": [
            "http://hl7.eu/fhir/laboratory/StructureDefinition/Specimen-eu-lab"
          ]
        },
        "collection": {
          "collectedDateTime": "2022-08-29"
        },
        "text": {
          "status": "generated",
          "div": "<div xmlns=\"http://www.w3.org/1999/xhtml\"><table class=\"hl7__eu__lab__report\"><tr><th>Specimen</th><th>Collection Date</th></tr><tr><td>Whole blood specimen (specimen)</td><td><span class=\"nb\">29-Aug-2022</span></td></tr></table></div>"
        },
        "type": {
          "coding": [
            {
              "code": "258580003",
              "system": "http://snomed.info/sct",
              "display": "Whole blood specimen (specimen)"
            }
          ]
        }
      }
    },
    {
      "fullUrl": "urn:uuid:0a4e3d5a-6278-4c9b-b97b-702cc16bb7b6",
      "resource": {
        "resourceType": "Observation",
        "id": "0a4e3d5a-6278-4c9b-b97b-702cc16bb7b6",
        "meta": {
          "profile": [
            "http://hl7.eu/fhir/laboratory/StructureDefinition/Observation-resultslab-eu-lab"
          ]
        },
        "performer": [
          {
            "display": "The Central European Lab"
          }
        ],
        "category": [
          {
            "coding": [
              {
                "system": "http://terminology.hl7.org/CodeSystem/observation-category",
                "code": "laboratory"
              }
            ]
          }
        ],
        "code": {
          "coding": [
            {
              "code": "2345-7",
              "system": "http://loinc.org",
              "display": "Glucose [Mass/volume] in Serum or Plasma"
            }
          ],
          "text": "Glucose [Mass/volume] in Serum or Plasma"
        },
        "valueQuantity": {
          "system": "http://unitsofmeasure.org",
          "value": 65.9,
          "unit": "mg/dL",
          "code": "mg/dL"
        },
        "referenceRange": [
          {
            "low": {
              "value": 70,
              "code": "mg/dL",
              "system": "http://unitsofmeasure.org"
            }
          },
          {
            "high": {
              "value": 99,
              "code": "mg/dL",
              "system": "http://unitsofmeasure.org"
            }
          }
        ],
        "interpretation": [
          {
            "coding": [
              {
                "code": "L",
                "system": "http://terminology.hl7.org/CodeSystem/v3-ObservationInterpretation",
                "display": "Low"
              }
            ]
          }
        ],
        "text": {
          "status": "generated",
          "div": "<div xmlns=\"http://www.w3.org/1999/xhtml\"><table class=\"hl7__eu__lab__report\"><tr><th>Test</th><th>30-Aug-2022</th><th>Reference&#xA0;Range</th><th>Unit</th></tr><tr><td>Glucose [Mass/volume] in Serum or Plasma</td><td>65.9</td><td>70 - 99</td><td>L</td><td>mg/dL</td></tr></table></div>"
        },
        "status": "final",
        "subject": {
          "reference": "urn:uuid:523b0a8c-3df5-46f5-9393-28086ccaa64c",
          "display": "Meaghan Neary"
        },
        "effectiveDateTime": "2022-08-29T22:11:04Z",
        "specimen": {
          "reference": "urn:uuid:e2c126d0-7b7f-4765-82b7-94a1ae90c4ec"
        }
      }
    },
    {
      "fullUrl": "urn:uuid:0f5d8e22-6f13-4f87-b438-799958371698",
      "resource": {
        "resourceType": "Observation",
        "id": "0f5d8e22-6f13-4f87-b438-799958371698",
        "meta": {
          "profile": [
            "http://hl7.eu/fhir/laboratory/StructureDefinition/Observation-resultslab-eu-lab"
          ]
        },
        "performer": [
          {
            "display": "The Central European Lab"
          }
        ],
        "category": [
          {
            "coding": [
              {
                "system": "http://terminology.hl7.org/CodeSystem/observation-category",
                "code": "laboratory"
              }
            ]
          }
        ],
        "code": {
          "coding": [
            {
              "code": "3094-0",
              "system": "http://loinc.org",
              "display": "Urea nitrogen [Mass/volume] in Serum or Plasma"
            }
          ],
          "text": "Urea nitrogen [Mass/volume] in Serum or Plasma"
        },
        "valueQuantity": {
          "system": "http://unitsofmeasure.org",
          "value": 14,
          "unit": "mg/dL",
          "code": "mg/dL"
        },
        "referenceRange": [
          {
            "low": {
              "value": 7,
              "code": "mg/dL",
              "system": "http://unitsofmeasure.org"
            }
          },
          {
            "high": {
              "value": 50,
              "code": "mg/dL",
              "system": "http://unitsofmeasure.org"
            }
          }
        ],
        "text": {
          "status": "generated",
          "div": "<div xmlns=\"http://www.w3.org/1999/xhtml\"><table class=\"hl7__eu__lab__report\"><tr><th>Test</th><th>30-Aug-2022</th><th>Reference&#xA0;Range</th><th>Unit</th></tr><tr><td>Urea nitrogen [Mass/volume] in Serum or Plasma</td><td>14.0</td><td>7 - 50</td><td></td><td>mg/dL</td></tr></table></div>"
        },
        "status": "final",
        "subject": {
          "reference": "urn:uuid:523b0a8c-3df5-46f5-9393-28086ccaa64c",
          "display": "Meaghan Neary"
        },
        "effectiveDateTime": "2022-08-29T22:11:04Z",
        "specimen": {
          "reference": "urn:uuid:e2c126d0-7b7f-4765-82b7-94a1ae90c4ec"
        }
      }
    },
    {
      "fullUrl": "urn:uuid:6f74bf96-1c22-4dff-b53f-f45fd732a1a1",
      "resource": {
        "resourceType": "Observation",
        "id": "6f74bf96-1c22-4dff-b53f-f45fd732a1a1",
        "meta": {
          "profile": [
            "http://hl7.eu/fhir/laboratory/StructureDefinition/Observation-resultslab-eu-lab"
          ]
        },
        "performer": [
          {
            "display": "The Central European Lab"
          }
        ],
        "category": [
          {
            "coding": [
              {
                "system": "http://terminology.hl7.org/CodeSystem/observation-category",
                "code": "laboratory"
              }
            ]
          }
        ],
        "code": {
          "coding": [
            {
              "code": "2160-0",
              "system": "http://loinc.org",
              "display": "Creatinine [Mass/volume] in Serum or Plasma"
            }
          ],
          "text": "Creatinine [Mass/volume] in Serum or Plasma"
        },
        "valueQuantity": {
          "system": "http://unitsofmeasure.org",
          "value": 2.1,
          "unit": "mg/dL",
          "code": "mg/dL"
        },
        "referenceRange": [
          {
            "low": {
              "value": 0.6,
              "code": "mg/dL",
              "system": "http://unitsofmeasure.org"
            }
          },
          {
            "high": {
              "value": 1.1,
              "code": "mg/dL",
              "system": "http://unitsofmeasure.org"
            }
          }
        ],
        "interpretation": [
          {
            "coding": [
              {
                "code": "H",
                "system": "http://terminology.hl7.org/CodeSystem/v3-ObservationInterpretation",
                "display": "High"
              }
            ]
          }
        ],
        "text": {
          "status": "generated",
          "div": "<div xmlns=\"http://www.w3.org/1999/xhtml\"><table class=\"hl7__eu__lab__report\"><tr><th>Test</th><th>30-Aug-2022</th><th>Reference&#xA0;Range</th><th>Unit</th></tr><tr><td>Creatinine [Mass/volume] in Serum or Plasma</td><td>2.1</td><td>0.6 - 1.1</td><td>H</td><td>mg/dL</td></tr></table></div>"
        },
        "status": "final",
        "subject": {
          "reference": "urn:uuid:523b0a8c-3df5-46f5-9393-28086ccaa64c",
          "display": "Meaghan Neary"
        },
        "effectiveDateTime": "2022-08-29T22:11:04Z",
        "specimen": {
          "reference": "urn:uuid:e2c126d0-7b7f-4765-82b7-94a1ae90c4ec"
        }
      }
    },
    {
      "fullUrl": "urn:uuid:a591734a-0cda-49d3-accd-05056cad7901",
      "resource": {
        "resourceType": "Observation",
        "id": "a591734a-0cda-49d3-accd-05056cad7901",
        "meta": {
          "profile": [
            "http://hl7.eu/fhir/laboratory/StructureDefinition/Observation-resultslab-eu-lab"
          ]
        },
        "performer": [
          {
            "display": "The Central European Lab"
          }
        ],
        "category": [
          {
            "coding": [
              {
                "system": "http://terminology.hl7.org/CodeSystem/observation-category",
                "code": "laboratory"
              }
            ]
          }
        ],
        "code": {
          "coding": [
            {
              "code": "17861-6",
              "system": "http://loinc.org",
              "display": "Calcium [Mass/volume] in Serum or Plasma"
            }
          ],
          "text": "Calcium [Mass/volume] in Serum or Plasma"
        },
        "valueQuantity": {
          "system": "http://unitsofmeasure.org",
          "value": 8.6,
          "unit": "mg/dL",
          "code": "mg/dL"
        },
        "referenceRange": [
          {
            "low": {
              "value": 8.6,
              "code": "mg/dL",
              "system": "http://unitsofmeasure.org"
            }
          },
          {
            "high": {
              "value": 10.4,
              "code": "mg/dL",
              "system": "http://unitsofmeasure.org"
            }
          }
        ],
        "text": {
          "status": "generated",
          "div": "<div xmlns=\"http://www.w3.org/1999/xhtml\"><table class=\"hl7__eu__lab__report\"><tr><th>Test</th><th>30-Aug-2022</th><th>Reference&#xA0;Range</th><th>Unit</th></tr><tr><td>Calcium [Mass/volume] in Serum or Plasma</td><td>8.6</td><td>8.6 - 10.4</td><td></td><td>mg/dL</td></tr></table></div>"
        },
        "status": "final",
        "subject": {
          "reference": "urn:uuid:523b0a8c-3df5-46f5-9393-28086ccaa64c",
          "display": "Meaghan Neary"
        },
        "effectiveDateTime": "2022-08-29T22:11:04Z",
        "specimen": {
          "reference": "urn:uuid:e2c126d0-7b7f-4765-82b7-94a1ae90c4ec"
        }
      }
    },
    {
      "fullUrl": "urn:uuid:3b9d21ae-33fb-4c5a-b9cc-54bb2c7267d8",
      "resource": {
        "resourceType": "Observation",
        "id": "3b9d21ae-33fb-4c5a-b9cc-54bb2c7267d8",
        "meta": {
          "profile": [
            "http://hl7.eu/fhir/laboratory/StructureDefinition/Observation-resultslab-eu-lab"
          ]
        },
        "performer": [
          {
            "display": "The Central European Lab"
          }
        ],
        "category": [
          {
            "coding": [
              {
                "system": "http://terminology.hl7.org/CodeSystem/observation-category",
                "code": "laboratory"
              }
            ]
          }
        ],
        "code": {
          "coding": [
            {
              "code": "2951-2",
              "system": "http://loinc.org",
              "display": "Sodium [Moles/volume] in Serum or Plasma"
            }
          ],
          "text": "Sodium [Moles/volume] in Serum or Plasma"
        },
        "valueQuantity": {
          "system": "http://unitsofmeasure.org",
          "value": 144,
          "unit": "mmol/L",
          "code": "mmol/L"
        },
        "referenceRange": [
          {
            "low": {
              "value": 135,
              "code": "mmol/L",
              "system": "http://unitsofmeasure.org"
            }
          },
          {
            "high": {
              "value": 145,
              "code": "mmol/L",
              "system": "http://unitsofmeasure.org"
            }
          }
        ],
        "text": {
          "status": "generated",
          "div": "<div xmlns=\"http://www.w3.org/1999/xhtml\"><table class=\"hl7__eu__lab__report\"><tr><th>Test</th><th>30-Aug-2022</th><th>Reference&#xA0;Range</th><th>Unit</th></tr><tr><td>Sodium [Moles/volume] in Serum or Plasma</td><td>144.0</td><td>135 - 145</td><td></td><td>mmol/L</td></tr></table></div>"
        },
        "status": "final",
        "subject": {
          "reference": "urn:uuid:523b0a8c-3df5-46f5-9393-28086ccaa64c",
          "display": "Meaghan Neary"
        },
        "effectiveDateTime": "2022-08-29T22:11:04Z",
        "specimen": {
          "reference": "urn:uuid:e2c126d0-7b7f-4765-82b7-94a1ae90c4ec"
        }
      }
    },
    {
      "fullUrl": "urn:uuid:58e61781-caef-49e6-9b60-1db8b05ba96b",
      "resource": {
        "resourceType": "Observation",
        "id": "58e61781-caef-49e6-9b60-1db8b05ba96b",
        "meta": {
          "profile": [
            "http://hl7.eu/fhir/laboratory/StructureDefinition/Observation-resultslab-eu-lab"
          ]
        },
        "performer": [
          {
            "display": "The Central European Lab"
          }
        ],
        "category": [
          {
            "coding": [
              {
                "system": "http://terminology.hl7.org/CodeSystem/observation-category",
                "code": "laboratory"
              }
            ]
          }
        ],
        "code": {
          "coding": [
            {
              "code": "2823-3",
              "system": "http://loinc.org",
              "display": "Potassium [Moles/volume] in Serum or Plasma"
            }
          ],
          "text": "Potassium [Moles/volume] in Serum or Plasma"
        },
        "valueQuantity": {
          "system": "http://unitsofmeasure.org",
          "value": 3.9,
          "unit": "mmol/L",
          "code": "mmol/L"
        },
        "referenceRange": [
          {
            "low": {
              "value": 3.5,
              "code": "mmol/L",
              "system": "http://unitsofmeasure.org"
            }
          },
          {
            "high": {
              "value": 5.1,
              "code": "mmol/L",
              "system": "http://unitsofmeasure.org"
            }
          }
        ],
        "text": {
          "status": "generated",
          "div": "<div xmlns=\"http://www.w3.org/1999/xhtml\"><table class=\"hl7__eu__lab__report\"><tr><th>Test</th><th>30-Aug-2022</th><th>Reference&#xA0;Range</th><th>Unit</th></tr><tr><td>Potassium [Moles/volume] in Serum or Plasma</td><td>3.9</td><td>3.5 - 5.1</td><td></td><td>mmol/L</td></tr></table></div>"
        },
        "status": "final",
        "subject": {
          "reference": "urn:uuid:523b0a8c-3df5-46f5-9393-28086ccaa64c",
          "display": "Meaghan Neary"
        },
        "effectiveDateTime": "2022-08-29T22:11:04Z",
        "specimen": {
          "reference": "urn:uuid:e2c126d0-7b7f-4765-82b7-94a1ae90c4ec"
        }
      }
    },
    {
      "fullUrl": "urn:uuid:9fee434f-874e-4884-8632-1c474a95db1f",
      "resource": {
        "resourceType": "Observation",
        "id": "9fee434f-874e-4884-8632-1c474a95db1f",
        "meta": {
          "profile": [
            "http://hl7.eu/fhir/laboratory/StructureDefinition/Observation-resultslab-eu-lab"
          ]
        },
        "performer": [
          {
            "display": "The Central European Lab"
          }
        ],
        "category": [
          {
            "coding": [
              {
                "system": "http://terminology.hl7.org/CodeSystem/observation-category",
                "code": "laboratory"
              }
            ]
          }
        ],
        "code": {
          "coding": [
            {
              "code": "2075-0",
              "system": "http://loinc.org",
              "display": "Chloride [Moles/volume] in Serum or Plasma"
            }
          ],
          "text": "Chloride [Moles/volume] in Serum or Plasma"
        },
        "valueQuantity": {
          "system": "http://unitsofmeasure.org",
          "value": 108.5,
          "unit": "mmol/L",
          "code": "mmol/L"
        },
        "referenceRange": [
          {
            "low": {
              "value": 98,
              "code": "mmol/L",
              "system": "http://unitsofmeasure.org"
            }
          },
          {
            "high": {
              "value": 108,
              "code": "mmol/L",
              "system": "http://unitsofmeasure.org"
            }
          }
        ],
        "interpretation": [
          {
            "coding": [
              {
                "code": "H",
                "system": "http://terminology.hl7.org/CodeSystem/v3-ObservationInterpretation",
                "display": "High"
              }
            ]
          }
        ],
        "text": {
          "status": "generated",
          "div": "<div xmlns=\"http://www.w3.org/1999/xhtml\"><table class=\"hl7__eu__lab__report\"><tr><th>Test</th><th>30-Aug-2022</th><th>Reference&#xA0;Range</th><th>Unit</th></tr><tr><td>Chloride [Moles/volume] in Serum or Plasma</td><td>108.5</td><td>98 - 108</td><td>H</td><td>mmol/L</td></tr></table></div>"
        },
        "status": "final",
        "subject": {
          "reference": "urn:uuid:523b0a8c-3df5-46f5-9393-28086ccaa64c",
          "display": "Meaghan Neary"
        },
        "effectiveDateTime": "2022-08-29T22:11:04Z",
        "specimen": {
          "reference": "urn:uuid:e2c126d0-7b7f-4765-82b7-94a1ae90c4ec"
        }
      }
    },
    {
      "fullUrl": "urn:uuid:0afd693f-59da-4018-aa40-70a60494b212",
      "resource": {
        "resourceType": "Observation",
        "id": "0afd693f-59da-4018-aa40-70a60494b212",
        "meta": {
          "profile": [
            "http://hl7.eu/fhir/laboratory/StructureDefinition/Observation-resultslab-eu-lab"
          ]
        },
        "performer": [
          {
            "display": "The Central European Lab"
          }
        ],
        "category": [
          {
            "coding": [
              {
                "system": "http://terminology.hl7.org/CodeSystem/observation-category",
                "code": "laboratory"
              }
            ]
          }
        ],
        "code": {
          "coding": [
            {
              "code": "2028-9",
              "system": "http://loinc.org",
              "display": "Carbon dioxide, total [Moles/volume] in Serum or Plasma"
            }
          ],
          "text": "Carbon dioxide, total [Moles/volume] in Serum or Plasma"
        },
        "valueQuantity": {
          "system": "http://unitsofmeasure.org",
          "value": 26.2,
          "unit": "mmol/L",
          "code": "mmol/L"
        },
        "referenceRange": [
          {
            "low": {
              "value": 22,
              "code": "mmol/L",
              "system": "http://unitsofmeasure.org"
            }
          },
          {
            "high": {
              "value": 32,
              "code": "mmol/L",
              "system": "http://unitsofmeasure.org"
            }
          }
        ],
        "text": {
          "status": "generated",
          "div": "<div xmlns=\"http://www.w3.org/1999/xhtml\"><table class=\"hl7__eu__lab__report\"><tr><th>Test</th><th>30-Aug-2022</th><th>Reference&#xA0;Range</th><th>Unit</th></tr><tr><td>Carbon dioxide, total [Moles/volume] in Serum or Plasma</td><td>26.2</td><td>22 - 32</td><td></td><td>mmol/L</td></tr></table></div>"
        },
        "status": "final",
        "subject": {
          "reference": "urn:uuid:523b0a8c-3df5-46f5-9393-28086ccaa64c",
          "display": "Meaghan Neary"
        },
        "effectiveDateTime": "2022-08-29T22:11:04Z",
        "specimen": {
          "reference": "urn:uuid:e2c126d0-7b7f-4765-82b7-94a1ae90c4ec"
        }
      }
    },
    {
      "fullUrl": "urn:uuid:3ce120e3-1d60-4326-950b-119dd91b2a87",
      "resource": {
        "resourceType": "Observation",
        "id": "3ce120e3-1d60-4326-950b-119dd91b2a87",
        "meta": {
          "profile": [
            "http://hl7.eu/fhir/laboratory/StructureDefinition/Observation-resultslab-eu-lab"
          ]
        },
        "performer": [
          {
            "display": "The Central European Lab"
          }
        ],
        "category": [
          {
            "coding": [
              {
                "system": "http://terminology.hl7.org/CodeSystem/observation-category",
                "code": "laboratory"
              }
            ]
          }
        ],
        "code": {
          "coding": [
            {
              "code": "5767-9",
              "system": "http://loinc.org",
              "display": "Appearance of Urine"
            }
          ],
          "text": "Appearance of Urine"
        },
        "text": {
          "status": "generated",
          "div": "<div xmlns=\"http://www.w3.org/1999/xhtml\"><table class=\"hl7__eu__lab__report\"><tr><th>Test</th><th>30-Aug-2022</th><th>Reference&#xA0;Range</th><th>Unit</th></tr><tr><td>Appearance of Urine</td></tr></table></div>"
        },
        "status": "final",
        "subject": {
          "reference": "urn:uuid:523b0a8c-3df5-46f5-9393-28086ccaa64c",
          "display": "Meaghan Neary"
        },
        "effectiveDateTime": "2022-08-29T22:11:04Z",
        "specimen": {
          "reference": "urn:uuid:50331d32-1f7f-4126-965e-0b2345773f60"
        }
      }
    },
    {
      "fullUrl": "urn:uuid:3c376b19-9a97-46ad-8900-afc7619c7134",
      "resource": {
        "resourceType": "Observation",
        "id": "3c376b19-9a97-46ad-8900-afc7619c7134",
        "meta": {
          "profile": [
            "http://hl7.eu/fhir/laboratory/StructureDefinition/Observation-resultslab-eu-lab"
          ]
        },
        "performer": [
          {
            "display": "The Central European Lab"
          }
        ],
        "category": [
          {
            "coding": [
              {
                "system": "http://terminology.hl7.org/CodeSystem/observation-category",
                "code": "laboratory"
              }
            ]
          }
        ],
        "code": {
          "coding": [
            {
              "code": "34533-0",
              "system": "http://loinc.org",
              "display": "Odor of Urine"
            }
          ],
          "text": "Odor of Urine"
        },
        "text": {
          "status": "generated",
          "div": "<div xmlns=\"http://www.w3.org/1999/xhtml\"><table class=\"hl7__eu__lab__report\"><tr><th>Test</th><th>30-Aug-2022</th><th>Reference&#xA0;Range</th><th>Unit</th></tr><tr><td>Odor of Urine</td></tr></table></div>"
        },
        "status": "final",
        "subject": {
          "reference": "urn:uuid:523b0a8c-3df5-46f5-9393-28086ccaa64c",
          "display": "Meaghan Neary"
        },
        "effectiveDateTime": "2022-08-29T22:11:04Z",
        "specimen": {
          "reference": "urn:uuid:50331d32-1f7f-4126-965e-0b2345773f60"
        }
      }
    },
    {
      "fullUrl": "urn:uuid:e35aaa07-21df-4385-827d-6344b2e9f5a5",
      "resource": {
        "resourceType": "Observation",
        "id": "e35aaa07-21df-4385-827d-6344b2e9f5a5",
        "meta": {
          "profile": [
            "http://hl7.eu/fhir/laboratory/StructureDefinition/Observation-resultslab-eu-lab"
          ]
        },
        "performer": [
          {
            "display": "The Central European Lab"
          }
        ],
        "category": [
          {
            "coding": [
              {
                "system": "http://terminology.hl7.org/CodeSystem/observation-category",
                "code": "laboratory"
              }
            ]
          }
        ],
        "code": {
          "coding": [
            {
              "code": "32167-9",
              "system": "http://loinc.org",
              "display": "Clarity of Urine"
            }
          ],
          "text": "Clarity of Urine"
        },
        "text": {
          "status": "generated",
          "div": "<div xmlns=\"http://www.w3.org/1999/xhtml\"><table class=\"hl7__eu__lab__report\"><tr><th>Test</th><th>30-Aug-2022</th><th>Reference&#xA0;Range</th><th>Unit</th></tr><tr><td>Clarity of Urine</td></tr></table></div>"
        },
        "status": "final",
        "subject": {
          "reference": "urn:uuid:523b0a8c-3df5-46f5-9393-28086ccaa64c",
          "display": "Meaghan Neary"
        },
        "effectiveDateTime": "2022-08-29T22:11:04Z",
        "specimen": {
          "reference": "urn:uuid:50331d32-1f7f-4126-965e-0b2345773f60"
        }
      }
    },
    {
      "fullUrl": "urn:uuid:e51d84eb-c570-4863-a311-9679bf0955a5",
      "resource": {
        "resourceType": "Observation",
        "id": "e51d84eb-c570-4863-a311-9679bf0955a5",
        "meta": {
          "profile": [
            "http://hl7.eu/fhir/laboratory/StructureDefinition/Observation-resultslab-eu-lab"
          ]
        },
        "performer": [
          {
            "display": "The Central European Lab"
          }
        ],
        "category": [
          {
            "coding": [
              {
                "system": "http://terminology.hl7.org/CodeSystem/observation-category",
                "code": "laboratory"
              }
            ]
          }
        ],
        "code": {
          "coding": [
            {
              "code": "5778-6",
              "system": "http://loinc.org",
              "display": "Color of Urine"
            }
          ],
          "text": "Color of Urine"
        },
        "text": {
          "status": "generated",
          "div": "<div xmlns=\"http://www.w3.org/1999/xhtml\"><table class=\"hl7__eu__lab__report\"><tr><th>Test</th><th>30-Aug-2022</th><th>Reference&#xA0;Range</th><th>Unit</th></tr><tr><td>Color of Urine</td></tr></table></div>"
        },
        "status": "final",
        "subject": {
          "reference": "urn:uuid:523b0a8c-3df5-46f5-9393-28086ccaa64c",
          "display": "Meaghan Neary"
        },
        "effectiveDateTime": "2022-08-29T22:11:04Z",
        "specimen": {
          "reference": "urn:uuid:50331d32-1f7f-4126-965e-0b2345773f60"
        }
      }
    },
    {
      "fullUrl": "urn:uuid:745e9869-f571-484f-9830-70ba834bb8ac",
      "resource": {
        "resourceType": "Observation",
        "id": "745e9869-f571-484f-9830-70ba834bb8ac",
        "meta": {
          "profile": [
            "http://hl7.eu/fhir/laboratory/StructureDefinition/Observation-resultslab-eu-lab"
          ]
        },
        "performer": [
          {
            "display": "The Central European Lab"
          }
        ],
        "category": [
          {
            "coding": [
              {
                "system": "http://terminology.hl7.org/CodeSystem/observation-category",
                "code": "laboratory"
              }
            ]
          }
        ],
        "code": {
          "coding": [
            {
              "code": "5792-7",
              "system": "http://loinc.org",
              "display": "Glucose [Mass/volume] in Urine by Test strip"
            }
          ],
          "text": "Glucose [Mass/volume] in Urine by Test strip"
        },
        "valueQuantity": {
          "system": "http://unitsofmeasure.org",
          "value": 2.5,
          "unit": "mg/dL",
          "code": "mg/dL"
        },
        "referenceRange": [
          {
            "low": {
              "value": 0.8,
              "code": "mg/dL",
              "system": "http://unitsofmeasure.org"
            }
          },
          {
            "high": {
              "value": 0,
              "code": "mg/dL",
              "system": "http://unitsofmeasure.org"
            }
          }
        ],
        "interpretation": [
          {
            "coding": [
              {
                "code": "H",
                "system": "http://terminology.hl7.org/CodeSystem/v3-ObservationInterpretation",
                "display": "High"
              }
            ]
          }
        ],
        "text": {
          "status": "generated",
          "div": "<div xmlns=\"http://www.w3.org/1999/xhtml\"><table class=\"hl7__eu__lab__report\"><tr><th>Test</th><th>30-Aug-2022</th><th>Reference&#xA0;Range</th><th>Unit</th></tr><tr><td>Glucose [Mass/volume] in Urine by Test strip</td><td>2.5</td><td>0.8 - 0</td><td>H</td><td>mg/dL</td></tr></table></div>"
        },
        "status": "final",
        "subject": {
          "reference": "urn:uuid:523b0a8c-3df5-46f5-9393-28086ccaa64c",
          "display": "Meaghan Neary"
        },
        "effectiveDateTime": "2022-08-29T22:11:04Z",
        "specimen": {
          "reference": "urn:uuid:50331d32-1f7f-4126-965e-0b2345773f60"
        }
      }
    },
    {
      "fullUrl": "urn:uuid:896e0943-3918-407c-82e5-bd515ebff375",
      "resource": {
        "resourceType": "Observation",
        "id": "896e0943-3918-407c-82e5-bd515ebff375",
        "meta": {
          "profile": [
            "http://hl7.eu/fhir/laboratory/StructureDefinition/Observation-resultslab-eu-lab"
          ]
        },
        "performer": [
          {
            "display": "The Central European Lab"
          }
        ],
        "category": [
          {
            "coding": [
              {
                "system": "http://terminology.hl7.org/CodeSystem/observation-category",
                "code": "laboratory"
              }
            ]
          }
        ],
        "code": {
          "coding": [
            {
              "code": "25428-4",
              "system": "http://loinc.org",
              "display": "Glucose [Presence] in Urine by Test strip"
            }
          ],
          "text": "Glucose [Presence] in Urine by Test strip"
        },
        "text": {
          "status": "generated",
          "div": "<div xmlns=\"http://www.w3.org/1999/xhtml\"><table class=\"hl7__eu__lab__report\"><tr><th>Test</th><th>30-Aug-2022</th><th>Reference&#xA0;Range</th><th>Unit</th></tr><tr><td>Glucose [Presence] in Urine by Test strip</td></tr></table></div>"
        },
        "status": "final",
        "subject": {
          "reference": "urn:uuid:523b0a8c-3df5-46f5-9393-28086ccaa64c",
          "display": "Meaghan Neary"
        },
        "effectiveDateTime": "2022-08-29T22:11:04Z",
        "specimen": {
          "reference": "urn:uuid:50331d32-1f7f-4126-965e-0b2345773f60"
        }
      }
    },
    {
      "fullUrl": "urn:uuid:e28ffc01-b30e-48fe-b3f2-f4f25c8af90a",
      "resource": {
        "resourceType": "Observation",
        "id": "e28ffc01-b30e-48fe-b3f2-f4f25c8af90a",
        "meta": {
          "profile": [
            "http://hl7.eu/fhir/laboratory/StructureDefinition/Observation-resultslab-eu-lab"
          ]
        },
        "performer": [
          {
            "display": "The Central European Lab"
          }
        ],
        "category": [
          {
            "coding": [
              {
                "system": "http://terminology.hl7.org/CodeSystem/observation-category",
                "code": "laboratory"
              }
            ]
          }
        ],
        "code": {
          "coding": [
            {
              "code": "20505-4",
              "system": "http://loinc.org",
              "display": "Bilirubin.total [Mass/volume] in Urine by Test strip"
            }
          ],
          "text": "Bilirubin.total [Mass/volume] in Urine by Test strip"
        },
        "valueQuantity": {
          "system": "http://unitsofmeasure.org",
          "value": 0.7,
          "unit": "mg/dL",
          "code": "mg/dL"
        },
        "referenceRange": [
          {
            "low": {
              "value": 0,
              "code": "mg/dL",
              "system": "http://unitsofmeasure.org"
            }
          },
          {
            "high": {
              "value": 1,
              "code": "mg/dL",
              "system": "http://unitsofmeasure.org"
            }
          }
        ],
        "text": {
          "status": "generated",
          "div": "<div xmlns=\"http://www.w3.org/1999/xhtml\"><table class=\"hl7__eu__lab__report\"><tr><th>Test</th><th>30-Aug-2022</th><th>Reference&#xA0;Range</th><th>Unit</th></tr><tr><td>Bilirubin.total [Mass/volume] in Urine by Test strip</td><td>0.7</td><td>0 - 1</td><td></td><td>mg/dL</td></tr></table></div>"
        },
        "status": "final",
        "subject": {
          "reference": "urn:uuid:523b0a8c-3df5-46f5-9393-28086ccaa64c",
          "display": "Meaghan Neary"
        },
        "effectiveDateTime": "2022-08-29T22:11:04Z",
        "specimen": {
          "reference": "urn:uuid:50331d32-1f7f-4126-965e-0b2345773f60"
        }
      }
    },
    {
      "fullUrl": "urn:uuid:425e03f1-b368-4cf3-85a0-a596239c62a1",
      "resource": {
        "resourceType": "Observation",
        "id": "425e03f1-b368-4cf3-85a0-a596239c62a1",
        "meta": {
          "profile": [
            "http://hl7.eu/fhir/laboratory/StructureDefinition/Observation-resultslab-eu-lab"
          ]
        },
        "performer": [
          {
            "display": "The Central European Lab"
          }
        ],
        "category": [
          {
            "coding": [
              {
                "system": "http://terminology.hl7.org/CodeSystem/observation-category",
                "code": "laboratory"
              }
            ]
          }
        ],
        "code": {
          "coding": [
            {
              "code": "5770-3",
              "system": "http://loinc.org",
              "display": "Bilirubin.total [Presence] in Urine by Test strip"
            }
          ],
          "text": "Bilirubin.total [Presence] in Urine by Test strip"
        },
        "text": {
          "status": "generated",
          "div": "<div xmlns=\"http://www.w3.org/1999/xhtml\"><table class=\"hl7__eu__lab__report\"><tr><th>Test</th><th>30-Aug-2022</th><th>Reference&#xA0;Range</th><th>Unit</th></tr><tr><td>Bilirubin.total [Presence] in Urine by Test strip</td></tr></table></div>"
        },
        "status": "final",
        "subject": {
          "reference": "urn:uuid:523b0a8c-3df5-46f5-9393-28086ccaa64c",
          "display": "Meaghan Neary"
        },
        "effectiveDateTime": "2022-08-29T22:11:04Z",
        "specimen": {
          "reference": "urn:uuid:50331d32-1f7f-4126-965e-0b2345773f60"
        }
      }
    },
    {
      "fullUrl": "urn:uuid:18d4114e-3dc2-48a4-9952-f1961a245a33",
      "resource": {
        "resourceType": "Observation",
        "id": "18d4114e-3dc2-48a4-9952-f1961a245a33",
        "meta": {
          "profile": [
            "http://hl7.eu/fhir/laboratory/StructureDefinition/Observation-resultslab-eu-lab"
          ]
        },
        "performer": [
          {
            "display": "The Central European Lab"
          }
        ],
        "category": [
          {
            "coding": [
              {
                "system": "http://terminology.hl7.org/CodeSystem/observation-category",
                "code": "laboratory"
              }
            ]
          }
        ],
        "code": {
          "coding": [
            {
              "code": "5797-6",
              "system": "http://loinc.org",
              "display": "Ketones [Mass/volume] in Urine by Test strip"
            }
          ],
          "text": "Ketones [Mass/volume] in Urine by Test strip"
        },
        "valueQuantity": {
          "system": "http://unitsofmeasure.org",
          "value": 6.3,
          "unit": "mg/dL",
          "code": "mg/dL"
        },
        "referenceRange": [
          {
            "low": {
              "value": 0,
              "code": "mg/dL",
              "system": "http://unitsofmeasure.org"
            }
          },
          {
            "high": {
              "value": 4,
              "code": "mg/dL",
              "system": "http://unitsofmeasure.org"
            }
          }
        ],
        "interpretation": [
          {
            "coding": [
              {
                "code": "H",
                "system": "http://terminology.hl7.org/CodeSystem/v3-ObservationInterpretation",
                "display": "High"
              }
            ]
          }
        ],
        "text": {
          "status": "generated",
          "div": "<div xmlns=\"http://www.w3.org/1999/xhtml\"><table class=\"hl7__eu__lab__report\"><tr><th>Test</th><th>30-Aug-2022</th><th>Reference&#xA0;Range</th><th>Unit</th></tr><tr><td>Ketones [Mass/volume] in Urine by Test strip</td><td>6.3</td><td>0 - 4</td><td>H</td><td>mg/dL</td></tr></table></div>"
        },
        "status": "final",
        "subject": {
          "reference": "urn:uuid:523b0a8c-3df5-46f5-9393-28086ccaa64c",
          "display": "Meaghan Neary"
        },
        "effectiveDateTime": "2022-08-29T22:11:04Z",
        "specimen": {
          "reference": "urn:uuid:50331d32-1f7f-4126-965e-0b2345773f60"
        }
      }
    },
    {
      "fullUrl": "urn:uuid:396dc83d-2919-4221-9f50-535cf3adbdff",
      "resource": {
        "resourceType": "Observation",
        "id": "396dc83d-2919-4221-9f50-535cf3adbdff",
        "meta": {
          "profile": [
            "http://hl7.eu/fhir/laboratory/StructureDefinition/Observation-resultslab-eu-lab"
          ]
        },
        "performer": [
          {
            "display": "The Central European Lab"
          }
        ],
        "category": [
          {
            "coding": [
              {
                "system": "http://terminology.hl7.org/CodeSystem/observation-category",
                "code": "laboratory"
              }
            ]
          }
        ],
        "code": {
          "coding": [
            {
              "code": "2514-8",
              "system": "http://loinc.org",
              "display": "Ketones [Presence] in Urine by Test strip"
            }
          ],
          "text": "Ketones [Presence] in Urine by Test strip"
        },
        "text": {
          "status": "generated",
          "div": "<div xmlns=\"http://www.w3.org/1999/xhtml\"><table class=\"hl7__eu__lab__report\"><tr><th>Test</th><th>30-Aug-2022</th><th>Reference&#xA0;Range</th><th>Unit</th></tr><tr><td>Ketones [Presence] in Urine by Test strip</td></tr></table></div>"
        },
        "status": "final",
        "subject": {
          "reference": "urn:uuid:523b0a8c-3df5-46f5-9393-28086ccaa64c",
          "display": "Meaghan Neary"
        },
        "effectiveDateTime": "2022-08-29T22:11:04Z",
        "specimen": {
          "reference": "urn:uuid:50331d32-1f7f-4126-965e-0b2345773f60"
        }
      }
    },
    {
      "fullUrl": "urn:uuid:b7c229aa-9c12-4887-ab78-8ede92a33ab4",
      "resource": {
        "resourceType": "Observation",
        "id": "b7c229aa-9c12-4887-ab78-8ede92a33ab4",
        "meta": {
          "profile": [
            "http://hl7.eu/fhir/laboratory/StructureDefinition/Observation-resultslab-eu-lab"
          ]
        },
        "performer": [
          {
            "display": "The Central European Lab"
          }
        ],
        "category": [
          {
            "coding": [
              {
                "system": "http://terminology.hl7.org/CodeSystem/observation-category",
                "code": "laboratory"
              }
            ]
          }
        ],
        "code": {
          "coding": [
            {
              "code": "5811-5",
              "system": "http://loinc.org",
              "display": "Specific gravity of Urine by Test strip"
            }
          ],
          "text": "Specific gravity of Urine by Test strip"
        },
        "valueQuantity": {
          "system": "http://unitsofmeasure.org",
          "value": 1,
          "unit": "{nominal}",
          "code": "{nominal}"
        },
        "referenceRange": [
          {
            "low": {
              "value": 1.005,
              "code": "g/mL",
              "system": "http://unitsofmeasure.org"
            }
          },
          {
            "high": {
              "value": 1.03,
              "code": "g/mL",
              "system": "http://unitsofmeasure.org"
            }
          }
        ],
        "interpretation": [
          {
            "coding": [
              {
                "code": "L",
                "system": "http://terminology.hl7.org/CodeSystem/v3-ObservationInterpretation",
                "display": "Low"
              }
            ]
          }
        ],
        "text": {
          "status": "generated",
          "div": "<div xmlns=\"http://www.w3.org/1999/xhtml\"><table class=\"hl7__eu__lab__report\"><tr><th>Test</th><th>30-Aug-2022</th><th>Reference&#xA0;Range</th><th>Unit</th></tr><tr><td>Specific gravity of Urine by Test strip</td><td>1.0</td><td>1.005 - 1.03</td><td>L</td><td>{nominal}</td></tr></table></div>"
        },
        "status": "final",
        "subject": {
          "reference": "urn:uuid:523b0a8c-3df5-46f5-9393-28086ccaa64c",
          "display": "Meaghan Neary"
        },
        "effectiveDateTime": "2022-08-29T22:11:04Z",
        "specimen": {
          "reference": "urn:uuid:50331d32-1f7f-4126-965e-0b2345773f60"
        }
      }
    },
    {
      "fullUrl": "urn:uuid:9675ebb9-3fc7-4b6c-bc9c-a2724cb0faa7",
      "resource": {
        "resourceType": "Observation",
        "id": "9675ebb9-3fc7-4b6c-bc9c-a2724cb0faa7",
        "meta": {
          "profile": [
            "http://hl7.eu/fhir/laboratory/StructureDefinition/Observation-resultslab-eu-lab"
          ]
        },
        "performer": [
          {
            "display": "The Central European Lab"
          }
        ],
        "category": [
          {
            "coding": [
              {
                "system": "http://terminology.hl7.org/CodeSystem/observation-category",
                "code": "laboratory"
              }
            ]
          }
        ],
        "code": {
          "coding": [
            {
              "code": "5803-2",
              "system": "http://loinc.org",
              "display": "pH of Urine by Test strip"
            }
          ],
          "text": "pH of Urine by Test strip"
        },
        "valueQuantity": {
          "system": "http://unitsofmeasure.org",
          "value": 6.6,
          "unit": "pH",
          "code": "pH"
        },
        "referenceRange": [
          {
            "low": {
              "value": 4.6,
              "code": "pH",
              "system": "http://unitsofmeasure.org"
            }
          },
          {
            "high": {
              "value": 7,
              "code": "pH",
              "system": "http://unitsofmeasure.org"
            }
          }
        ],
        "text": {
          "status": "generated",
          "div": "<div xmlns=\"http://www.w3.org/1999/xhtml\"><table class=\"hl7__eu__lab__report\"><tr><th>Test</th><th>30-Aug-2022</th><th>Reference&#xA0;Range</th><th>Unit</th></tr><tr><td>pH of Urine by Test strip</td><td>6.6</td><td>4.6 - 7</td><td></td><td>pH</td></tr></table></div>"
        },
        "status": "final",
        "subject": {
          "reference": "urn:uuid:523b0a8c-3df5-46f5-9393-28086ccaa64c",
          "display": "Meaghan Neary"
        },
        "effectiveDateTime": "2022-08-29T22:11:04Z",
        "specimen": {
          "reference": "urn:uuid:50331d32-1f7f-4126-965e-0b2345773f60"
        }
      }
    },
    {
      "fullUrl": "urn:uuid:42377a8f-9512-4ece-80ab-4d80f396c13f",
      "resource": {
        "resourceType": "Observation",
        "id": "42377a8f-9512-4ece-80ab-4d80f396c13f",
        "meta": {
          "profile": [
            "http://hl7.eu/fhir/laboratory/StructureDefinition/Observation-resultslab-eu-lab"
          ]
        },
        "performer": [
          {
            "display": "The Central European Lab"
          }
        ],
        "category": [
          {
            "coding": [
              {
                "system": "http://terminology.hl7.org/CodeSystem/observation-category",
                "code": "laboratory"
              }
            ]
          }
        ],
        "code": {
          "coding": [
            {
              "code": "5804-0",
              "system": "http://loinc.org",
              "display": "Protein [Mass/volume] in Urine by Test strip"
            }
          ],
          "text": "Protein [Mass/volume] in Urine by Test strip"
        },
        "valueQuantity": {
          "system": "http://unitsofmeasure.org",
          "value": 230.9,
          "unit": "mg/dL",
          "code": "mg/dL"
        },
        "referenceRange": [
          {
            "low": {
              "value": 0,
              "code": "mg/dL",
              "system": "http://unitsofmeasure.org"
            }
          },
          {
            "high": {
              "value": 14,
              "code": "mg/dL",
              "system": "http://unitsofmeasure.org"
            }
          }
        ],
        "interpretation": [
          {
            "coding": [
              {
                "code": "H",
                "system": "http://terminology.hl7.org/CodeSystem/v3-ObservationInterpretation",
                "display": "High"
              }
            ]
          }
        ],
        "text": {
          "status": "generated",
          "div": "<div xmlns=\"http://www.w3.org/1999/xhtml\"><table class=\"hl7__eu__lab__report\"><tr><th>Test</th><th>30-Aug-2022</th><th>Reference&#xA0;Range</th><th>Unit</th></tr><tr><td>Protein [Mass/volume] in Urine by Test strip</td><td>230.9</td><td>0 - 14</td><td>H</td><td>mg/dL</td></tr></table></div>"
        },
        "status": "final",
        "subject": {
          "reference": "urn:uuid:523b0a8c-3df5-46f5-9393-28086ccaa64c",
          "display": "Meaghan Neary"
        },
        "effectiveDateTime": "2022-08-29T22:11:04Z",
        "specimen": {
          "reference": "urn:uuid:50331d32-1f7f-4126-965e-0b2345773f60"
        }
      }
    },
    {
      "fullUrl": "urn:uuid:c5f9cf04-e61b-4f69-8362-c2ea328b1bcd",
      "resource": {
        "resourceType": "Observation",
        "id": "c5f9cf04-e61b-4f69-8362-c2ea328b1bcd",
        "meta": {
          "profile": [
            "http://hl7.eu/fhir/laboratory/StructureDefinition/Observation-resultslab-eu-lab"
          ]
        },
        "performer": [
          {
            "display": "The Central European Lab"
          }
        ],
        "category": [
          {
            "coding": [
              {
                "system": "http://terminology.hl7.org/CodeSystem/observation-category",
                "code": "laboratory"
              }
            ]
          }
        ],
        "code": {
          "coding": [
            {
              "code": "20454-5",
              "system": "http://loinc.org",
              "display": "Protein [Presence] in Urine by Test strip"
            }
          ],
          "text": "Protein [Presence] in Urine by Test strip"
        },
        "text": {
          "status": "generated",
          "div": "<div xmlns=\"http://www.w3.org/1999/xhtml\"><table class=\"hl7__eu__lab__report\"><tr><th>Test</th><th>30-Aug-2022</th><th>Reference&#xA0;Range</th><th>Unit</th></tr><tr><td>Protein [Presence] in Urine by Test strip</td></tr></table></div>"
        },
        "status": "final",
        "subject": {
          "reference": "urn:uuid:523b0a8c-3df5-46f5-9393-28086ccaa64c",
          "display": "Meaghan Neary"
        },
        "effectiveDateTime": "2022-08-29T22:11:04Z",
        "specimen": {
          "reference": "urn:uuid:50331d32-1f7f-4126-965e-0b2345773f60"
        }
      }
    },
    {
      "fullUrl": "urn:uuid:d84c2b25-6c8d-43f5-b1d3-8b9d5ef2a49e",
      "resource": {
        "resourceType": "Observation",
        "id": "d84c2b25-6c8d-43f5-b1d3-8b9d5ef2a49e",
        "meta": {
          "profile": [
            "http://hl7.eu/fhir/laboratory/StructureDefinition/Observation-resultslab-eu-lab"
          ]
        },
        "performer": [
          {
            "display": "The Central European Lab"
          }
        ],
        "category": [
          {
            "coding": [
              {
                "system": "http://terminology.hl7.org/CodeSystem/observation-category",
                "code": "laboratory"
              }
            ]
          }
        ],
        "code": {
          "coding": [
            {
              "code": "5802-4",
              "system": "http://loinc.org",
              "display": "Nitrite [Presence] in Urine by Test strip"
            }
          ],
          "text": "Nitrite [Presence] in Urine by Test strip"
        },
        "text": {
          "status": "generated",
          "div": "<div xmlns=\"http://www.w3.org/1999/xhtml\"><table class=\"hl7__eu__lab__report\"><tr><th>Test</th><th>30-Aug-2022</th><th>Reference&#xA0;Range</th><th>Unit</th></tr><tr><td>Nitrite [Presence] in Urine by Test strip</td></tr></table></div>"
        },
        "status": "final",
        "subject": {
          "reference": "urn:uuid:523b0a8c-3df5-46f5-9393-28086ccaa64c",
          "display": "Meaghan Neary"
        },
        "effectiveDateTime": "2022-08-29T22:11:04Z",
        "specimen": {
          "reference": "urn:uuid:50331d32-1f7f-4126-965e-0b2345773f60"
        }
      }
    },
    {
      "fullUrl": "urn:uuid:7b64ca80-5bb5-4fd5-ab82-5cea4e339416",
      "resource": {
        "resourceType": "Observation",
        "id": "7b64ca80-5bb5-4fd5-ab82-5cea4e339416",
        "meta": {
          "profile": [
            "http://hl7.eu/fhir/laboratory/StructureDefinition/Observation-resultslab-eu-lab"
          ]
        },
        "performer": [
          {
            "display": "The Central European Lab"
          }
        ],
        "category": [
          {
            "coding": [
              {
                "system": "http://terminology.hl7.org/CodeSystem/observation-category",
                "code": "laboratory"
              }
            ]
          }
        ],
        "code": {
          "coding": [
            {
              "code": "5794-3",
              "system": "http://loinc.org",
              "display": "Hemoglobin [Presence] in Urine by Test strip"
            }
          ],
          "text": "Hemoglobin [Presence] in Urine by Test strip"
        },
        "text": {
          "status": "generated",
          "div": "<div xmlns=\"http://www.w3.org/1999/xhtml\"><table class=\"hl7__eu__lab__report\"><tr><th>Test</th><th>30-Aug-2022</th><th>Reference&#xA0;Range</th><th>Unit</th></tr><tr><td>Hemoglobin [Presence] in Urine by Test strip</td></tr></table></div>"
        },
        "status": "final",
        "subject": {
          "reference": "urn:uuid:523b0a8c-3df5-46f5-9393-28086ccaa64c",
          "display": "Meaghan Neary"
        },
        "effectiveDateTime": "2022-08-29T22:11:04Z",
        "specimen": {
          "reference": "urn:uuid:50331d32-1f7f-4126-965e-0b2345773f60"
        }
      }
    },
    {
      "fullUrl": "urn:uuid:e3e38677-edb6-4d09-9209-1c4fd9b88ef4",
      "resource": {
        "resourceType": "Observation",
        "id": "e3e38677-edb6-4d09-9209-1c4fd9b88ef4",
        "meta": {
          "profile": [
            "http://hl7.eu/fhir/laboratory/StructureDefinition/Observation-resultslab-eu-lab"
          ]
        },
        "performer": [
          {
            "display": "The Central European Lab"
          }
        ],
        "category": [
          {
            "coding": [
              {
                "system": "http://terminology.hl7.org/CodeSystem/observation-category",
                "code": "laboratory"
              }
            ]
          }
        ],
        "code": {
          "coding": [
            {
              "code": "5799-2",
              "system": "http://loinc.org",
              "display": "Leukocyte esterase [Presence] in Urine by Test strip"
            }
          ],
          "text": "Leukocyte esterase [Presence] in Urine by Test strip"
        },
        "text": {
          "status": "generated",
          "div": "<div xmlns=\"http://www.w3.org/1999/xhtml\"><table class=\"hl7__eu__lab__report\"><tr><th>Test</th><th>30-Aug-2022</th><th>Reference&#xA0;Range</th><th>Unit</th></tr><tr><td>Leukocyte esterase [Presence] in Urine by Test strip</td></tr></table></div>"
        },
        "status": "final",
        "subject": {
          "reference": "urn:uuid:523b0a8c-3df5-46f5-9393-28086ccaa64c",
          "display": "Meaghan Neary"
        },
        "effectiveDateTime": "2022-08-29T22:11:04Z",
        "specimen": {
          "reference": "urn:uuid:50331d32-1f7f-4126-965e-0b2345773f60"
        }
      }
    },
    {
      "fullUrl": "urn:uuid:df310f21-1e25-4c6a-bd48-94cab2ae8791",
      "resource": {
        "resourceType": "Observation",
        "id": "df310f21-1e25-4c6a-bd48-94cab2ae8791",
        "meta": {
          "profile": [
            "http://hl7.eu/fhir/laboratory/StructureDefinition/Observation-resultslab-eu-lab"
          ]
        },
        "performer": [
          {
            "display": "The Central European Lab"
          }
        ],
        "category": [
          {
            "coding": [
              {
                "system": "http://terminology.hl7.org/CodeSystem/observation-category",
                "code": "laboratory"
              }
            ]
          }
        ],
        "code": {
          "coding": [
            {
              "code": "4548-4",
              "system": "http://loinc.org",
              "display": "Hemoglobin A1c/Hemoglobin.total in Blood"
            }
          ],
          "text": "Hemoglobin A1c/Hemoglobin.total in Blood"
        },
        "valueQuantity": {
          "system": "http://unitsofmeasure.org",
          "value": 3.1,
          "unit": "%",
          "code": "%"
        },
        "referenceRange": [
          {
            "low": {
              "value": 4,
              "code": "%",
              "system": "http://unitsofmeasure.org"
            }
          },
          {
            "high": {
              "value": 6.4,
              "code": "%",
              "system": "http://unitsofmeasure.org"
            }
          }
        ],
        "interpretation": [
          {
            "coding": [
              {
                "code": "L",
                "system": "http://terminology.hl7.org/CodeSystem/v3-ObservationInterpretation",
                "display": "Low"
              }
            ]
          }
        ],
        "text": {
          "status": "generated",
          "div": "<div xmlns=\"http://www.w3.org/1999/xhtml\"><table class=\"hl7__eu__lab__report\"><tr><th>Test</th><th>30-Aug-2022</th><th>Reference&#xA0;Range</th><th>Unit</th></tr><tr><td>Hemoglobin A1c/Hemoglobin.total in Blood</td><td>3.1</td><td>4 - 6.4</td><td>L</td><td>%</td></tr></table></div>"
        },
        "status": "final",
        "subject": {
          "reference": "urn:uuid:523b0a8c-3df5-46f5-9393-28086ccaa64c",
          "display": "Meaghan Neary"
        },
        "effectiveDateTime": "2022-08-29T22:11:04Z",
        "specimen": {
          "reference": "urn:uuid:8d951db2-a99d-4ec3-ac97-f5741a015585"
        }
      }
    },
    {
      "fullUrl": "urn:uuid:375d0425-b69e-47bd-ab09-0d6d9d64808b",
      "resource": {
        "resourceType": "Observation",
        "id": "375d0425-b69e-47bd-ab09-0d6d9d64808b",
        "meta": {
          "profile": [
            "http://hl7.eu/fhir/laboratory/StructureDefinition/Observation-resultslab-eu-lab"
          ]
        },
        "performer": [
          {
            "display": "The Central European Lab"
          }
        ],
        "category": [
          {
            "coding": [
              {
                "system": "http://terminology.hl7.org/CodeSystem/observation-category",
                "code": "laboratory"
              }
            ]
          }
        ],
        "code": {
          "coding": [
            {
              "code": "2339-0",
              "system": "http://loinc.org",
              "display": "Glucose [Mass/volume] in Blood"
            }
          ],
          "text": "Glucose [Mass/volume] in Blood"
        },
        "valueQuantity": {
          "system": "http://unitsofmeasure.org",
          "value": 65.9,
          "unit": "mg/dL",
          "code": "mg/dL"
        },
        "referenceRange": [
          {
            "low": {
              "value": 70,
              "code": "mg/dL",
              "system": "http://unitsofmeasure.org"
            }
          },
          {
            "high": {
              "value": 100,
              "code": "mg/dL",
              "system": "http://unitsofmeasure.org"
            }
          }
        ],
        "interpretation": [
          {
            "coding": [
              {
                "code": "L",
                "system": "http://terminology.hl7.org/CodeSystem/v3-ObservationInterpretation",
                "display": "Low"
              }
            ]
          }
        ],
        "text": {
          "status": "generated",
          "div": "<div xmlns=\"http://www.w3.org/1999/xhtml\"><table class=\"hl7__eu__lab__report\"><tr><th>Test</th><th>30-Aug-2022</th><th>Reference&#xA0;Range</th><th>Unit</th></tr><tr><td>Glucose [Mass/volume] in Blood</td><td>65.9</td><td>70 - 100</td><td>L</td><td>mg/dL</td></tr></table></div>"
        },
        "status": "final",
        "subject": {
          "reference": "urn:uuid:523b0a8c-3df5-46f5-9393-28086ccaa64c",
          "display": "Meaghan Neary"
        },
        "effectiveDateTime": "2022-08-29T22:11:04Z",
        "specimen": {
          "reference": "urn:uuid:8d951db2-a99d-4ec3-ac97-f5741a015585"
        }
      }
    },
    {
      "fullUrl": "urn:uuid:bee667fc-8063-4f67-8237-35450ce24a34",
      "resource": {
        "resourceType": "Observation",
        "id": "bee667fc-8063-4f67-8237-35450ce24a34",
        "meta": {
          "profile": [
            "http://hl7.eu/fhir/laboratory/StructureDefinition/Observation-resultslab-eu-lab"
          ]
        },
        "performer": [
          {
            "display": "The Central European Lab"
          }
        ],
        "category": [
          {
            "coding": [
              {
                "system": "http://terminology.hl7.org/CodeSystem/observation-category",
                "code": "laboratory"
              }
            ]
          }
        ],
        "code": {
          "coding": [
            {
              "code": "6299-2",
              "system": "http://loinc.org",
              "display": "Urea nitrogen [Mass/volume] in Blood"
            }
          ],
          "text": "Urea nitrogen [Mass/volume] in Blood"
        },
        "valueQuantity": {
          "system": "http://unitsofmeasure.org",
          "value": 14,
          "unit": "mg/dL",
          "code": "mg/dL"
        },
        "referenceRange": [
          {
            "low": {
              "value": 7,
              "code": "mg/dL",
              "system": "http://unitsofmeasure.org"
            }
          },
          {
            "high": {
              "value": 43,
              "code": "mg/dL",
              "system": "http://unitsofmeasure.org"
            }
          }
        ],
        "text": {
          "status": "generated",
          "div": "<div xmlns=\"http://www.w3.org/1999/xhtml\"><table class=\"hl7__eu__lab__report\"><tr><th>Test</th><th>30-Aug-2022</th><th>Reference&#xA0;Range</th><th>Unit</th></tr><tr><td>Urea nitrogen [Mass/volume] in Blood</td><td>14.0</td><td>7 - 43</td><td></td><td>mg/dL</td></tr></table></div>"
        },
        "status": "final",
        "subject": {
          "reference": "urn:uuid:523b0a8c-3df5-46f5-9393-28086ccaa64c",
          "display": "Meaghan Neary"
        },
        "effectiveDateTime": "2022-08-29T22:11:04Z",
        "specimen": {
          "reference": "urn:uuid:8d951db2-a99d-4ec3-ac97-f5741a015585"
        }
      }
    },
    {
      "fullUrl": "urn:uuid:17481fb4-c7af-486b-a0dc-2821a50d25c9",
      "resource": {
        "resourceType": "Observation",
        "id": "17481fb4-c7af-486b-a0dc-2821a50d25c9",
        "meta": {
          "profile": [
            "http://hl7.eu/fhir/laboratory/StructureDefinition/Observation-resultslab-eu-lab"
          ]
        },
        "performer": [
          {
            "display": "The Central European Lab"
          }
        ],
        "category": [
          {
            "coding": [
              {
                "system": "http://terminology.hl7.org/CodeSystem/observation-category",
                "code": "laboratory"
              }
            ]
          }
        ],
        "code": {
          "coding": [
            {
              "code": "38483-4",
              "system": "http://loinc.org",
              "display": "Creatinine [Mass/volume] in Blood"
            }
          ],
          "text": "Creatinine [Mass/volume] in Blood"
        },
        "valueQuantity": {
          "system": "http://unitsofmeasure.org",
          "value": 2.6,
          "unit": "mg/dL",
          "code": "mg/dL"
        },
        "referenceRange": [
          {
            "low": {
              "value": 0.6,
              "code": "mg/dL",
              "system": "http://unitsofmeasure.org"
            }
          },
          {
            "high": {
              "value": 1.1,
              "code": "mg/dL",
              "system": "http://unitsofmeasure.org"
            }
          }
        ],
        "interpretation": [
          {
            "coding": [
              {
                "code": "H",
                "system": "http://terminology.hl7.org/CodeSystem/v3-ObservationInterpretation",
                "display": "High"
              }
            ]
          }
        ],
        "text": {
          "status": "generated",
          "div": "<div xmlns=\"http://www.w3.org/1999/xhtml\"><table class=\"hl7__eu__lab__report\"><tr><th>Test</th><th>30-Aug-2022</th><th>Reference&#xA0;Range</th><th>Unit</th></tr><tr><td>Creatinine [Mass/volume] in Blood</td><td>2.6</td><td>0.6 - 1.1</td><td>H</td><td>mg/dL</td></tr></table></div>"
        },
        "status": "final",
        "subject": {
          "reference": "urn:uuid:523b0a8c-3df5-46f5-9393-28086ccaa64c",
          "display": "Meaghan Neary"
        },
        "effectiveDateTime": "2022-08-29T22:11:04Z",
        "specimen": {
          "reference": "urn:uuid:8d951db2-a99d-4ec3-ac97-f5741a015585"
        }
      }
    },
    {
      "fullUrl": "urn:uuid:2d870785-1395-445e-8280-d3aad5472fee",
      "resource": {
        "resourceType": "Observation",
        "id": "2d870785-1395-445e-8280-d3aad5472fee",
        "meta": {
          "profile": [
            "http://hl7.eu/fhir/laboratory/StructureDefinition/Observation-resultslab-eu-lab"
          ]
        },
        "performer": [
          {
            "display": "The Central European Lab"
          }
        ],
        "category": [
          {
            "coding": [
              {
                "system": "http://terminology.hl7.org/CodeSystem/observation-category",
                "code": "laboratory"
              }
            ]
          }
        ],
        "code": {
          "coding": [
            {
              "code": "49765-1",
              "system": "http://loinc.org",
              "display": "Calcium [Mass/volume] in Blood"
            }
          ],
          "text": "Calcium [Mass/volume] in Blood"
        },
        "valueQuantity": {
          "system": "http://unitsofmeasure.org",
          "value": 8.6,
          "unit": "mg/dL",
          "code": "mg/dL"
        },
        "referenceRange": [
          {
            "low": {
              "value": 8.5,
              "code": "mg/dL",
              "system": "http://unitsofmeasure.org"
            }
          },
          {
            "high": {
              "value": 10.5,
              "code": "mg/dL",
              "system": "http://unitsofmeasure.org"
            }
          }
        ],
        "text": {
          "status": "generated",
          "div": "<div xmlns=\"http://www.w3.org/1999/xhtml\"><table class=\"hl7__eu__lab__report\"><tr><th>Test</th><th>30-Aug-2022</th><th>Reference&#xA0;Range</th><th>Unit</th></tr><tr><td>Calcium [Mass/volume] in Blood</td><td>8.6</td><td>8.5 - 10.5</td><td></td><td>mg/dL</td></tr></table></div>"
        },
        "status": "final",
        "subject": {
          "reference": "urn:uuid:523b0a8c-3df5-46f5-9393-28086ccaa64c",
          "display": "Meaghan Neary"
        },
        "effectiveDateTime": "2022-08-29T22:11:04Z",
        "specimen": {
          "reference": "urn:uuid:8d951db2-a99d-4ec3-ac97-f5741a015585"
        }
      }
    },
    {
      "fullUrl": "urn:uuid:29120a5b-5cc1-4013-a23a-9e115b262ee3",
      "resource": {
        "resourceType": "Observation",
        "id": "29120a5b-5cc1-4013-a23a-9e115b262ee3",
        "meta": {
          "profile": [
            "http://hl7.eu/fhir/laboratory/StructureDefinition/Observation-resultslab-eu-lab"
          ]
        },
        "performer": [
          {
            "display": "The Central European Lab"
          }
        ],
        "category": [
          {
            "coding": [
              {
                "system": "http://terminology.hl7.org/CodeSystem/observation-category",
                "code": "laboratory"
              }
            ]
          }
        ],
        "code": {
          "coding": [
            {
              "code": "2947-0",
              "system": "http://loinc.org",
              "display": "Sodium [Moles/volume] in Blood"
            }
          ],
          "text": "Sodium [Moles/volume] in Blood"
        },
        "valueQuantity": {
          "system": "http://unitsofmeasure.org",
          "value": 144,
          "unit": "mmol/L",
          "code": "mmol/L"
        },
        "referenceRange": [
          {
            "low": {
              "value": 135,
              "code": "mmol/L",
              "system": "http://unitsofmeasure.org"
            }
          },
          {
            "high": {
              "value": 145,
              "code": "mmol/L",
              "system": "http://unitsofmeasure.org"
            }
          }
        ],
        "text": {
          "status": "generated",
          "div": "<div xmlns=\"http://www.w3.org/1999/xhtml\"><table class=\"hl7__eu__lab__report\"><tr><th>Test</th><th>30-Aug-2022</th><th>Reference&#xA0;Range</th><th>Unit</th></tr><tr><td>Sodium [Moles/volume] in Blood</td><td>144.0</td><td>135 - 145</td><td></td><td>mmol/L</td></tr></table></div>"
        },
        "status": "final",
        "subject": {
          "reference": "urn:uuid:523b0a8c-3df5-46f5-9393-28086ccaa64c",
          "display": "Meaghan Neary"
        },
        "effectiveDateTime": "2022-08-29T22:11:04Z",
        "specimen": {
          "reference": "urn:uuid:8d951db2-a99d-4ec3-ac97-f5741a015585"
        }
      }
    },
    {
      "fullUrl": "urn:uuid:8c75266e-6f1c-45c6-be74-2417ef6f24bf",
      "resource": {
        "resourceType": "Observation",
        "id": "8c75266e-6f1c-45c6-be74-2417ef6f24bf",
        "meta": {
          "profile": [
            "http://hl7.eu/fhir/laboratory/StructureDefinition/Observation-resultslab-eu-lab"
          ]
        },
        "performer": [
          {
            "display": "The Central European Lab"
          }
        ],
        "category": [
          {
            "coding": [
              {
                "system": "http://terminology.hl7.org/CodeSystem/observation-category",
                "code": "laboratory"
              }
            ]
          }
        ],
        "code": {
          "coding": [
            {
              "code": "6298-4",
              "system": "http://loinc.org",
              "display": "Potassium [Moles/volume] in Blood"
            }
          ],
          "text": "Potassium [Moles/volume] in Blood"
        },
        "valueQuantity": {
          "system": "http://unitsofmeasure.org",
          "value": 3.9,
          "unit": "mmol/L",
          "code": "mmol/L"
        },
        "referenceRange": [
          {
            "low": {
              "value": 3.5,
              "code": "mmol/L",
              "system": "http://unitsofmeasure.org"
            }
          },
          {
            "high": {
              "value": 5.1,
              "code": "mmol/L",
              "system": "http://unitsofmeasure.org"
            }
          }
        ],
        "text": {
          "status": "generated",
          "div": "<div xmlns=\"http://www.w3.org/1999/xhtml\"><table class=\"hl7__eu__lab__report\"><tr><th>Test</th><th>30-Aug-2022</th><th>Reference&#xA0;Range</th><th>Unit</th></tr><tr><td>Potassium [Moles/volume] in Blood</td><td>3.9</td><td>3.5 - 5.1</td><td></td><td>mmol/L</td></tr></table></div>"
        },
        "status": "final",
        "subject": {
          "reference": "urn:uuid:523b0a8c-3df5-46f5-9393-28086ccaa64c",
          "display": "Meaghan Neary"
        },
        "effectiveDateTime": "2022-08-29T22:11:04Z",
        "specimen": {
          "reference": "urn:uuid:8d951db2-a99d-4ec3-ac97-f5741a015585"
        }
      }
    },
    {
      "fullUrl": "urn:uuid:966011d0-3fa8-4955-b856-1ceda454a96e",
      "resource": {
        "resourceType": "Observation",
        "id": "966011d0-3fa8-4955-b856-1ceda454a96e",
        "meta": {
          "profile": [
            "http://hl7.eu/fhir/laboratory/StructureDefinition/Observation-resultslab-eu-lab"
          ]
        },
        "performer": [
          {
            "display": "The Central European Lab"
          }
        ],
        "category": [
          {
            "coding": [
              {
                "system": "http://terminology.hl7.org/CodeSystem/observation-category",
                "code": "laboratory"
              }
            ]
          }
        ],
        "code": {
          "coding": [
            {
              "code": "2069-3",
              "system": "http://loinc.org",
              "display": "Chloride [Moles/volume] in Blood"
            }
          ],
          "text": "Chloride [Moles/volume] in Blood"
        },
        "valueQuantity": {
          "system": "http://unitsofmeasure.org",
          "value": 108.5,
          "unit": "mmol/L",
          "code": "mmol/L"
        },
        "referenceRange": [
          {
            "low": {
              "value": 98,
              "code": "mmol/L",
              "system": "http://unitsofmeasure.org"
            }
          },
          {
            "high": {
              "value": 108,
              "code": "mmol/L",
              "system": "http://unitsofmeasure.org"
            }
          }
        ],
        "interpretation": [
          {
            "coding": [
              {
                "code": "H",
                "system": "http://terminology.hl7.org/CodeSystem/v3-ObservationInterpretation",
                "display": "High"
              }
            ]
          }
        ],
        "text": {
          "status": "generated",
          "div": "<div xmlns=\"http://www.w3.org/1999/xhtml\"><table class=\"hl7__eu__lab__report\"><tr><th>Test</th><th>30-Aug-2022</th><th>Reference&#xA0;Range</th><th>Unit</th></tr><tr><td>Chloride [Moles/volume] in Blood</td><td>108.5</td><td>98 - 108</td><td>H</td><td>mmol/L</td></tr></table></div>"
        },
        "status": "final",
        "subject": {
          "reference": "urn:uuid:523b0a8c-3df5-46f5-9393-28086ccaa64c",
          "display": "Meaghan Neary"
        },
        "effectiveDateTime": "2022-08-29T22:11:04Z",
        "specimen": {
          "reference": "urn:uuid:8d951db2-a99d-4ec3-ac97-f5741a015585"
        }
      }
    },
    {
      "fullUrl": "urn:uuid:4d70ad3b-3d10-415a-be47-f18deea17cf0",
      "resource": {
        "resourceType": "Observation",
        "id": "4d70ad3b-3d10-415a-be47-f18deea17cf0",
        "meta": {
          "profile": [
            "http://hl7.eu/fhir/laboratory/StructureDefinition/Observation-resultslab-eu-lab"
          ]
        },
        "performer": [
          {
            "display": "The Central European Lab"
          }
        ],
        "category": [
          {
            "coding": [
              {
                "system": "http://terminology.hl7.org/CodeSystem/observation-category",
                "code": "laboratory"
              }
            ]
          }
        ],
        "code": {
          "coding": [
            {
              "code": "20565-8",
              "system": "http://loinc.org",
              "display": "Carbon dioxide, total [Moles/volume] in Blood"
            }
          ],
          "text": "Carbon dioxide, total [Moles/volume] in Blood"
        },
        "valueQuantity": {
          "system": "http://unitsofmeasure.org",
          "value": 26.2,
          "unit": "mmol/L",
          "code": "mmol/L"
        },
        "referenceRange": [
          {
            "low": {
              "value": 22,
              "code": "mmol/L",
              "system": "http://unitsofmeasure.org"
            }
          },
          {
            "high": {
              "value": 29,
              "code": "mmol/L",
              "system": "http://unitsofmeasure.org"
            }
          }
        ],
        "text": {
          "status": "generated",
          "div": "<div xmlns=\"http://www.w3.org/1999/xhtml\"><table class=\"hl7__eu__lab__report\"><tr><th>Test</th><th>30-Aug-2022</th><th>Reference&#xA0;Range</th><th>Unit</th></tr><tr><td>Carbon dioxide, total [Moles/volume] in Blood</td><td>26.2</td><td>22 - 29</td><td></td><td>mmol/L</td></tr></table></div>"
        },
        "status": "final",
        "subject": {
          "reference": "urn:uuid:523b0a8c-3df5-46f5-9393-28086ccaa64c",
          "display": "Meaghan Neary"
        },
        "effectiveDateTime": "2022-08-29T22:11:04Z",
        "specimen": {
          "reference": "urn:uuid:8d951db2-a99d-4ec3-ac97-f5741a015585"
        }
      }
    },
    {
      "fullUrl": "urn:uuid:e34b9329-87ea-4cd4-b764-64f86ea7eee7",
      "resource": {
        "resourceType": "Observation",
        "id": "e34b9329-87ea-4cd4-b764-64f86ea7eee7",
        "meta": {
          "profile": [
            "http://hl7.eu/fhir/laboratory/StructureDefinition/Observation-resultslab-eu-lab"
          ]
        },
        "performer": [
          {
            "display": "The Central European Lab"
          }
        ],
        "category": [
          {
            "coding": [
              {
                "system": "http://terminology.hl7.org/CodeSystem/observation-category",
                "code": "laboratory"
              }
            ]
          }
        ],
        "code": {
          "coding": [
            {
              "code": "6690-2",
              "system": "http://loinc.org",
              "display": "Leukocytes [#/volume] in Blood by Automated count"
            }
          ],
          "text": "Leukocytes [#/volume] in Blood by Automated count"
        },
        "valueQuantity": {
          "system": "http://unitsofmeasure.org",
          "value": 7.6,
          "unit": "10*3/uL",
          "code": "10*3/uL"
        },
        "referenceRange": [
          {
            "low": {
              "value": 3.6,
              "code": "10*3/uL",
              "system": "http://unitsofmeasure.org"
            }
          },
          {
            "high": {
              "value": 10.5,
              "code": "10*3/uL",
              "system": "http://unitsofmeasure.org"
            }
          }
        ],
        "text": {
          "status": "generated",
          "div": "<div xmlns=\"http://www.w3.org/1999/xhtml\"><table class=\"hl7__eu__lab__report\"><tr><th>Test</th><th>30-Aug-2022</th><th>Reference&#xA0;Range</th><th>Unit</th></tr><tr><td>Leukocytes [#/volume] in Blood by Automated count</td><td>7.6</td><td>3.6 - 10.5</td><td></td><td>10*3/uL</td></tr></table></div>"
        },
        "status": "final",
        "subject": {
          "reference": "urn:uuid:523b0a8c-3df5-46f5-9393-28086ccaa64c",
          "display": "Meaghan Neary"
        },
        "effectiveDateTime": "2022-08-29T22:11:04Z",
        "specimen": {
          "reference": "urn:uuid:8d951db2-a99d-4ec3-ac97-f5741a015585"
        }
      }
    },
    {
      "fullUrl": "urn:uuid:5f95d090-aa82-42cd-81a9-3a7c0ab780e8",
      "resource": {
        "resourceType": "Observation",
        "id": "5f95d090-aa82-42cd-81a9-3a7c0ab780e8",
        "meta": {
          "profile": [
            "http://hl7.eu/fhir/laboratory/StructureDefinition/Observation-resultslab-eu-lab"
          ]
        },
        "performer": [
          {
            "display": "The Central European Lab"
          }
        ],
        "category": [
          {
            "coding": [
              {
                "system": "http://terminology.hl7.org/CodeSystem/observation-category",
                "code": "laboratory"
              }
            ]
          }
        ],
        "code": {
          "coding": [
            {
              "code": "789-8",
              "system": "http://loinc.org",
              "display": "Erythrocytes [#/volume] in Blood by Automated count"
            }
          ],
          "text": "Erythrocytes [#/volume] in Blood by Automated count"
        },
        "valueQuantity": {
          "system": "http://unitsofmeasure.org",
          "value": 5.4,
          "unit": "10*6/uL",
          "code": "10*6/uL"
        },
        "referenceRange": [
          {
            "low": {
              "value": 4.2,
              "code": "10*6/uL",
              "system": "http://unitsofmeasure.org"
            }
          },
          {
            "high": {
              "value": 5.7,
              "code": "10*6/uL",
              "system": "http://unitsofmeasure.org"
            }
          }
        ],
        "text": {
          "status": "generated",
          "div": "<div xmlns=\"http://www.w3.org/1999/xhtml\"><table class=\"hl7__eu__lab__report\"><tr><th>Test</th><th>30-Aug-2022</th><th>Reference&#xA0;Range</th><th>Unit</th></tr><tr><td>Erythrocytes [#/volume] in Blood by Automated count</td><td>5.4</td><td>4.2 - 5.7</td><td></td><td>10*6/uL</td></tr></table></div>"
        },
        "status": "final",
        "subject": {
          "reference": "urn:uuid:523b0a8c-3df5-46f5-9393-28086ccaa64c",
          "display": "Meaghan Neary"
        },
        "effectiveDateTime": "2022-08-29T22:11:04Z",
        "specimen": {
          "reference": "urn:uuid:8d951db2-a99d-4ec3-ac97-f5741a015585"
        }
      }
    },
    {
      "fullUrl": "urn:uuid:ce41128e-eaa0-4823-83d7-f2c0c9e8c192",
      "resource": {
        "resourceType": "Observation",
        "id": "ce41128e-eaa0-4823-83d7-f2c0c9e8c192",
        "meta": {
          "profile": [
            "http://hl7.eu/fhir/laboratory/StructureDefinition/Observation-resultslab-eu-lab"
          ]
        },
        "performer": [
          {
            "display": "The Central European Lab"
          }
        ],
        "category": [
          {
            "coding": [
              {
                "system": "http://terminology.hl7.org/CodeSystem/observation-category",
                "code": "laboratory"
              }
            ]
          }
        ],
        "code": {
          "coding": [
            {
              "code": "718-7",
              "system": "http://loinc.org",
              "display": "Hemoglobin [Mass/volume] in Blood"
            }
          ],
          "text": "Hemoglobin [Mass/volume] in Blood"
        },
        "valueQuantity": {
          "system": "http://unitsofmeasure.org",
          "value": 13.1,
          "unit": "g/dL",
          "code": "g/dL"
        },
        "referenceRange": [
          {
            "low": {
              "value": 12.1,
              "code": "g/dL",
              "system": "http://unitsofmeasure.org"
            }
          },
          {
            "high": {
              "value": 15.5,
              "code": "g/dL",
              "system": "http://unitsofmeasure.org"
            }
          }
        ],
        "text": {
          "status": "generated",
          "div": "<div xmlns=\"http://www.w3.org/1999/xhtml\"><table class=\"hl7__eu__lab__report\"><tr><th>Test</th><th>30-Aug-2022</th><th>Reference&#xA0;Range</th><th>Unit</th></tr><tr><td>Hemoglobin [Mass/volume] in Blood</td><td>13.1</td><td>12.1 - 15.5</td><td></td><td>g/dL</td></tr></table></div>"
        },
        "status": "final",
        "subject": {
          "reference": "urn:uuid:523b0a8c-3df5-46f5-9393-28086ccaa64c",
          "display": "Meaghan Neary"
        },
        "effectiveDateTime": "2022-08-29T22:11:04Z",
        "specimen": {
          "reference": "urn:uuid:8d951db2-a99d-4ec3-ac97-f5741a015585"
        }
      }
    },
    {
      "fullUrl": "urn:uuid:c373a27a-f240-4712-b73b-f40ae99780a4",
      "resource": {
        "resourceType": "Observation",
        "id": "c373a27a-f240-4712-b73b-f40ae99780a4",
        "meta": {
          "profile": [
            "http://hl7.eu/fhir/laboratory/StructureDefinition/Observation-resultslab-eu-lab"
          ]
        },
        "performer": [
          {
            "display": "The Central European Lab"
          }
        ],
        "category": [
          {
            "coding": [
              {
                "system": "http://terminology.hl7.org/CodeSystem/observation-category",
                "code": "laboratory"
              }
            ]
          }
        ],
        "code": {
          "coding": [
            {
              "code": "4544-3",
              "system": "http://loinc.org",
              "display": "Hematocrit [Volume Fraction] of Blood by Automated count"
            }
          ],
          "text": "Hematocrit [Volume Fraction] of Blood by Automated count"
        },
        "valueQuantity": {
          "system": "http://unitsofmeasure.org",
          "value": 46.3,
          "unit": "%",
          "code": "%"
        },
        "referenceRange": [
          {
            "low": {
              "value": 38,
              "code": "%",
              "system": "http://unitsofmeasure.org"
            }
          },
          {
            "high": {
              "value": 54,
              "code": "%",
              "system": "http://unitsofmeasure.org"
            }
          }
        ],
        "text": {
          "status": "generated",
          "div": "<div xmlns=\"http://www.w3.org/1999/xhtml\"><table class=\"hl7__eu__lab__report\"><tr><th>Test</th><th>30-Aug-2022</th><th>Reference&#xA0;Range</th><th>Unit</th></tr><tr><td>Hematocrit [Volume Fraction] of Blood by Automated count</td><td>46.3</td><td>38 - 54</td><td></td><td>%</td></tr></table></div>"
        },
        "status": "final",
        "subject": {
          "reference": "urn:uuid:523b0a8c-3df5-46f5-9393-28086ccaa64c",
          "display": "Meaghan Neary"
        },
        "effectiveDateTime": "2022-08-29T22:11:04Z",
        "specimen": {
          "reference": "urn:uuid:8d951db2-a99d-4ec3-ac97-f5741a015585"
        }
      }
    },
    {
      "fullUrl": "urn:uuid:ea102f3f-5182-4c85-80a3-a217f6c24dbd",
      "resource": {
        "resourceType": "Observation",
        "id": "ea102f3f-5182-4c85-80a3-a217f6c24dbd",
        "meta": {
          "profile": [
            "http://hl7.eu/fhir/laboratory/StructureDefinition/Observation-resultslab-eu-lab"
          ]
        },
        "performer": [
          {
            "display": "The Central European Lab"
          }
        ],
        "category": [
          {
            "coding": [
              {
                "system": "http://terminology.hl7.org/CodeSystem/observation-category",
                "code": "laboratory"
              }
            ]
          }
        ],
        "code": {
          "coding": [
            {
              "code": "787-2",
              "system": "http://loinc.org",
              "display": "MCV [Entitic volume] by Automated count"
            }
          ],
          "text": "MCV [Entitic volume] by Automated count"
        },
        "valueQuantity": {
          "system": "http://unitsofmeasure.org",
          "value": 81.9,
          "unit": "fL",
          "code": "fL"
        },
        "referenceRange": [
          {
            "low": {
              "value": 82,
              "code": "fL",
              "system": "http://unitsofmeasure.org"
            }
          },
          {
            "high": {
              "value": 98,
              "code": "fL",
              "system": "http://unitsofmeasure.org"
            }
          }
        ],
        "interpretation": [
          {
            "coding": [
              {
                "code": "L",
                "system": "http://terminology.hl7.org/CodeSystem/v3-ObservationInterpretation",
                "display": "Low"
              }
            ]
          }
        ],
        "text": {
          "status": "generated",
          "div": "<div xmlns=\"http://www.w3.org/1999/xhtml\"><table class=\"hl7__eu__lab__report\"><tr><th>Test</th><th>30-Aug-2022</th><th>Reference&#xA0;Range</th><th>Unit</th></tr><tr><td>MCV [Entitic volume] by Automated count</td><td>81.9</td><td>82 - 98</td><td>L</td><td>fL</td></tr></table></div>"
        },
        "status": "final",
        "subject": {
          "reference": "urn:uuid:523b0a8c-3df5-46f5-9393-28086ccaa64c",
          "display": "Meaghan Neary"
        },
        "effectiveDateTime": "2022-08-29T22:11:04Z",
        "specimen": {
          "reference": "urn:uuid:8d951db2-a99d-4ec3-ac97-f5741a015585"
        }
      }
    },
    {
      "fullUrl": "urn:uuid:700a4e2a-bbd8-4b6a-a82e-884c0b2a7e62",
      "resource": {
        "resourceType": "Observation",
        "id": "700a4e2a-bbd8-4b6a-a82e-884c0b2a7e62",
        "meta": {
          "profile": [
            "http://hl7.eu/fhir/laboratory/StructureDefinition/Observation-resultslab-eu-lab"
          ]
        },
        "performer": [
          {
            "display": "The Central European Lab"
          }
        ],
        "category": [
          {
            "coding": [
              {
                "system": "http://terminology.hl7.org/CodeSystem/observation-category",
                "code": "laboratory"
              }
            ]
          }
        ],
        "code": {
          "coding": [
            {
              "code": "785-6",
              "system": "http://loinc.org",
              "display": "MCH [Entitic mass] by Automated count"
            }
          ],
          "text": "MCH [Entitic mass] by Automated count"
        },
        "valueQuantity": {
          "system": "http://unitsofmeasure.org",
          "value": 31.4,
          "unit": "pg",
          "code": "pg"
        },
        "referenceRange": [
          {
            "low": {
              "value": 27,
              "code": "pg",
              "system": "http://unitsofmeasure.org"
            }
          },
          {
            "high": {
              "value": 34,
              "code": "pg",
              "system": "http://unitsofmeasure.org"
            }
          }
        ],
        "text": {
          "status": "generated",
          "div": "<div xmlns=\"http://www.w3.org/1999/xhtml\"><table class=\"hl7__eu__lab__report\"><tr><th>Test</th><th>30-Aug-2022</th><th>Reference&#xA0;Range</th><th>Unit</th></tr><tr><td>MCH [Entitic mass] by Automated count</td><td>31.4</td><td>27 - 34</td><td></td><td>pg</td></tr></table></div>"
        },
        "status": "final",
        "subject": {
          "reference": "urn:uuid:523b0a8c-3df5-46f5-9393-28086ccaa64c",
          "display": "Meaghan Neary"
        },
        "effectiveDateTime": "2022-08-29T22:11:04Z",
        "specimen": {
          "reference": "urn:uuid:8d951db2-a99d-4ec3-ac97-f5741a015585"
        }
      }
    },
    {
      "fullUrl": "urn:uuid:abc13237-59b7-46fe-b2c5-5fcb17c5058a",
      "resource": {
        "resourceType": "Observation",
        "id": "abc13237-59b7-46fe-b2c5-5fcb17c5058a",
        "meta": {
          "profile": [
            "http://hl7.eu/fhir/laboratory/StructureDefinition/Observation-resultslab-eu-lab"
          ]
        },
        "performer": [
          {
            "display": "The Central European Lab"
          }
        ],
        "category": [
          {
            "coding": [
              {
                "system": "http://terminology.hl7.org/CodeSystem/observation-category",
                "code": "laboratory"
              }
            ]
          }
        ],
        "code": {
          "coding": [
            {
              "code": "786-4",
              "system": "http://loinc.org",
              "display": "MCHC [Mass/volume] by Automated count"
            }
          ],
          "text": "MCHC [Mass/volume] by Automated count"
        },
        "valueQuantity": {
          "system": "http://unitsofmeasure.org",
          "value": 35.2,
          "unit": "g/dL",
          "code": "g/dL"
        },
        "referenceRange": [
          {
            "low": {
              "value": 31.5,
              "code": "g/dL",
              "system": "http://unitsofmeasure.org"
            }
          },
          {
            "high": {
              "value": 35,
              "code": "g/dL",
              "system": "http://unitsofmeasure.org"
            }
          }
        ],
        "interpretation": [
          {
            "coding": [
              {
                "code": "H",
                "system": "http://terminology.hl7.org/CodeSystem/v3-ObservationInterpretation",
                "display": "High"
              }
            ]
          }
        ],
        "text": {
          "status": "generated",
          "div": "<div xmlns=\"http://www.w3.org/1999/xhtml\"><table class=\"hl7__eu__lab__report\"><tr><th>Test</th><th>30-Aug-2022</th><th>Reference&#xA0;Range</th><th>Unit</th></tr><tr><td>MCHC [Mass/volume] by Automated count</td><td>35.2</td><td>31.5 - 35</td><td>H</td><td>g/dL</td></tr></table></div>"
        },
        "status": "final",
        "subject": {
          "reference": "urn:uuid:523b0a8c-3df5-46f5-9393-28086ccaa64c",
          "display": "Meaghan Neary"
        },
        "effectiveDateTime": "2022-08-29T22:11:04Z",
        "specimen": {
          "reference": "urn:uuid:8d951db2-a99d-4ec3-ac97-f5741a015585"
        }
      }
    },
    {
      "fullUrl": "urn:uuid:3bf1da61-3f86-4392-8a03-45f1d9f19b3c",
      "resource": {
        "resourceType": "Observation",
        "id": "3bf1da61-3f86-4392-8a03-45f1d9f19b3c",
        "meta": {
          "profile": [
            "http://hl7.eu/fhir/laboratory/StructureDefinition/Observation-resultslab-eu-lab"
          ]
        },
        "performer": [
          {
            "display": "The Central European Lab"
          }
        ],
        "category": [
          {
            "coding": [
              {
                "system": "http://terminology.hl7.org/CodeSystem/observation-category",
                "code": "laboratory"
              }
            ]
          }
        ],
        "code": {
          "coding": [
            {
              "code": "21000-5",
              "system": "http://loinc.org",
              "display": "Erythrocyte distribution width [Entitic volume] by Automated count"
            }
          ],
          "text": "Erythrocyte distribution width [Entitic volume] by Automated count"
        },
        "valueQuantity": {
          "system": "http://unitsofmeasure.org",
          "value": 45.3,
          "unit": "fL",
          "code": "fL"
        },
        "referenceRange": [
          {
            "low": {
              "value": 36,
              "code": "fL",
              "system": "http://unitsofmeasure.org"
            }
          },
          {
            "high": {
              "value": 55,
              "code": "fL",
              "system": "http://unitsofmeasure.org"
            }
          }
        ],
        "text": {
          "status": "generated",
          "div": "<div xmlns=\"http://www.w3.org/1999/xhtml\"><table class=\"hl7__eu__lab__report\"><tr><th>Test</th><th>30-Aug-2022</th><th>Reference&#xA0;Range</th><th>Unit</th></tr><tr><td>Erythrocyte distribution width [Entitic volume] by Automated count</td><td>45.3</td><td>36 - 55</td><td></td><td>fL</td></tr></table></div>"
        },
        "status": "final",
        "subject": {
          "reference": "urn:uuid:523b0a8c-3df5-46f5-9393-28086ccaa64c",
          "display": "Meaghan Neary"
        },
        "effectiveDateTime": "2022-08-29T22:11:04Z",
        "specimen": {
          "reference": "urn:uuid:8d951db2-a99d-4ec3-ac97-f5741a015585"
        }
      }
    },
    {
      "fullUrl": "urn:uuid:7e4155a4-4a5d-4689-939a-1b26d0a0f769",
      "resource": {
        "resourceType": "Observation",
        "id": "7e4155a4-4a5d-4689-939a-1b26d0a0f769",
        "meta": {
          "profile": [
            "http://hl7.eu/fhir/laboratory/StructureDefinition/Observation-resultslab-eu-lab"
          ]
        },
        "performer": [
          {
            "display": "The Central European Lab"
          }
        ],
        "category": [
          {
            "coding": [
              {
                "system": "http://terminology.hl7.org/CodeSystem/observation-category",
                "code": "laboratory"
              }
            ]
          }
        ],
        "code": {
          "coding": [
            {
              "code": "777-3",
              "system": "http://loinc.org",
              "display": "Platelets [#/volume] in Blood by Automated count"
            }
          ],
          "text": "Platelets [#/volume] in Blood by Automated count"
        },
        "valueQuantity": {
          "system": "http://unitsofmeasure.org",
          "value": 177.3,
          "unit": "10*3/uL",
          "code": "10*3/uL"
        },
        "referenceRange": [
          {
            "low": {
              "value": 150,
              "code": "10*3/uL",
              "system": "http://unitsofmeasure.org"
            }
          },
          {
            "high": {
              "value": 450,
              "code": "10*3/uL",
              "system": "http://unitsofmeasure.org"
            }
          }
        ],
        "text": {
          "status": "generated",
          "div": "<div xmlns=\"http://www.w3.org/1999/xhtml\"><table class=\"hl7__eu__lab__report\"><tr><th>Test</th><th>30-Aug-2022</th><th>Reference&#xA0;Range</th><th>Unit</th></tr><tr><td>Platelets [#/volume] in Blood by Automated count</td><td>177.3</td><td>150 - 450</td><td></td><td>10*3/uL</td></tr></table></div>"
        },
        "status": "final",
        "subject": {
          "reference": "urn:uuid:523b0a8c-3df5-46f5-9393-28086ccaa64c",
          "display": "Meaghan Neary"
        },
        "effectiveDateTime": "2022-08-29T22:11:04Z",
        "specimen": {
          "reference": "urn:uuid:8d951db2-a99d-4ec3-ac97-f5741a015585"
        }
      }
    },
    {
      "fullUrl": "urn:uuid:643b781a-caa4-4d6c-b660-30c2017dc0c6",
      "resource": {
        "resourceType": "Observation",
        "id": "643b781a-caa4-4d6c-b660-30c2017dc0c6",
        "meta": {
          "profile": [
            "http://hl7.eu/fhir/laboratory/StructureDefinition/Observation-resultslab-eu-lab"
          ]
        },
        "performer": [
          {
            "display": "The Central European Lab"
          }
        ],
        "category": [
          {
            "coding": [
              {
                "system": "http://terminology.hl7.org/CodeSystem/observation-category",
                "code": "laboratory"
              }
            ]
          }
        ],
        "code": {
          "coding": [
            {
              "code": "32207-3",
              "system": "http://loinc.org",
              "display": "Platelet distribution width [Entitic volume] in Blood by Automated count"
            }
          ],
          "text": "Platelet distribution width [Entitic volume] in Blood by Automated count"
        },
        "valueQuantity": {
          "system": "http://unitsofmeasure.org",
          "value": 296.6,
          "unit": "fL",
          "code": "fL"
        },
        "referenceRange": [
          {
            "low": {
              "value": 15,
              "code": "fL",
              "system": "http://unitsofmeasure.org"
            }
          },
          {
            "high": {
              "value": 450,
              "code": "fL",
              "system": "http://unitsofmeasure.org"
            }
          }
        ],
        "text": {
          "status": "generated",
          "div": "<div xmlns=\"http://www.w3.org/1999/xhtml\"><table class=\"hl7__eu__lab__report\"><tr><th>Test</th><th>30-Aug-2022</th><th>Reference&#xA0;Range</th><th>Unit</th></tr><tr><td>Platelet distribution width [Entitic volume] in Blood by Automated count</td><td>296.6</td><td>15 - 450</td><td></td><td>fL</td></tr></table></div>"
        },
        "status": "final",
        "subject": {
          "reference": "urn:uuid:523b0a8c-3df5-46f5-9393-28086ccaa64c",
          "display": "Meaghan Neary"
        },
        "effectiveDateTime": "2022-08-29T22:11:04Z",
        "specimen": {
          "reference": "urn:uuid:8d951db2-a99d-4ec3-ac97-f5741a015585"
        }
      }
    },
    {
      "fullUrl": "urn:uuid:0c0c2f66-c751-4380-8c12-4748fcd24cbc",
      "resource": {
        "resourceType": "Observation",
        "id": "0c0c2f66-c751-4380-8c12-4748fcd24cbc",
        "meta": {
          "profile": [
            "http://hl7.eu/fhir/laboratory/StructureDefinition/Observation-resultslab-eu-lab"
          ]
        },
        "performer": [
          {
            "display": "The Central European Lab"
          }
        ],
        "category": [
          {
            "coding": [
              {
                "system": "http://terminology.hl7.org/CodeSystem/observation-category",
                "code": "laboratory"
              }
            ]
          }
        ],
        "code": {
          "coding": [
            {
              "code": "32623-1",
              "system": "http://loinc.org",
              "display": "Platelet mean volume [Entitic volume] in Blood by Automated count"
            }
          ],
          "text": "Platelet mean volume [Entitic volume] in Blood by Automated count"
        },
        "valueQuantity": {
          "system": "http://unitsofmeasure.org",
          "value": 12.3,
          "unit": "fL",
          "code": "fL"
        },
        "referenceRange": [
          {
            "low": {
              "value": 7.4,
              "code": "fL",
              "system": "http://unitsofmeasure.org"
            }
          },
          {
            "high": {
              "value": 12,
              "code": "fL",
              "system": "http://unitsofmeasure.org"
            }
          }
        ],
        "interpretation": [
          {
            "coding": [
              {
                "code": "H",
                "system": "http://terminology.hl7.org/CodeSystem/v3-ObservationInterpretation",
                "display": "High"
              }
            ]
          }
        ],
        "text": {
          "status": "generated",
          "div": "<div xmlns=\"http://www.w3.org/1999/xhtml\"><table class=\"hl7__eu__lab__report\"><tr><th>Test</th><th>30-Aug-2022</th><th>Reference&#xA0;Range</th><th>Unit</th></tr><tr><td>Platelet mean volume [Entitic volume] in Blood by Automated count</td><td>12.3</td><td>7.4 - 12</td><td>H</td><td>fL</td></tr></table></div>"
        },
        "status": "final",
        "subject": {
          "reference": "urn:uuid:523b0a8c-3df5-46f5-9393-28086ccaa64c",
          "display": "Meaghan Neary"
        },
        "effectiveDateTime": "2022-08-29T22:11:04Z",
        "specimen": {
          "reference": "urn:uuid:8d951db2-a99d-4ec3-ac97-f5741a015585"
        }
      }
    },
    {
      "fullUrl": "urn:uuid:b2b5cccd-31d5-4ee1-85c0-f671981acbd1",
      "resource": {
        "resourceType": "Device",
        "id": "b2b5cccd-31d5-4ee1-85c0-f671981acbd1",
        "deviceName": [
          {
            "name": "SYNDERAI Synthetic Generator",
            "type": "manufacturer-name"
          }
        ],
        "version": [
          {
            "value": "5.0"
          }
        ],
        "text": {
          "status": "generated",
          "div": "<div xmlns=\"http://www.w3.org/1999/xhtml\">SYNDERAI Synthetic Generator v5.0</div>"
        },
        "status": "active\"",
        "distinctIdentifier": "synderai-generator-50",
        "manufacturer": "SYNDERAI Project"
      }
    },
    {
      "fullUrl": "urn:uuid:5bf4a572-3c64-4777-b24f-bac107461bf8",
      "resource": {
        "resourceType": "Provenance",
        "id": "5bf4a572-3c64-4777-b24f-bac107461bf8",
        "target": [
          {
            "reference": "Patient/523b0a8c-3df5-46f5-9393-28086ccaa64c"
          },
          {
            "reference": "Bundle/ab85ca3a-e282-4625-b859-20fdd5896346"
          },
          {
            "reference": "Composition/8fb41e91-9bed-4488-8aa1-9170749932af"
          },
          {
            "reference": "PractitionerRole/07428c4a-0570-490b-912a-11b1f16864d3"
          },
          {
            "reference": "Practitioner/26216810-85ee-4f61-a42b-8b4d10f0e799"
          },
          {
            "reference": "PractitionerRole/ea95556c-eceb-4dd1-aaa8-3f6598dfa5b7"
          },
          {
            "reference": "Organization/f8ce9878-1f13-4f01-82b8-d1912dca6234"
          }
        ],
        "activity": {
          "text": "Synthetic Example Data Generation"
        },
        "policy": [
          "https://synderai.net/synderai-synthetic-data-policy"
        ],
        "agent": [
          {
            "type": {
              "text": "author"
            },
            "who": {
              "reference": "Device/b2b5cccd-31d5-4ee1-85c0-f671981acbd1"
            }
          }
        ],
        "reason": [
          {
            "text": "Interoperability Testing and Training (non-clinical use)"
          }
        ],
        "text": {
          "status": "generated",
          "div": "<div xmlns=\"http://www.w3.org/1999/xhtml\">Provenance for SYNDERAI Synthetic Example Data Resource</div>"
        },
        "recorded": "2022-08-30T00:11:04Z"
      }
    },
    {
      "fullUrl": "urn:uuid:07428c4a-0570-490b-912a-11b1f16864d3",
      "resource": {
        "resourceType": "PractitionerRole",
        "id": "07428c4a-0570-490b-912a-11b1f16864d3",
        "meta": {
          "profile": [
            "http://hl7.eu/fhir/base/StructureDefinition/practitionerRole-eu"
          ]
        },
        "text": {
          "status": "generated",
          "div": "<div xmlns=\"http://www.w3.org/1999/xhtml\">Laboratory Role Id: 07428c4a-0570-490b-912a-11b1f16864d3</div>"
        },
        "practitioner": {
          "reference": "urn:uuid:26216810-85ee-4f61-a42b-8b4d10f0e799"
        }
      }
    },
    {
      "fullUrl": "urn:uuid:26216810-85ee-4f61-a42b-8b4d10f0e799",
      "resource": {
        "resourceType": "Practitioner",
        "id": "26216810-85ee-4f61-a42b-8b4d10f0e799",
        "meta": {
          "profile": [
            "http://hl7.eu/fhir/base/StructureDefinition/practitioner-eu"
          ]
        },
        "identifier": [
          {
            "assigner": {
              "display": "HL7 Europe"
            },
            "system": "urn:oid:2.16.840.1.113883.2.51.999",
            "value": "503b9e4b-95d3-4d54-bf8b-0f2a5f16311c"
          }
        ],
        "name": [
          {
            "prefix": [
              "dr"
            ],
            "given": [
              "Ex"
            ],
            "family": "Ample"
          }
        ],
        "address": [
          {
            "line": [
              "Laboratoire Central Europenne",
              "Boulevard du Jardin Botanique 32"
            ],
            "postalCode": "1000",
            "city": "Brussels",
            "country": "Belgium"
          }
        ],
        "text": {
          "status": "generated",
          "div": "<div xmlns=\"http://www.w3.org/1999/xhtml\">Laboratory: Laboratoire Central Europenne, 1000 Brussels, Belgium</div>"
        }
      }
    }
  ],
  "type": "document",
  "timestamp": "2022-08-30T00:11:04Z"
}
