{
  "resourceType": "Bundle",
  "id": "1013bf9a-4a39-4843-939d-773492644350",
  "meta": {
    "profile": [
      "http://hl7.eu/fhir/laboratory/StructureDefinition/Bundle-eu-lab"
    ]
  },
  "identifier": {
    "assigner": {
      "display": "HL7 Europe"
    },
    "system": "urn:oid:2.16.840.1.113883.2.51.999",
    "value": "207e21b8-07d8-4959-b58a-e21961ae01b2"
  },
  "entry": [
    {
      "fullUrl": "urn:uuid:e4653f06-c437-4ef2-99e6-6e8ec81efaec",
      "resource": {
        "resourceType": "Composition",
        "id": "e4653f06-c437-4ef2-99e6-6e8ec81efaec",
        "meta": {
          "profile": [
            "http://hl7.eu/fhir/laboratory/StructureDefinition/Composition-eu-lab"
          ]
        },
        "identifier": {
          "assigner": {
            "display": "HL7 Europe"
          },
          "system": "urn:oid:2.16.840.1.113883.2.51.999",
          "value": "db4cf56a-8f9f-48e5-8020-8256630a1060"
        },
        "author": [
          {
            "reference": "urn:uuid:584fe615-cb73-469b-ac83-e35540565d77"
          }
        ],
        "category": [
          {
            "coding": [
              {
                "code": "26436-6",
                "system": "http://loinc.org",
                "display": "Laboratory studies (set)"
              }
            ]
          }
        ],
        "type": {
          "coding": [
            {
              "code": "11502-2",
              "system": "http://loinc.org",
              "display": "Laboratory report"
            }
          ],
          "text": "Laboratory Report"
        },
        "section": [
          {
            "code": {
              "coding": [
                {
                  "code": "26436-6",
                  "system": "http://loinc.org",
                  "display": "Laboratory studies (set)"
                }
              ],
              "text": "Laboratory studies"
            },
            "section": [
              {
                "code": {
                  "coding": [
                    {
                      "code": "$18719-5",
                      "system": "http://loinc.org",
                      "display": "Chemistry studies (set)"
                    }
                  ],
                  "text": "Chemistry"
                },
                "entry": [
                  {
                    "reference": "urn:uuid:5a9d41c3-5aa2-4d9b-80d5-0b922debddd4"
                  },
                  {
                    "reference": "urn:uuid:258af5f9-2d83-4fd9-b9b1-a7c0e3230327"
                  },
                  {
                    "reference": "urn:uuid:95cab716-2695-4857-8af5-cea928840d45"
                  },
                  {
                    "reference": "urn:uuid:e3ddeb63-509b-423a-bfc7-030431f4bd90"
                  },
                  {
                    "reference": "urn:uuid:645facac-13de-4238-bc74-d1cf6bef662e"
                  },
                  {
                    "reference": "urn:uuid:c592f2d4-8a0f-46b9-b127-d26c95a8d927"
                  },
                  {
                    "reference": "urn:uuid:ce79513d-db87-47f8-b6ef-6f49cffbd632"
                  },
                  {
                    "reference": "urn:uuid:9394408d-e316-49f2-bc5b-af50f0a3f54b"
                  },
                  {
                    "reference": "urn:uuid:28af208c-a8f5-4620-a651-f2b61d12648f"
                  }
                ],
                "text": {
                  "status": "generated",
                  "div": "<div xmlns=\"http://www.w3.org/1999/xhtml\"><h3>Chemistry</h3><table class=\"hl7__eu__lab__report\"><thead><tr><th>Test</th><th>10-JUL-2025</th><th>Reference&#xA0;Range</th><th>Unit</th></tr></thead><tbody><tr><td>Glucose [Mass/volume] in Serum or Plasma</td><td>76.4</td><td>70 - 140</td><td>mg/dL</td></tr><tr><td>Urea nitrogen [Mass/volume] in Serum or Plasma</td><td>16.7</td><td>7 - 50</td><td>mg/dL</td></tr><tr><td>Creatinine [Mass/volume] in Serum or Plasma</td><td><strong>2.1 H</strong></td><td>0.6 - 1.1</td><td>mg/dL</td></tr><tr><td>Calcium [Mass/volume] in Serum or Plasma</td><td>9.5</td><td>8.5 - 10.5</td><td>mg/dL</td></tr><tr><td>Sodium [Moles/volume] in Serum or Plasma</td><td>143.6</td><td>135 - 145</td><td>mmol/L</td></tr><tr><td>Potassium [Moles/volume] in Serum or Plasma</td><td>4.1</td><td>3.5 - 5.1</td><td>mmol/L</td></tr><tr><td>Chloride [Moles/volume] in Serum or Plasma</td><td>102.5</td><td>98 - 108</td><td>mmol/L</td></tr><tr><td>Carbon dioxide, total [Moles/volume] in Serum or Plasma</td><td><strong>21.0 L</strong></td><td>22 - 32</td><td>mmol/L</td></tr><tr><td>Ketones [Presence] in Urine by Test strip</td><td>Urine ketone test = +</td><td></td><td></td></tr></tbody></table></div>"
                },
                "title": "Chemistry"
              },
              {
                "code": {
                  "coding": [
                    {
                      "code": "$18729-4",
                      "system": "http://loinc.org",
                      "display": "Urinalysis studies (set)"
                    }
                  ],
                  "text": "Urinalysis"
                },
                "entry": [
                  {
                    "reference": "urn:uuid:edc966b6-96cb-44d8-938e-df7548d5a5cf"
                  },
                  {
                    "reference": "urn:uuid:3fd5f118-4dd7-4bb5-8f11-65c8e379c688"
                  },
                  {
                    "reference": "urn:uuid:71142dc5-925e-4bcc-8542-ed9cff7a8236"
                  },
                  {
                    "reference": "urn:uuid:dbda97d5-f83a-468b-bd08-ca14c52a7bd3"
                  },
                  {
                    "reference": "urn:uuid:b4d0e5db-2cbe-4f5b-851e-67a9f3c8049b"
                  },
                  {
                    "reference": "urn:uuid:716b99f5-3c38-481b-8f6a-a19071063e94"
                  },
                  {
                    "reference": "urn:uuid:d8dca315-927e-4029-9e2d-328770842c8f"
                  },
                  {
                    "reference": "urn:uuid:a55b1725-a099-48e6-b87a-9aacb5f9f5f6"
                  },
                  {
                    "reference": "urn:uuid:873fd9f0-0153-420c-a427-dda0ba8890c0"
                  },
                  {
                    "reference": "urn:uuid:818edd1b-937b-48f3-aaf0-e80345a6d5dc"
                  },
                  {
                    "reference": "urn:uuid:f585ea17-4301-4e37-9ea6-de1769078791"
                  },
                  {
                    "reference": "urn:uuid:9c7724df-b7ca-4e5b-8281-b65d937c0f2e"
                  }
                ],
                "text": {
                  "status": "generated",
                  "div": "<div xmlns=\"http://www.w3.org/1999/xhtml\"><h3>Urinalysis</h3><table class=\"hl7__eu__lab__report\"><thead><tr><th>Test</th><th>10-JUL-2025</th><th>Reference&#xA0;Range</th><th>Unit</th></tr></thead><tbody><tr><td>Glucose [Mass/volume] in Urine by Test strip</td><td><strong>1.8 H</strong></td><td>0.8 - 0</td><td>mg/dL</td></tr><tr><td>Glucose [Presence] in Urine by Test strip</td><td>++</td><td></td><td></td></tr><tr><td>Bilirubin.total [Mass/volume] in Urine by Test strip</td><td>0.8</td><td>0 - 1</td><td>mg/dL</td></tr><tr><td>Bilirubin.total [Presence] in Urine by Test strip</td><td>Finding of bilirubin in urine</td><td></td><td></td></tr><tr><td>Ketones [Mass/volume] in Urine by Test strip</td><td>12.0</td><td>0 - 20</td><td>mg/dL</td></tr><tr><td>Specific gravity of Urine by Test strip</td><td><strong>1.0 L</strong></td><td>1.01 - 1.03</td><td>{nominal}</td></tr><tr><td>pH of Urine by Test strip</td><td>6.0</td><td>4.6 - 7</td><td>pH</td></tr><tr><td>Protein [Mass/volume] in Urine by Test strip</td><td><strong>223.4 H</strong></td><td>0 - 15</td><td>mg/dL</td></tr><tr><td>Protein [Presence] in Urine by Test strip</td><td>Urine protein test = ++</td><td></td><td></td></tr><tr><td>Nitrite [Presence] in Urine by Test strip</td><td>Urine nitrite negative</td><td></td><td></td></tr><tr><td>Hemoglobin [Presence] in Urine by Test strip</td><td>Urine blood test = negative</td><td></td><td></td></tr><tr><td>Leukocyte esterase [Presence] in Urine by Test strip</td><td>Urine leukocyte test negative</td><td></td><td></td></tr></tbody></table></div>"
                },
                "title": "Urinalysis"
              },
              {
                "code": {
                  "coding": [
                    {
                      "code": "$LP7846-1",
                      "system": "http://loinc.org",
                      "display": "Specimen information"
                    }
                  ],
                  "text": "Specimen information"
                },
                "entry": [
                  {
                    "reference": "urn:uuid:592df2f6-65ef-4e38-9912-9d943f846424"
                  },
                  {
                    "reference": "urn:uuid:75d6b6d6-8b8e-4dd5-95b7-08b6251bdd96"
                  },
                  {
                    "reference": "urn:uuid:7827c5f1-94fc-4db7-8ac5-13421d8236c0"
                  },
                  {
                    "reference": "urn:uuid:0330a53c-b4e7-42eb-b34d-90e7338b0336"
                  }
                ],
                "text": {
                  "status": "generated",
                  "div": "<div xmlns=\"http://www.w3.org/1999/xhtml\"><h3>Specimen information</h3><table class=\"hl7__eu__lab__report\"><thead><tr><th>Test</th><th>10-JUL-2025</th><th>Specimen</th><th></th></tr></thead><tbody><tr><td>Appearance of Urine</td><td>Cloudy urine</td><td>Urine</td><td></td></tr><tr><td>Odor of Urine</td><td>Urine smell ammoniacal</td><td>Urine</td><td></td></tr><tr><td>Clarity of Urine</td><td>Translucent</td><td>Urine</td><td></td></tr><tr><td>Color of Urine</td><td>Brown color</td><td>Urine</td><td></td></tr></tbody></table></div>"
                },
                "title": "Specimen information"
              }
            ],
            "title": "Laboratory Report"
          },
          {
            "text": {
              "status": "generated",
              "div": "<div xmlns=\"http://www.w3.org/1999/xhtml\"><h3>Annotation</h3><table class=\"hl7__eu__lab__report\"><tr><th>Conclusion and Recommendations based on this report and previous findings known to us</th></tr><tr><td>The patient shows elevated serum creatinine, indicating impaired renal function. Urinalysis reveals significant proteinuria and glucosuria, with low specific gravity, suggesting possible tubular dysfunction or diabetic nephropathy. The urine is cloudy, brown, and ammoniacal, but there is no evidence of infection (negative nitrites/leukocytes). Mild metabolic acidosis is suggested by low serum CO₂. Further nephrological evaluation is recommended.</td></tr></table></div>"
            },
            "code": {
              "coding": [
                {
                  "system": "http://loinc.org",
                  "code": "48767-8",
                  "display": "Annotation comment"
                }
              ]
            },
            "title": "Annotation comment"
          }
        ],
        "status": "final",
        "subject": {
          "reference": "urn:uuid:116a0efa-20f6-435d-894b-7ef7119b16b9",
          "display": "Marthe Gallet"
        },
        "date": "2025-07-10T21:05:43Z",
        "title": "Laboratory Report",
        "confidentiality": "N"
      }
    },
    {
      "fullUrl": "urn:uuid:f8ab1c1c-d082-47b1-90be-6db51dcce74b",
      "resource": {
        "resourceType": "DiagnosticReport",
        "id": "f8ab1c1c-d082-47b1-90be-6db51dcce74b",
        "meta": {
          "profile": [
            "http://hl7.eu/fhir/laboratory/StructureDefinition/DiagnosticReport-eu-lab"
          ]
        },
        "identifier": [
          {
            "assigner": {
              "display": "HL7 Europe"
            },
            "system": "urn:oid:2.16.840.1.113883.2.51.999",
            "value": "86208790-70b6-4cd5-bbe2-87fdc52184f1"
          }
        ],
        "extension": [
          {
            "url": "http://hl7.org/fhir/5.0/StructureDefinition/extension-DiagnosticReport.composition",
            "valueReference": {
              "reference": "urn:uuid:db4cf56a-8f9f-48e5-8020-8256630a1060"
            }
          }
        ],
        "category": [
          {
            "coding": [
              {
                "code": "26436-6",
                "system": "http://loinc.org",
                "display": "Laboratory studies (set)"
              }
            ]
          }
        ],
        "specimen": [
          {
            "reference": "urn:uuid:b215c143-d993-45e6-9ac5-c7f4c9674090"
          },
          {
            "reference": "urn:uuid:85159610-b8d1-4cda-9a3d-eea9888fc3b1"
          }
        ],
        "result": [
          {
            "reference": "urn:uuid:5a9d41c3-5aa2-4d9b-80d5-0b922debddd4"
          },
          {
            "reference": "urn:uuid:258af5f9-2d83-4fd9-b9b1-a7c0e3230327"
          },
          {
            "reference": "urn:uuid:95cab716-2695-4857-8af5-cea928840d45"
          },
          {
            "reference": "urn:uuid:e3ddeb63-509b-423a-bfc7-030431f4bd90"
          },
          {
            "reference": "urn:uuid:645facac-13de-4238-bc74-d1cf6bef662e"
          },
          {
            "reference": "urn:uuid:c592f2d4-8a0f-46b9-b127-d26c95a8d927"
          },
          {
            "reference": "urn:uuid:ce79513d-db87-47f8-b6ef-6f49cffbd632"
          },
          {
            "reference": "urn:uuid:9394408d-e316-49f2-bc5b-af50f0a3f54b"
          },
          {
            "reference": "urn:uuid:592df2f6-65ef-4e38-9912-9d943f846424"
          },
          {
            "reference": "urn:uuid:75d6b6d6-8b8e-4dd5-95b7-08b6251bdd96"
          },
          {
            "reference": "urn:uuid:7827c5f1-94fc-4db7-8ac5-13421d8236c0"
          },
          {
            "reference": "urn:uuid:0330a53c-b4e7-42eb-b34d-90e7338b0336"
          },
          {
            "reference": "urn:uuid:edc966b6-96cb-44d8-938e-df7548d5a5cf"
          },
          {
            "reference": "urn:uuid:3fd5f118-4dd7-4bb5-8f11-65c8e379c688"
          },
          {
            "reference": "urn:uuid:71142dc5-925e-4bcc-8542-ed9cff7a8236"
          },
          {
            "reference": "urn:uuid:dbda97d5-f83a-468b-bd08-ca14c52a7bd3"
          },
          {
            "reference": "urn:uuid:b4d0e5db-2cbe-4f5b-851e-67a9f3c8049b"
          },
          {
            "reference": "urn:uuid:28af208c-a8f5-4620-a651-f2b61d12648f"
          },
          {
            "reference": "urn:uuid:716b99f5-3c38-481b-8f6a-a19071063e94"
          },
          {
            "reference": "urn:uuid:d8dca315-927e-4029-9e2d-328770842c8f"
          },
          {
            "reference": "urn:uuid:a55b1725-a099-48e6-b87a-9aacb5f9f5f6"
          },
          {
            "reference": "urn:uuid:873fd9f0-0153-420c-a427-dda0ba8890c0"
          },
          {
            "reference": "urn:uuid:818edd1b-937b-48f3-aaf0-e80345a6d5dc"
          },
          {
            "reference": "urn:uuid:f585ea17-4301-4e37-9ea6-de1769078791"
          },
          {
            "reference": "urn:uuid:9c7724df-b7ca-4e5b-8281-b65d937c0f2e"
          }
        ],
        "status": "registered",
        "code": {
          "coding": [
            {
              "code": "11502-2",
              "system": "http://loinc.org",
              "display": "Laboratory report"
            }
          ]
        },
        "subject": {
          "reference": "urn:uuid:116a0efa-20f6-435d-894b-7ef7119b16b9",
          "display": "Marthe Gallet"
        }
      }
    },
    {
      "fullUrl": "urn:uuid:116a0efa-20f6-435d-894b-7ef7119b16b9",
      "resource": {
        "resourceType": "Patient",
        "id": "116a0efa-20f6-435d-894b-7ef7119b16b9",
        "meta": {
          "security": [
            {
              "system": "http://terminology.hl7.org/CodeSystem/v3-ActReason",
              "code": "HTEST"
            },
            {
              "system": "http://terminology.hl7.org/CodeSystem/v3-ActReason",
              "code": "TRAIN"
            }
          ],
          "tag": [
            {
              "system": "https://synderai.net/fhir/CodeSystem/tags",
              "code": "synthetic",
              "display": "SYNDERAI Synthetic data"
            }
          ],
          "profile": [
            "http://hl7.eu/fhir/base/StructureDefinition/patient-eu-core"
          ]
        },
        "identifier": [
          {
            "type": {
              "coding": [
                {
                  "code": "PT",
                  "system": "http://terminology.hl7.org/CodeSystem/v2-0203"
                }
              ]
            },
            "system": "http://ec.europa.eu/identifier/eci",
            "value": "9444-947487-6"
          },
          {
            "type": {
              "coding": [
                {
                  "code": "MR",
                  "system": "http://terminology.hl7.org/CodeSystem/v2-0203"
                }
              ]
            },
            "system": "http://local.setting.eu/identifier",
            "value": "854228d5-a476-2d9c-a1d7-c3202375a617"
          }
        ],
        "name": [
          {
            "family": "Gallet"
          },
          {
            "given": [
              "Marthe"
            ]
          },
          {
            "text": "Marthe Gallet"
          }
        ],
        "address": [
          {
            "line": [
              "3, rue Emmanuel Goncalves"
            ],
            "use": "home",
            "type": "physical",
            "postalCode": "49490",
            "city": "Briand",
            "country": "France"
          }
        ],
        "telecom": [
          {
            "system": "phone",
            "value": "+33 1 70 99 82 74"
          }
        ],
        "extension": [
          {
            "url": "http://hl7.org/fhir/StructureDefinition/patient-nationality",
            "valueCodeableConcept": {
              "coding": [
                {
                  "code": "FR",
                  "system": "http://hl7.org/fhir/ValueSet/country"
                }
              ]
            }
          }
        ],
        "text": {
          "status": "generated",
          "div": "<div xmlns=\"http://www.w3.org/1999/xhtml\"><table class=\"hl7__ips\"><tr><td>Marthe Gallet</td><td>female</td><td>29-Oct-1950</td></tr></table></div>"
        },
        "gender": "female",
        "birthDate": "1950-10-29"
      }
    },
    {
      "fullUrl": "urn:uuid:e4ebdb27-4b70-4341-89dc-fbded22a1e7f",
      "resource": {
        "resourceType": "ServiceRequest",
        "id": "e4ebdb27-4b70-4341-89dc-fbded22a1e7f",
        "meta": {
          "profile": [
            "http://hl7.eu/fhir/laboratory/StructureDefinition/ServiceRequest-eu-lab"
          ]
        },
        "identifier": [
          {
            "system": "http://example.org",
            "value": "b8499940-9d7d-4b24-aab9-b85dee7a6602"
          }
        ],
        "specimen": [
          {
            "reference": "urn:uuid:b215c143-d993-45e6-9ac5-c7f4c9674090"
          },
          {
            "reference": "urn:uuid:85159610-b8d1-4cda-9a3d-eea9888fc3b1"
          }
        ],
        "reasonCode": [
          {
            "coding": [
              {
                "code": "431856006",
                "system": "http://snomed.info/sct",
                "display": "Chronic kidney disease stage 2"
              }
            ]
          },
          {
            "coding": [
              {
                "code": "90781000119102",
                "system": "http://snomed.info/sct",
                "display": "Microalbuminuria due to type 2 diabetes mellitus"
              }
            ]
          },
          {
            "coding": [
              {
                "code": "127013003",
                "system": "http://snomed.info/sct",
                "display": "Disorder of kidney due to diabetes mellitus"
              }
            ]
          },
          {
            "coding": [
              {
                "code": "431855005",
                "system": "http://snomed.info/sct",
                "display": "Chronic kidney disease stage 1"
              }
            ]
          },
          {
            "coding": [
              {
                "code": "55822004",
                "system": "http://snomed.info/sct",
                "display": "Hyperlipidemia"
              }
            ]
          },
          {
            "coding": [
              {
                "code": "59621000",
                "system": "http://snomed.info/sct",
                "display": "Essential hypertension"
              }
            ]
          }
        ],
        "status": "active",
        "intent": "order",
        "code": {
          "coding": [
            {
              "code": "108252007",
              "system": "http://snomed.info/sct",
              "display": "Laboratory procedure"
            }
          ]
        },
        "subject": {
          "reference": "urn:uuid:116a0efa-20f6-435d-894b-7ef7119b16b9",
          "display": "Marthe Gallet"
        },
        "requester": {
          "reference": "urn:uuid:ecf66159-e7b5-4474-8e3a-33a4cec3e5a6"
        }
      }
    },
    {
      "fullUrl": "urn:uuid:ecf66159-e7b5-4474-8e3a-33a4cec3e5a6",
      "resource": {
        "resourceType": "PractitionerRole",
        "id": "ecf66159-e7b5-4474-8e3a-33a4cec3e5a6",
        "meta": {
          "profile": [
            "http://hl7.eu/fhir/base/StructureDefinition/practitionerRole-eu"
          ]
        },
        "text": {
          "status": "generated",
          "div": "<div xmlns=\"http://www.w3.org/1999/xhtml\">Provider Role Id: ecf66159-e7b5-4474-8e3a-33a4cec3e5a6</div>"
        },
        "organization": {
          "reference": "urn:uuid:224b133f-8269-445d-8db7-3806b963c1b8"
        }
      }
    },
    {
      "fullUrl": "urn:uuid:224b133f-8269-445d-8db7-3806b963c1b8",
      "resource": {
        "resourceType": "Organization",
        "id": "224b133f-8269-445d-8db7-3806b963c1b8",
        "meta": {
          "profile": [
            "http://hl7.eu/fhir/base/StructureDefinition/organization-eu"
          ]
        },
        "identifier": [
          {
            "assigner": {
              "display": "HL7 Europe"
            },
            "system": "urn:oid:2.16.840.1.113883.2.51.999",
            "value": "9327a911-e7d1-414d-a430-54b7d75d9861"
          }
        ],
        "address": [
          {
            "line": [
              "Rue Larrey nan"
            ],
            "city": "Angers",
            "postalCode": "49100",
            "country": "France"
          }
        ],
        "text": {
          "status": "generated",
          "div": "<div xmlns=\"http://www.w3.org/1999/xhtml\">Provider Organization: CHU d&#039;Angers</div>"
        },
        "name": "CHU d&#039;Angers"
      }
    },
    {
      "fullUrl": "urn:uuid:b215c143-d993-45e6-9ac5-c7f4c9674090",
      "resource": {
        "resourceType": "Specimen",
        "id": "b215c143-d993-45e6-9ac5-c7f4c9674090",
        "meta": {
          "profile": [
            "http://hl7.eu/fhir/laboratory/StructureDefinition/Specimen-eu-lab"
          ]
        },
        "collection": {
          "collectedDateTime": "2025-07-10"
        },
        "text": {
          "status": "generated",
          "div": "<div xmlns=\"http://www.w3.org/1999/xhtml\"><table class=\"hl7__eu__lab__report\"><tr><th>Specimen</th><th>Collection Date</th></tr><tr><td>Acellular blood (serum or plasma) specimen</td><td><span class=\"nb\">10-Jul-2025</span></td></tr></table></div>"
        },
        "type": {
          "coding": [
            {
              "code": "122592007",
              "system": "http://snomed.info/sct",
              "display": "Acellular blood (serum or plasma) specimen"
            }
          ]
        }
      }
    },
    {
      "fullUrl": "urn:uuid:85159610-b8d1-4cda-9a3d-eea9888fc3b1",
      "resource": {
        "resourceType": "Specimen",
        "id": "85159610-b8d1-4cda-9a3d-eea9888fc3b1",
        "meta": {
          "profile": [
            "http://hl7.eu/fhir/laboratory/StructureDefinition/Specimen-eu-lab"
          ]
        },
        "collection": {
          "collectedDateTime": "2025-07-10"
        },
        "text": {
          "status": "generated",
          "div": "<div xmlns=\"http://www.w3.org/1999/xhtml\"><table class=\"hl7__eu__lab__report\"><tr><th>Specimen</th><th>Collection Date</th></tr><tr><td>Urine specimen</td><td><span class=\"nb\">10-Jul-2025</span></td></tr></table></div>"
        },
        "type": {
          "coding": [
            {
              "code": "122575003",
              "system": "http://snomed.info/sct",
              "display": "Urine specimen"
            }
          ]
        }
      }
    },
    {
      "fullUrl": "urn:uuid:5a9d41c3-5aa2-4d9b-80d5-0b922debddd4",
      "resource": {
        "resourceType": "Observation",
        "id": "5a9d41c3-5aa2-4d9b-80d5-0b922debddd4",
        "meta": {
          "profile": [
            "http://hl7.eu/fhir/laboratory/StructureDefinition/Observation-resultslab-eu-lab"
          ]
        },
        "performer": [
          {
            "display": "The Central European Lab"
          }
        ],
        "category": [
          {
            "coding": [
              {
                "system": "http://terminology.hl7.org/CodeSystem/observation-category",
                "code": "laboratory"
              }
            ]
          }
        ],
        "code": {
          "coding": [
            {
              "code": "2345-7",
              "system": "http://loinc.org",
              "display": "Glucose [Mass/volume] in Serum or Plasma"
            }
          ],
          "text": "Glucose [Mass/volume] in Serum or Plasma"
        },
        "valueQuantity": {
          "system": "http://unitsofmeasure.org",
          "value": 76.4,
          "unit": "mg/dL",
          "code": "mg/dL"
        },
        "referenceRange": [
          {
            "low": {
              "value": 70,
              "code": "mg/dL",
              "system": "http://unitsofmeasure.org"
            }
          },
          {
            "high": {
              "value": 140,
              "code": "mg/dL",
              "system": "http://unitsofmeasure.org"
            }
          }
        ],
        "text": {
          "status": "generated",
          "div": "<div xmlns=\"http://www.w3.org/1999/xhtml\"><table class=\"hl7__eu__lab__report\"><tr><th>Test</th><th>10-Jul-2025</th><th>Reference&#xA0;Range</th><th>Unit</th></tr><tr><td>Glucose [Mass/volume] in Serum or Plasma</td><td>76.4</td><td>70 - 140</td><td></td><td>mg/dL</td></tr></table></div>"
        },
        "status": "final",
        "subject": {
          "reference": "urn:uuid:116a0efa-20f6-435d-894b-7ef7119b16b9",
          "display": "Marthe Gallet"
        },
        "effectiveDateTime": "2025-07-10T19:05:43Z",
        "specimen": {
          "reference": "urn:uuid:b215c143-d993-45e6-9ac5-c7f4c9674090"
        }
      }
    },
    {
      "fullUrl": "urn:uuid:258af5f9-2d83-4fd9-b9b1-a7c0e3230327",
      "resource": {
        "resourceType": "Observation",
        "id": "258af5f9-2d83-4fd9-b9b1-a7c0e3230327",
        "meta": {
          "profile": [
            "http://hl7.eu/fhir/laboratory/StructureDefinition/Observation-resultslab-eu-lab"
          ]
        },
        "performer": [
          {
            "display": "The Central European Lab"
          }
        ],
        "category": [
          {
            "coding": [
              {
                "system": "http://terminology.hl7.org/CodeSystem/observation-category",
                "code": "laboratory"
              }
            ]
          }
        ],
        "code": {
          "coding": [
            {
              "code": "3094-0",
              "system": "http://loinc.org",
              "display": "Urea nitrogen [Mass/volume] in Serum or Plasma"
            }
          ],
          "text": "Urea nitrogen [Mass/volume] in Serum or Plasma"
        },
        "valueQuantity": {
          "system": "http://unitsofmeasure.org",
          "value": 16.7,
          "unit": "mg/dL",
          "code": "mg/dL"
        },
        "referenceRange": [
          {
            "low": {
              "value": 7,
              "code": "mg/dL",
              "system": "http://unitsofmeasure.org"
            }
          },
          {
            "high": {
              "value": 50,
              "code": "mg/dL",
              "system": "http://unitsofmeasure.org"
            }
          }
        ],
        "text": {
          "status": "generated",
          "div": "<div xmlns=\"http://www.w3.org/1999/xhtml\"><table class=\"hl7__eu__lab__report\"><tr><th>Test</th><th>10-Jul-2025</th><th>Reference&#xA0;Range</th><th>Unit</th></tr><tr><td>Urea nitrogen [Mass/volume] in Serum or Plasma</td><td>16.7</td><td>7 - 50</td><td></td><td>mg/dL</td></tr></table></div>"
        },
        "status": "final",
        "subject": {
          "reference": "urn:uuid:116a0efa-20f6-435d-894b-7ef7119b16b9",
          "display": "Marthe Gallet"
        },
        "effectiveDateTime": "2025-07-10T19:05:43Z",
        "specimen": {
          "reference": "urn:uuid:b215c143-d993-45e6-9ac5-c7f4c9674090"
        }
      }
    },
    {
      "fullUrl": "urn:uuid:95cab716-2695-4857-8af5-cea928840d45",
      "resource": {
        "resourceType": "Observation",
        "id": "95cab716-2695-4857-8af5-cea928840d45",
        "meta": {
          "profile": [
            "http://hl7.eu/fhir/laboratory/StructureDefinition/Observation-resultslab-eu-lab"
          ]
        },
        "performer": [
          {
            "display": "The Central European Lab"
          }
        ],
        "category": [
          {
            "coding": [
              {
                "system": "http://terminology.hl7.org/CodeSystem/observation-category",
                "code": "laboratory"
              }
            ]
          }
        ],
        "code": {
          "coding": [
            {
              "code": "2160-0",
              "system": "http://loinc.org",
              "display": "Creatinine [Mass/volume] in Serum or Plasma"
            }
          ],
          "text": "Creatinine [Mass/volume] in Serum or Plasma"
        },
        "valueQuantity": {
          "system": "http://unitsofmeasure.org",
          "value": 2.1,
          "unit": "mg/dL",
          "code": "mg/dL"
        },
        "referenceRange": [
          {
            "low": {
              "value": 0.6,
              "code": "mg/dL",
              "system": "http://unitsofmeasure.org"
            }
          },
          {
            "high": {
              "value": 1.1,
              "code": "mg/dL",
              "system": "http://unitsofmeasure.org"
            }
          }
        ],
        "interpretation": [
          {
            "coding": [
              {
                "code": "H",
                "system": "http://terminology.hl7.org/CodeSystem/v3-ObservationInterpretation",
                "display": "High"
              }
            ]
          }
        ],
        "text": {
          "status": "generated",
          "div": "<div xmlns=\"http://www.w3.org/1999/xhtml\"><table class=\"hl7__eu__lab__report\"><tr><th>Test</th><th>10-Jul-2025</th><th>Reference&#xA0;Range</th><th>Unit</th></tr><tr><td>Creatinine [Mass/volume] in Serum or Plasma</td><td>2.1</td><td>0.6 - 1.1</td><td>H</td><td>mg/dL</td></tr></table></div>"
        },
        "status": "final",
        "subject": {
          "reference": "urn:uuid:116a0efa-20f6-435d-894b-7ef7119b16b9",
          "display": "Marthe Gallet"
        },
        "effectiveDateTime": "2025-07-10T19:05:43Z",
        "specimen": {
          "reference": "urn:uuid:b215c143-d993-45e6-9ac5-c7f4c9674090"
        }
      }
    },
    {
      "fullUrl": "urn:uuid:e3ddeb63-509b-423a-bfc7-030431f4bd90",
      "resource": {
        "resourceType": "Observation",
        "id": "e3ddeb63-509b-423a-bfc7-030431f4bd90",
        "meta": {
          "profile": [
            "http://hl7.eu/fhir/laboratory/StructureDefinition/Observation-resultslab-eu-lab"
          ]
        },
        "performer": [
          {
            "display": "The Central European Lab"
          }
        ],
        "category": [
          {
            "coding": [
              {
                "system": "http://terminology.hl7.org/CodeSystem/observation-category",
                "code": "laboratory"
              }
            ]
          }
        ],
        "code": {
          "coding": [
            {
              "code": "17861-6",
              "system": "http://loinc.org",
              "display": "Calcium [Mass/volume] in Serum or Plasma"
            }
          ],
          "text": "Calcium [Mass/volume] in Serum or Plasma"
        },
        "valueQuantity": {
          "system": "http://unitsofmeasure.org",
          "value": 9.5,
          "unit": "mg/dL",
          "code": "mg/dL"
        },
        "referenceRange": [
          {
            "low": {
              "value": 8.5,
              "code": "mg/dL",
              "system": "http://unitsofmeasure.org"
            }
          },
          {
            "high": {
              "value": 10.5,
              "code": "mg/dL",
              "system": "http://unitsofmeasure.org"
            }
          }
        ],
        "text": {
          "status": "generated",
          "div": "<div xmlns=\"http://www.w3.org/1999/xhtml\"><table class=\"hl7__eu__lab__report\"><tr><th>Test</th><th>10-Jul-2025</th><th>Reference&#xA0;Range</th><th>Unit</th></tr><tr><td>Calcium [Mass/volume] in Serum or Plasma</td><td>9.5</td><td>8.5 - 10.5</td><td></td><td>mg/dL</td></tr></table></div>"
        },
        "status": "final",
        "subject": {
          "reference": "urn:uuid:116a0efa-20f6-435d-894b-7ef7119b16b9",
          "display": "Marthe Gallet"
        },
        "effectiveDateTime": "2025-07-10T19:05:43Z",
        "specimen": {
          "reference": "urn:uuid:b215c143-d993-45e6-9ac5-c7f4c9674090"
        }
      }
    },
    {
      "fullUrl": "urn:uuid:645facac-13de-4238-bc74-d1cf6bef662e",
      "resource": {
        "resourceType": "Observation",
        "id": "645facac-13de-4238-bc74-d1cf6bef662e",
        "meta": {
          "profile": [
            "http://hl7.eu/fhir/laboratory/StructureDefinition/Observation-resultslab-eu-lab"
          ]
        },
        "performer": [
          {
            "display": "The Central European Lab"
          }
        ],
        "category": [
          {
            "coding": [
              {
                "system": "http://terminology.hl7.org/CodeSystem/observation-category",
                "code": "laboratory"
              }
            ]
          }
        ],
        "code": {
          "coding": [
            {
              "code": "2951-2",
              "system": "http://loinc.org",
              "display": "Sodium [Moles/volume] in Serum or Plasma"
            }
          ],
          "text": "Sodium [Moles/volume] in Serum or Plasma"
        },
        "valueQuantity": {
          "system": "http://unitsofmeasure.org",
          "value": 143.6,
          "unit": "mmol/L",
          "code": "mmol/L"
        },
        "referenceRange": [
          {
            "low": {
              "value": 135,
              "code": "mmol/L",
              "system": "http://unitsofmeasure.org"
            }
          },
          {
            "high": {
              "value": 145,
              "code": "mmol/L",
              "system": "http://unitsofmeasure.org"
            }
          }
        ],
        "text": {
          "status": "generated",
          "div": "<div xmlns=\"http://www.w3.org/1999/xhtml\"><table class=\"hl7__eu__lab__report\"><tr><th>Test</th><th>10-Jul-2025</th><th>Reference&#xA0;Range</th><th>Unit</th></tr><tr><td>Sodium [Moles/volume] in Serum or Plasma</td><td>143.6</td><td>135 - 145</td><td></td><td>mmol/L</td></tr></table></div>"
        },
        "status": "final",
        "subject": {
          "reference": "urn:uuid:116a0efa-20f6-435d-894b-7ef7119b16b9",
          "display": "Marthe Gallet"
        },
        "effectiveDateTime": "2025-07-10T19:05:43Z",
        "specimen": {
          "reference": "urn:uuid:b215c143-d993-45e6-9ac5-c7f4c9674090"
        }
      }
    },
    {
      "fullUrl": "urn:uuid:c592f2d4-8a0f-46b9-b127-d26c95a8d927",
      "resource": {
        "resourceType": "Observation",
        "id": "c592f2d4-8a0f-46b9-b127-d26c95a8d927",
        "meta": {
          "profile": [
            "http://hl7.eu/fhir/laboratory/StructureDefinition/Observation-resultslab-eu-lab"
          ]
        },
        "performer": [
          {
            "display": "The Central European Lab"
          }
        ],
        "category": [
          {
            "coding": [
              {
                "system": "http://terminology.hl7.org/CodeSystem/observation-category",
                "code": "laboratory"
              }
            ]
          }
        ],
        "code": {
          "coding": [
            {
              "code": "2823-3",
              "system": "http://loinc.org",
              "display": "Potassium [Moles/volume] in Serum or Plasma"
            }
          ],
          "text": "Potassium [Moles/volume] in Serum or Plasma"
        },
        "valueQuantity": {
          "system": "http://unitsofmeasure.org",
          "value": 4.1,
          "unit": "mmol/L",
          "code": "mmol/L"
        },
        "referenceRange": [
          {
            "low": {
              "value": 3.5,
              "code": "mmol/L",
              "system": "http://unitsofmeasure.org"
            }
          },
          {
            "high": {
              "value": 5.1,
              "code": "mmol/L",
              "system": "http://unitsofmeasure.org"
            }
          }
        ],
        "text": {
          "status": "generated",
          "div": "<div xmlns=\"http://www.w3.org/1999/xhtml\"><table class=\"hl7__eu__lab__report\"><tr><th>Test</th><th>10-Jul-2025</th><th>Reference&#xA0;Range</th><th>Unit</th></tr><tr><td>Potassium [Moles/volume] in Serum or Plasma</td><td>4.1</td><td>3.5 - 5.1</td><td></td><td>mmol/L</td></tr></table></div>"
        },
        "status": "final",
        "subject": {
          "reference": "urn:uuid:116a0efa-20f6-435d-894b-7ef7119b16b9",
          "display": "Marthe Gallet"
        },
        "effectiveDateTime": "2025-07-10T19:05:43Z",
        "specimen": {
          "reference": "urn:uuid:b215c143-d993-45e6-9ac5-c7f4c9674090"
        }
      }
    },
    {
      "fullUrl": "urn:uuid:ce79513d-db87-47f8-b6ef-6f49cffbd632",
      "resource": {
        "resourceType": "Observation",
        "id": "ce79513d-db87-47f8-b6ef-6f49cffbd632",
        "meta": {
          "profile": [
            "http://hl7.eu/fhir/laboratory/StructureDefinition/Observation-resultslab-eu-lab"
          ]
        },
        "performer": [
          {
            "display": "The Central European Lab"
          }
        ],
        "category": [
          {
            "coding": [
              {
                "system": "http://terminology.hl7.org/CodeSystem/observation-category",
                "code": "laboratory"
              }
            ]
          }
        ],
        "code": {
          "coding": [
            {
              "code": "2075-0",
              "system": "http://loinc.org",
              "display": "Chloride [Moles/volume] in Serum or Plasma"
            }
          ],
          "text": "Chloride [Moles/volume] in Serum or Plasma"
        },
        "valueQuantity": {
          "system": "http://unitsofmeasure.org",
          "value": 102.5,
          "unit": "mmol/L",
          "code": "mmol/L"
        },
        "referenceRange": [
          {
            "low": {
              "value": 98,
              "code": "mmol/L",
              "system": "http://unitsofmeasure.org"
            }
          },
          {
            "high": {
              "value": 108,
              "code": "mmol/L",
              "system": "http://unitsofmeasure.org"
            }
          }
        ],
        "text": {
          "status": "generated",
          "div": "<div xmlns=\"http://www.w3.org/1999/xhtml\"><table class=\"hl7__eu__lab__report\"><tr><th>Test</th><th>10-Jul-2025</th><th>Reference&#xA0;Range</th><th>Unit</th></tr><tr><td>Chloride [Moles/volume] in Serum or Plasma</td><td>102.5</td><td>98 - 108</td><td></td><td>mmol/L</td></tr></table></div>"
        },
        "status": "final",
        "subject": {
          "reference": "urn:uuid:116a0efa-20f6-435d-894b-7ef7119b16b9",
          "display": "Marthe Gallet"
        },
        "effectiveDateTime": "2025-07-10T19:05:43Z",
        "specimen": {
          "reference": "urn:uuid:b215c143-d993-45e6-9ac5-c7f4c9674090"
        }
      }
    },
    {
      "fullUrl": "urn:uuid:9394408d-e316-49f2-bc5b-af50f0a3f54b",
      "resource": {
        "resourceType": "Observation",
        "id": "9394408d-e316-49f2-bc5b-af50f0a3f54b",
        "meta": {
          "profile": [
            "http://hl7.eu/fhir/laboratory/StructureDefinition/Observation-resultslab-eu-lab"
          ]
        },
        "performer": [
          {
            "display": "The Central European Lab"
          }
        ],
        "category": [
          {
            "coding": [
              {
                "system": "http://terminology.hl7.org/CodeSystem/observation-category",
                "code": "laboratory"
              }
            ]
          }
        ],
        "code": {
          "coding": [
            {
              "code": "2028-9",
              "system": "http://loinc.org",
              "display": "Carbon dioxide, total [Moles/volume] in Serum or Plasma"
            }
          ],
          "text": "Carbon dioxide, total [Moles/volume] in Serum or Plasma"
        },
        "valueQuantity": {
          "system": "http://unitsofmeasure.org",
          "value": 21,
          "unit": "mmol/L",
          "code": "mmol/L"
        },
        "referenceRange": [
          {
            "low": {
              "value": 22,
              "code": "mmol/L",
              "system": "http://unitsofmeasure.org"
            }
          },
          {
            "high": {
              "value": 32,
              "code": "mmol/L",
              "system": "http://unitsofmeasure.org"
            }
          }
        ],
        "interpretation": [
          {
            "coding": [
              {
                "code": "L",
                "system": "http://terminology.hl7.org/CodeSystem/v3-ObservationInterpretation",
                "display": "Low"
              }
            ]
          }
        ],
        "text": {
          "status": "generated",
          "div": "<div xmlns=\"http://www.w3.org/1999/xhtml\"><table class=\"hl7__eu__lab__report\"><tr><th>Test</th><th>10-Jul-2025</th><th>Reference&#xA0;Range</th><th>Unit</th></tr><tr><td>Carbon dioxide, total [Moles/volume] in Serum or Plasma</td><td>21.0</td><td>22 - 32</td><td>L</td><td>mmol/L</td></tr></table></div>"
        },
        "status": "final",
        "subject": {
          "reference": "urn:uuid:116a0efa-20f6-435d-894b-7ef7119b16b9",
          "display": "Marthe Gallet"
        },
        "effectiveDateTime": "2025-07-10T19:05:43Z",
        "specimen": {
          "reference": "urn:uuid:b215c143-d993-45e6-9ac5-c7f4c9674090"
        }
      }
    },
    {
      "fullUrl": "urn:uuid:592df2f6-65ef-4e38-9912-9d943f846424",
      "resource": {
        "resourceType": "Observation",
        "id": "592df2f6-65ef-4e38-9912-9d943f846424",
        "meta": {
          "profile": [
            "http://hl7.eu/fhir/laboratory/StructureDefinition/Observation-resultslab-eu-lab"
          ]
        },
        "performer": [
          {
            "display": "The Central European Lab"
          }
        ],
        "category": [
          {
            "coding": [
              {
                "system": "http://terminology.hl7.org/CodeSystem/observation-category",
                "code": "laboratory"
              }
            ]
          }
        ],
        "code": {
          "coding": [
            {
              "code": "5767-9",
              "system": "http://loinc.org",
              "display": "Appearance of Urine"
            }
          ],
          "text": "Appearance of Urine"
        },
        "text": {
          "status": "generated",
          "div": "<div xmlns=\"http://www.w3.org/1999/xhtml\"><table class=\"hl7__eu__lab__report\"><tr><th>Test</th><th>10-Jul-2025</th><th>Reference&#xA0;Range</th><th>Unit</th></tr><tr><td>Appearance of Urine</td></tr></table></div>"
        },
        "status": "final",
        "subject": {
          "reference": "urn:uuid:116a0efa-20f6-435d-894b-7ef7119b16b9",
          "display": "Marthe Gallet"
        },
        "effectiveDateTime": "2025-07-10T19:05:43Z",
        "specimen": {
          "reference": "urn:uuid:85159610-b8d1-4cda-9a3d-eea9888fc3b1"
        }
      }
    },
    {
      "fullUrl": "urn:uuid:75d6b6d6-8b8e-4dd5-95b7-08b6251bdd96",
      "resource": {
        "resourceType": "Observation",
        "id": "75d6b6d6-8b8e-4dd5-95b7-08b6251bdd96",
        "meta": {
          "profile": [
            "http://hl7.eu/fhir/laboratory/StructureDefinition/Observation-resultslab-eu-lab"
          ]
        },
        "performer": [
          {
            "display": "The Central European Lab"
          }
        ],
        "category": [
          {
            "coding": [
              {
                "system": "http://terminology.hl7.org/CodeSystem/observation-category",
                "code": "laboratory"
              }
            ]
          }
        ],
        "code": {
          "coding": [
            {
              "code": "34533-0",
              "system": "http://loinc.org",
              "display": "Odor of Urine"
            }
          ],
          "text": "Odor of Urine"
        },
        "text": {
          "status": "generated",
          "div": "<div xmlns=\"http://www.w3.org/1999/xhtml\"><table class=\"hl7__eu__lab__report\"><tr><th>Test</th><th>10-Jul-2025</th><th>Reference&#xA0;Range</th><th>Unit</th></tr><tr><td>Odor of Urine</td></tr></table></div>"
        },
        "status": "final",
        "subject": {
          "reference": "urn:uuid:116a0efa-20f6-435d-894b-7ef7119b16b9",
          "display": "Marthe Gallet"
        },
        "effectiveDateTime": "2025-07-10T19:05:43Z",
        "specimen": {
          "reference": "urn:uuid:85159610-b8d1-4cda-9a3d-eea9888fc3b1"
        }
      }
    },
    {
      "fullUrl": "urn:uuid:7827c5f1-94fc-4db7-8ac5-13421d8236c0",
      "resource": {
        "resourceType": "Observation",
        "id": "7827c5f1-94fc-4db7-8ac5-13421d8236c0",
        "meta": {
          "profile": [
            "http://hl7.eu/fhir/laboratory/StructureDefinition/Observation-resultslab-eu-lab"
          ]
        },
        "performer": [
          {
            "display": "The Central European Lab"
          }
        ],
        "category": [
          {
            "coding": [
              {
                "system": "http://terminology.hl7.org/CodeSystem/observation-category",
                "code": "laboratory"
              }
            ]
          }
        ],
        "code": {
          "coding": [
            {
              "code": "32167-9",
              "system": "http://loinc.org",
              "display": "Clarity of Urine"
            }
          ],
          "text": "Clarity of Urine"
        },
        "text": {
          "status": "generated",
          "div": "<div xmlns=\"http://www.w3.org/1999/xhtml\"><table class=\"hl7__eu__lab__report\"><tr><th>Test</th><th>10-Jul-2025</th><th>Reference&#xA0;Range</th><th>Unit</th></tr><tr><td>Clarity of Urine</td></tr></table></div>"
        },
        "status": "final",
        "subject": {
          "reference": "urn:uuid:116a0efa-20f6-435d-894b-7ef7119b16b9",
          "display": "Marthe Gallet"
        },
        "effectiveDateTime": "2025-07-10T19:05:43Z",
        "specimen": {
          "reference": "urn:uuid:85159610-b8d1-4cda-9a3d-eea9888fc3b1"
        }
      }
    },
    {
      "fullUrl": "urn:uuid:0330a53c-b4e7-42eb-b34d-90e7338b0336",
      "resource": {
        "resourceType": "Observation",
        "id": "0330a53c-b4e7-42eb-b34d-90e7338b0336",
        "meta": {
          "profile": [
            "http://hl7.eu/fhir/laboratory/StructureDefinition/Observation-resultslab-eu-lab"
          ]
        },
        "performer": [
          {
            "display": "The Central European Lab"
          }
        ],
        "category": [
          {
            "coding": [
              {
                "system": "http://terminology.hl7.org/CodeSystem/observation-category",
                "code": "laboratory"
              }
            ]
          }
        ],
        "code": {
          "coding": [
            {
              "code": "5778-6",
              "system": "http://loinc.org",
              "display": "Color of Urine"
            }
          ],
          "text": "Color of Urine"
        },
        "text": {
          "status": "generated",
          "div": "<div xmlns=\"http://www.w3.org/1999/xhtml\"><table class=\"hl7__eu__lab__report\"><tr><th>Test</th><th>10-Jul-2025</th><th>Reference&#xA0;Range</th><th>Unit</th></tr><tr><td>Color of Urine</td></tr></table></div>"
        },
        "status": "final",
        "subject": {
          "reference": "urn:uuid:116a0efa-20f6-435d-894b-7ef7119b16b9",
          "display": "Marthe Gallet"
        },
        "effectiveDateTime": "2025-07-10T19:05:43Z",
        "specimen": {
          "reference": "urn:uuid:85159610-b8d1-4cda-9a3d-eea9888fc3b1"
        }
      }
    },
    {
      "fullUrl": "urn:uuid:edc966b6-96cb-44d8-938e-df7548d5a5cf",
      "resource": {
        "resourceType": "Observation",
        "id": "edc966b6-96cb-44d8-938e-df7548d5a5cf",
        "meta": {
          "profile": [
            "http://hl7.eu/fhir/laboratory/StructureDefinition/Observation-resultslab-eu-lab"
          ]
        },
        "performer": [
          {
            "display": "The Central European Lab"
          }
        ],
        "category": [
          {
            "coding": [
              {
                "system": "http://terminology.hl7.org/CodeSystem/observation-category",
                "code": "laboratory"
              }
            ]
          }
        ],
        "code": {
          "coding": [
            {
              "code": "5792-7",
              "system": "http://loinc.org",
              "display": "Glucose [Mass/volume] in Urine by Test strip"
            }
          ],
          "text": "Glucose [Mass/volume] in Urine by Test strip"
        },
        "valueQuantity": {
          "system": "http://unitsofmeasure.org",
          "value": 1.8,
          "unit": "mg/dL",
          "code": "mg/dL"
        },
        "referenceRange": [
          {
            "low": {
              "value": 0.8,
              "code": "mg/dL",
              "system": "http://unitsofmeasure.org"
            }
          },
          {
            "high": {
              "value": 0,
              "code": "mg/dL",
              "system": "http://unitsofmeasure.org"
            }
          }
        ],
        "interpretation": [
          {
            "coding": [
              {
                "code": "H",
                "system": "http://terminology.hl7.org/CodeSystem/v3-ObservationInterpretation",
                "display": "High"
              }
            ]
          }
        ],
        "text": {
          "status": "generated",
          "div": "<div xmlns=\"http://www.w3.org/1999/xhtml\"><table class=\"hl7__eu__lab__report\"><tr><th>Test</th><th>10-Jul-2025</th><th>Reference&#xA0;Range</th><th>Unit</th></tr><tr><td>Glucose [Mass/volume] in Urine by Test strip</td><td>1.8</td><td>0.8 - 0</td><td>H</td><td>mg/dL</td></tr></table></div>"
        },
        "status": "final",
        "subject": {
          "reference": "urn:uuid:116a0efa-20f6-435d-894b-7ef7119b16b9",
          "display": "Marthe Gallet"
        },
        "effectiveDateTime": "2025-07-10T19:05:43Z",
        "specimen": {
          "reference": "urn:uuid:85159610-b8d1-4cda-9a3d-eea9888fc3b1"
        }
      }
    },
    {
      "fullUrl": "urn:uuid:3fd5f118-4dd7-4bb5-8f11-65c8e379c688",
      "resource": {
        "resourceType": "Observation",
        "id": "3fd5f118-4dd7-4bb5-8f11-65c8e379c688",
        "meta": {
          "profile": [
            "http://hl7.eu/fhir/laboratory/StructureDefinition/Observation-resultslab-eu-lab"
          ]
        },
        "performer": [
          {
            "display": "The Central European Lab"
          }
        ],
        "category": [
          {
            "coding": [
              {
                "system": "http://terminology.hl7.org/CodeSystem/observation-category",
                "code": "laboratory"
              }
            ]
          }
        ],
        "code": {
          "coding": [
            {
              "code": "25428-4",
              "system": "http://loinc.org",
              "display": "Glucose [Presence] in Urine by Test strip"
            }
          ],
          "text": "Glucose [Presence] in Urine by Test strip"
        },
        "text": {
          "status": "generated",
          "div": "<div xmlns=\"http://www.w3.org/1999/xhtml\"><table class=\"hl7__eu__lab__report\"><tr><th>Test</th><th>10-Jul-2025</th><th>Reference&#xA0;Range</th><th>Unit</th></tr><tr><td>Glucose [Presence] in Urine by Test strip</td></tr></table></div>"
        },
        "status": "final",
        "subject": {
          "reference": "urn:uuid:116a0efa-20f6-435d-894b-7ef7119b16b9",
          "display": "Marthe Gallet"
        },
        "effectiveDateTime": "2025-07-10T19:05:43Z",
        "specimen": {
          "reference": "urn:uuid:85159610-b8d1-4cda-9a3d-eea9888fc3b1"
        }
      }
    },
    {
      "fullUrl": "urn:uuid:71142dc5-925e-4bcc-8542-ed9cff7a8236",
      "resource": {
        "resourceType": "Observation",
        "id": "71142dc5-925e-4bcc-8542-ed9cff7a8236",
        "meta": {
          "profile": [
            "http://hl7.eu/fhir/laboratory/StructureDefinition/Observation-resultslab-eu-lab"
          ]
        },
        "performer": [
          {
            "display": "The Central European Lab"
          }
        ],
        "category": [
          {
            "coding": [
              {
                "system": "http://terminology.hl7.org/CodeSystem/observation-category",
                "code": "laboratory"
              }
            ]
          }
        ],
        "code": {
          "coding": [
            {
              "code": "20505-4",
              "system": "http://loinc.org",
              "display": "Bilirubin.total [Mass/volume] in Urine by Test strip"
            }
          ],
          "text": "Bilirubin.total [Mass/volume] in Urine by Test strip"
        },
        "valueQuantity": {
          "system": "http://unitsofmeasure.org",
          "value": 0.8,
          "unit": "mg/dL",
          "code": "mg/dL"
        },
        "referenceRange": [
          {
            "low": {
              "value": 0,
              "code": "mg/dL",
              "system": "http://unitsofmeasure.org"
            }
          },
          {
            "high": {
              "value": 1,
              "code": "mg/dL",
              "system": "http://unitsofmeasure.org"
            }
          }
        ],
        "text": {
          "status": "generated",
          "div": "<div xmlns=\"http://www.w3.org/1999/xhtml\"><table class=\"hl7__eu__lab__report\"><tr><th>Test</th><th>10-Jul-2025</th><th>Reference&#xA0;Range</th><th>Unit</th></tr><tr><td>Bilirubin.total [Mass/volume] in Urine by Test strip</td><td>0.8</td><td>0 - 1</td><td></td><td>mg/dL</td></tr></table></div>"
        },
        "status": "final",
        "subject": {
          "reference": "urn:uuid:116a0efa-20f6-435d-894b-7ef7119b16b9",
          "display": "Marthe Gallet"
        },
        "effectiveDateTime": "2025-07-10T19:05:43Z",
        "specimen": {
          "reference": "urn:uuid:85159610-b8d1-4cda-9a3d-eea9888fc3b1"
        }
      }
    },
    {
      "fullUrl": "urn:uuid:dbda97d5-f83a-468b-bd08-ca14c52a7bd3",
      "resource": {
        "resourceType": "Observation",
        "id": "dbda97d5-f83a-468b-bd08-ca14c52a7bd3",
        "meta": {
          "profile": [
            "http://hl7.eu/fhir/laboratory/StructureDefinition/Observation-resultslab-eu-lab"
          ]
        },
        "performer": [
          {
            "display": "The Central European Lab"
          }
        ],
        "category": [
          {
            "coding": [
              {
                "system": "http://terminology.hl7.org/CodeSystem/observation-category",
                "code": "laboratory"
              }
            ]
          }
        ],
        "code": {
          "coding": [
            {
              "code": "5770-3",
              "system": "http://loinc.org",
              "display": "Bilirubin.total [Presence] in Urine by Test strip"
            }
          ],
          "text": "Bilirubin.total [Presence] in Urine by Test strip"
        },
        "text": {
          "status": "generated",
          "div": "<div xmlns=\"http://www.w3.org/1999/xhtml\"><table class=\"hl7__eu__lab__report\"><tr><th>Test</th><th>10-Jul-2025</th><th>Reference&#xA0;Range</th><th>Unit</th></tr><tr><td>Bilirubin.total [Presence] in Urine by Test strip</td></tr></table></div>"
        },
        "status": "final",
        "subject": {
          "reference": "urn:uuid:116a0efa-20f6-435d-894b-7ef7119b16b9",
          "display": "Marthe Gallet"
        },
        "effectiveDateTime": "2025-07-10T19:05:43Z",
        "specimen": {
          "reference": "urn:uuid:85159610-b8d1-4cda-9a3d-eea9888fc3b1"
        }
      }
    },
    {
      "fullUrl": "urn:uuid:b4d0e5db-2cbe-4f5b-851e-67a9f3c8049b",
      "resource": {
        "resourceType": "Observation",
        "id": "b4d0e5db-2cbe-4f5b-851e-67a9f3c8049b",
        "meta": {
          "profile": [
            "http://hl7.eu/fhir/laboratory/StructureDefinition/Observation-resultslab-eu-lab"
          ]
        },
        "performer": [
          {
            "display": "The Central European Lab"
          }
        ],
        "category": [
          {
            "coding": [
              {
                "system": "http://terminology.hl7.org/CodeSystem/observation-category",
                "code": "laboratory"
              }
            ]
          }
        ],
        "code": {
          "coding": [
            {
              "code": "5797-6",
              "system": "http://loinc.org",
              "display": "Ketones [Mass/volume] in Urine by Test strip"
            }
          ],
          "text": "Ketones [Mass/volume] in Urine by Test strip"
        },
        "valueQuantity": {
          "system": "http://unitsofmeasure.org",
          "value": 12,
          "unit": "mg/dL",
          "code": "mg/dL"
        },
        "referenceRange": [
          {
            "low": {
              "value": 0,
              "code": "mg/dL",
              "system": "http://unitsofmeasure.org"
            }
          },
          {
            "high": {
              "value": 20,
              "code": "mg/dL",
              "system": "http://unitsofmeasure.org"
            }
          }
        ],
        "text": {
          "status": "generated",
          "div": "<div xmlns=\"http://www.w3.org/1999/xhtml\"><table class=\"hl7__eu__lab__report\"><tr><th>Test</th><th>10-Jul-2025</th><th>Reference&#xA0;Range</th><th>Unit</th></tr><tr><td>Ketones [Mass/volume] in Urine by Test strip</td><td>12.0</td><td>0 - 20</td><td></td><td>mg/dL</td></tr></table></div>"
        },
        "status": "final",
        "subject": {
          "reference": "urn:uuid:116a0efa-20f6-435d-894b-7ef7119b16b9",
          "display": "Marthe Gallet"
        },
        "effectiveDateTime": "2025-07-10T19:05:43Z",
        "specimen": {
          "reference": "urn:uuid:85159610-b8d1-4cda-9a3d-eea9888fc3b1"
        }
      }
    },
    {
      "fullUrl": "urn:uuid:28af208c-a8f5-4620-a651-f2b61d12648f",
      "resource": {
        "resourceType": "Observation",
        "id": "28af208c-a8f5-4620-a651-f2b61d12648f",
        "meta": {
          "profile": [
            "http://hl7.eu/fhir/laboratory/StructureDefinition/Observation-resultslab-eu-lab"
          ]
        },
        "performer": [
          {
            "display": "The Central European Lab"
          }
        ],
        "category": [
          {
            "coding": [
              {
                "system": "http://terminology.hl7.org/CodeSystem/observation-category",
                "code": "laboratory"
              }
            ]
          }
        ],
        "code": {
          "coding": [
            {
              "code": "2514-8",
              "system": "http://loinc.org",
              "display": "Ketones [Presence] in Urine by Test strip"
            }
          ],
          "text": "Ketones [Presence] in Urine by Test strip"
        },
        "text": {
          "status": "generated",
          "div": "<div xmlns=\"http://www.w3.org/1999/xhtml\"><table class=\"hl7__eu__lab__report\"><tr><th>Test</th><th>10-Jul-2025</th><th>Reference&#xA0;Range</th><th>Unit</th></tr><tr><td>Ketones [Presence] in Urine by Test strip</td></tr></table></div>"
        },
        "status": "final",
        "subject": {
          "reference": "urn:uuid:116a0efa-20f6-435d-894b-7ef7119b16b9",
          "display": "Marthe Gallet"
        },
        "effectiveDateTime": "2025-07-10T19:05:43Z",
        "specimen": {
          "reference": "urn:uuid:85159610-b8d1-4cda-9a3d-eea9888fc3b1"
        }
      }
    },
    {
      "fullUrl": "urn:uuid:716b99f5-3c38-481b-8f6a-a19071063e94",
      "resource": {
        "resourceType": "Observation",
        "id": "716b99f5-3c38-481b-8f6a-a19071063e94",
        "meta": {
          "profile": [
            "http://hl7.eu/fhir/laboratory/StructureDefinition/Observation-resultslab-eu-lab"
          ]
        },
        "performer": [
          {
            "display": "The Central European Lab"
          }
        ],
        "category": [
          {
            "coding": [
              {
                "system": "http://terminology.hl7.org/CodeSystem/observation-category",
                "code": "laboratory"
              }
            ]
          }
        ],
        "code": {
          "coding": [
            {
              "code": "5811-5",
              "system": "http://loinc.org",
              "display": "Specific gravity of Urine by Test strip"
            }
          ],
          "text": "Specific gravity of Urine by Test strip"
        },
        "valueQuantity": {
          "system": "http://unitsofmeasure.org",
          "value": 1,
          "unit": "{nominal}",
          "code": "{nominal}"
        },
        "referenceRange": [
          {
            "low": {
              "value": 1.01,
              "code": "g/mL",
              "system": "http://unitsofmeasure.org"
            }
          },
          {
            "high": {
              "value": 1.03,
              "code": "g/mL",
              "system": "http://unitsofmeasure.org"
            }
          }
        ],
        "interpretation": [
          {
            "coding": [
              {
                "code": "L",
                "system": "http://terminology.hl7.org/CodeSystem/v3-ObservationInterpretation",
                "display": "Low"
              }
            ]
          }
        ],
        "text": {
          "status": "generated",
          "div": "<div xmlns=\"http://www.w3.org/1999/xhtml\"><table class=\"hl7__eu__lab__report\"><tr><th>Test</th><th>10-Jul-2025</th><th>Reference&#xA0;Range</th><th>Unit</th></tr><tr><td>Specific gravity of Urine by Test strip</td><td>1.0</td><td>1.01 - 1.03</td><td>L</td><td>{nominal}</td></tr></table></div>"
        },
        "status": "final",
        "subject": {
          "reference": "urn:uuid:116a0efa-20f6-435d-894b-7ef7119b16b9",
          "display": "Marthe Gallet"
        },
        "effectiveDateTime": "2025-07-10T19:05:43Z",
        "specimen": {
          "reference": "urn:uuid:85159610-b8d1-4cda-9a3d-eea9888fc3b1"
        }
      }
    },
    {
      "fullUrl": "urn:uuid:d8dca315-927e-4029-9e2d-328770842c8f",
      "resource": {
        "resourceType": "Observation",
        "id": "d8dca315-927e-4029-9e2d-328770842c8f",
        "meta": {
          "profile": [
            "http://hl7.eu/fhir/laboratory/StructureDefinition/Observation-resultslab-eu-lab"
          ]
        },
        "performer": [
          {
            "display": "The Central European Lab"
          }
        ],
        "category": [
          {
            "coding": [
              {
                "system": "http://terminology.hl7.org/CodeSystem/observation-category",
                "code": "laboratory"
              }
            ]
          }
        ],
        "code": {
          "coding": [
            {
              "code": "5803-2",
              "system": "http://loinc.org",
              "display": "pH of Urine by Test strip"
            }
          ],
          "text": "pH of Urine by Test strip"
        },
        "valueQuantity": {
          "system": "http://unitsofmeasure.org",
          "value": 6,
          "unit": "pH",
          "code": "pH"
        },
        "referenceRange": [
          {
            "low": {
              "value": 4.6,
              "code": "pH",
              "system": "http://unitsofmeasure.org"
            }
          },
          {
            "high": {
              "value": 7,
              "code": "pH",
              "system": "http://unitsofmeasure.org"
            }
          }
        ],
        "text": {
          "status": "generated",
          "div": "<div xmlns=\"http://www.w3.org/1999/xhtml\"><table class=\"hl7__eu__lab__report\"><tr><th>Test</th><th>10-Jul-2025</th><th>Reference&#xA0;Range</th><th>Unit</th></tr><tr><td>pH of Urine by Test strip</td><td>6.0</td><td>4.6 - 7</td><td></td><td>pH</td></tr></table></div>"
        },
        "status": "final",
        "subject": {
          "reference": "urn:uuid:116a0efa-20f6-435d-894b-7ef7119b16b9",
          "display": "Marthe Gallet"
        },
        "effectiveDateTime": "2025-07-10T19:05:43Z",
        "specimen": {
          "reference": "urn:uuid:85159610-b8d1-4cda-9a3d-eea9888fc3b1"
        }
      }
    },
    {
      "fullUrl": "urn:uuid:a55b1725-a099-48e6-b87a-9aacb5f9f5f6",
      "resource": {
        "resourceType": "Observation",
        "id": "a55b1725-a099-48e6-b87a-9aacb5f9f5f6",
        "meta": {
          "profile": [
            "http://hl7.eu/fhir/laboratory/StructureDefinition/Observation-resultslab-eu-lab"
          ]
        },
        "performer": [
          {
            "display": "The Central European Lab"
          }
        ],
        "category": [
          {
            "coding": [
              {
                "system": "http://terminology.hl7.org/CodeSystem/observation-category",
                "code": "laboratory"
              }
            ]
          }
        ],
        "code": {
          "coding": [
            {
              "code": "5804-0",
              "system": "http://loinc.org",
              "display": "Protein [Mass/volume] in Urine by Test strip"
            }
          ],
          "text": "Protein [Mass/volume] in Urine by Test strip"
        },
        "valueQuantity": {
          "system": "http://unitsofmeasure.org",
          "value": 223.4,
          "unit": "mg/dL",
          "code": "mg/dL"
        },
        "referenceRange": [
          {
            "low": {
              "value": 0,
              "code": "mg/dL",
              "system": "http://unitsofmeasure.org"
            }
          },
          {
            "high": {
              "value": 15,
              "code": "mg/dL",
              "system": "http://unitsofmeasure.org"
            }
          }
        ],
        "interpretation": [
          {
            "coding": [
              {
                "code": "H",
                "system": "http://terminology.hl7.org/CodeSystem/v3-ObservationInterpretation",
                "display": "High"
              }
            ]
          }
        ],
        "text": {
          "status": "generated",
          "div": "<div xmlns=\"http://www.w3.org/1999/xhtml\"><table class=\"hl7__eu__lab__report\"><tr><th>Test</th><th>10-Jul-2025</th><th>Reference&#xA0;Range</th><th>Unit</th></tr><tr><td>Protein [Mass/volume] in Urine by Test strip</td><td>223.4</td><td>0 - 15</td><td>H</td><td>mg/dL</td></tr></table></div>"
        },
        "status": "final",
        "subject": {
          "reference": "urn:uuid:116a0efa-20f6-435d-894b-7ef7119b16b9",
          "display": "Marthe Gallet"
        },
        "effectiveDateTime": "2025-07-10T19:05:43Z",
        "specimen": {
          "reference": "urn:uuid:85159610-b8d1-4cda-9a3d-eea9888fc3b1"
        }
      }
    },
    {
      "fullUrl": "urn:uuid:873fd9f0-0153-420c-a427-dda0ba8890c0",
      "resource": {
        "resourceType": "Observation",
        "id": "873fd9f0-0153-420c-a427-dda0ba8890c0",
        "meta": {
          "profile": [
            "http://hl7.eu/fhir/laboratory/StructureDefinition/Observation-resultslab-eu-lab"
          ]
        },
        "performer": [
          {
            "display": "The Central European Lab"
          }
        ],
        "category": [
          {
            "coding": [
              {
                "system": "http://terminology.hl7.org/CodeSystem/observation-category",
                "code": "laboratory"
              }
            ]
          }
        ],
        "code": {
          "coding": [
            {
              "code": "20454-5",
              "system": "http://loinc.org",
              "display": "Protein [Presence] in Urine by Test strip"
            }
          ],
          "text": "Protein [Presence] in Urine by Test strip"
        },
        "text": {
          "status": "generated",
          "div": "<div xmlns=\"http://www.w3.org/1999/xhtml\"><table class=\"hl7__eu__lab__report\"><tr><th>Test</th><th>10-Jul-2025</th><th>Reference&#xA0;Range</th><th>Unit</th></tr><tr><td>Protein [Presence] in Urine by Test strip</td></tr></table></div>"
        },
        "status": "final",
        "subject": {
          "reference": "urn:uuid:116a0efa-20f6-435d-894b-7ef7119b16b9",
          "display": "Marthe Gallet"
        },
        "effectiveDateTime": "2025-07-10T19:05:43Z",
        "specimen": {
          "reference": "urn:uuid:85159610-b8d1-4cda-9a3d-eea9888fc3b1"
        }
      }
    },
    {
      "fullUrl": "urn:uuid:818edd1b-937b-48f3-aaf0-e80345a6d5dc",
      "resource": {
        "resourceType": "Observation",
        "id": "818edd1b-937b-48f3-aaf0-e80345a6d5dc",
        "meta": {
          "profile": [
            "http://hl7.eu/fhir/laboratory/StructureDefinition/Observation-resultslab-eu-lab"
          ]
        },
        "performer": [
          {
            "display": "The Central European Lab"
          }
        ],
        "category": [
          {
            "coding": [
              {
                "system": "http://terminology.hl7.org/CodeSystem/observation-category",
                "code": "laboratory"
              }
            ]
          }
        ],
        "code": {
          "coding": [
            {
              "code": "5802-4",
              "system": "http://loinc.org",
              "display": "Nitrite [Presence] in Urine by Test strip"
            }
          ],
          "text": "Nitrite [Presence] in Urine by Test strip"
        },
        "text": {
          "status": "generated",
          "div": "<div xmlns=\"http://www.w3.org/1999/xhtml\"><table class=\"hl7__eu__lab__report\"><tr><th>Test</th><th>10-Jul-2025</th><th>Reference&#xA0;Range</th><th>Unit</th></tr><tr><td>Nitrite [Presence] in Urine by Test strip</td></tr></table></div>"
        },
        "status": "final",
        "subject": {
          "reference": "urn:uuid:116a0efa-20f6-435d-894b-7ef7119b16b9",
          "display": "Marthe Gallet"
        },
        "effectiveDateTime": "2025-07-10T19:05:43Z",
        "specimen": {
          "reference": "urn:uuid:85159610-b8d1-4cda-9a3d-eea9888fc3b1"
        }
      }
    },
    {
      "fullUrl": "urn:uuid:f585ea17-4301-4e37-9ea6-de1769078791",
      "resource": {
        "resourceType": "Observation",
        "id": "f585ea17-4301-4e37-9ea6-de1769078791",
        "meta": {
          "profile": [
            "http://hl7.eu/fhir/laboratory/StructureDefinition/Observation-resultslab-eu-lab"
          ]
        },
        "performer": [
          {
            "display": "The Central European Lab"
          }
        ],
        "category": [
          {
            "coding": [
              {
                "system": "http://terminology.hl7.org/CodeSystem/observation-category",
                "code": "laboratory"
              }
            ]
          }
        ],
        "code": {
          "coding": [
            {
              "code": "5794-3",
              "system": "http://loinc.org",
              "display": "Hemoglobin [Presence] in Urine by Test strip"
            }
          ],
          "text": "Hemoglobin [Presence] in Urine by Test strip"
        },
        "text": {
          "status": "generated",
          "div": "<div xmlns=\"http://www.w3.org/1999/xhtml\"><table class=\"hl7__eu__lab__report\"><tr><th>Test</th><th>10-Jul-2025</th><th>Reference&#xA0;Range</th><th>Unit</th></tr><tr><td>Hemoglobin [Presence] in Urine by Test strip</td></tr></table></div>"
        },
        "status": "final",
        "subject": {
          "reference": "urn:uuid:116a0efa-20f6-435d-894b-7ef7119b16b9",
          "display": "Marthe Gallet"
        },
        "effectiveDateTime": "2025-07-10T19:05:43Z",
        "specimen": {
          "reference": "urn:uuid:85159610-b8d1-4cda-9a3d-eea9888fc3b1"
        }
      }
    },
    {
      "fullUrl": "urn:uuid:9c7724df-b7ca-4e5b-8281-b65d937c0f2e",
      "resource": {
        "resourceType": "Observation",
        "id": "9c7724df-b7ca-4e5b-8281-b65d937c0f2e",
        "meta": {
          "profile": [
            "http://hl7.eu/fhir/laboratory/StructureDefinition/Observation-resultslab-eu-lab"
          ]
        },
        "performer": [
          {
            "display": "The Central European Lab"
          }
        ],
        "category": [
          {
            "coding": [
              {
                "system": "http://terminology.hl7.org/CodeSystem/observation-category",
                "code": "laboratory"
              }
            ]
          }
        ],
        "code": {
          "coding": [
            {
              "code": "5799-2",
              "system": "http://loinc.org",
              "display": "Leukocyte esterase [Presence] in Urine by Test strip"
            }
          ],
          "text": "Leukocyte esterase [Presence] in Urine by Test strip"
        },
        "text": {
          "status": "generated",
          "div": "<div xmlns=\"http://www.w3.org/1999/xhtml\"><table class=\"hl7__eu__lab__report\"><tr><th>Test</th><th>10-Jul-2025</th><th>Reference&#xA0;Range</th><th>Unit</th></tr><tr><td>Leukocyte esterase [Presence] in Urine by Test strip</td></tr></table></div>"
        },
        "status": "final",
        "subject": {
          "reference": "urn:uuid:116a0efa-20f6-435d-894b-7ef7119b16b9",
          "display": "Marthe Gallet"
        },
        "effectiveDateTime": "2025-07-10T19:05:43Z",
        "specimen": {
          "reference": "urn:uuid:85159610-b8d1-4cda-9a3d-eea9888fc3b1"
        }
      }
    },
    {
      "fullUrl": "urn:uuid:cfb9e512-a261-44f6-a09e-0eb71c338802",
      "resource": {
        "resourceType": "Device",
        "id": "cfb9e512-a261-44f6-a09e-0eb71c338802",
        "deviceName": [
          {
            "name": "SYNDERAI Synthetic Generator",
            "type": "manufacturer-name"
          }
        ],
        "version": [
          {
            "value": "5.0"
          }
        ],
        "text": {
          "status": "generated",
          "div": "<div xmlns=\"http://www.w3.org/1999/xhtml\">SYNDERAI Synthetic Generator v5.0</div>"
        },
        "status": "active\"",
        "distinctIdentifier": "synderai-generator-50",
        "manufacturer": "SYNDERAI Project"
      }
    },
    {
      "fullUrl": "urn:uuid:12d14726-c20e-4264-9b93-c17cafa3af8c",
      "resource": {
        "resourceType": "Provenance",
        "id": "12d14726-c20e-4264-9b93-c17cafa3af8c",
        "target": [
          {
            "reference": "Patient/116a0efa-20f6-435d-894b-7ef7119b16b9"
          },
          {
            "reference": "Bundle/1013bf9a-4a39-4843-939d-773492644350"
          },
          {
            "reference": "Composition/e4653f06-c437-4ef2-99e6-6e8ec81efaec"
          },
          {
            "reference": "PractitionerRole/584fe615-cb73-469b-ac83-e35540565d77"
          },
          {
            "reference": "Practitioner/b16e8370-d22a-49f2-83d5-1dd0ec0a77f2"
          },
          {
            "reference": "PractitionerRole/ecf66159-e7b5-4474-8e3a-33a4cec3e5a6"
          },
          {
            "reference": "Organization/224b133f-8269-445d-8db7-3806b963c1b8"
          }
        ],
        "activity": {
          "text": "Synthetic Example Data Generation"
        },
        "policy": [
          "https://synderai.net/synderai-synthetic-data-policy"
        ],
        "agent": [
          {
            "type": {
              "text": "author"
            },
            "who": {
              "reference": "Device/cfb9e512-a261-44f6-a09e-0eb71c338802"
            }
          }
        ],
        "reason": [
          {
            "text": "Interoperability Testing and Training (non-clinical use)"
          }
        ],
        "text": {
          "status": "generated",
          "div": "<div xmlns=\"http://www.w3.org/1999/xhtml\">Provenance for SYNDERAI Synthetic Example Data Resource</div>"
        },
        "recorded": "2025-07-10T21:05:43Z"
      }
    },
    {
      "fullUrl": "urn:uuid:584fe615-cb73-469b-ac83-e35540565d77",
      "resource": {
        "resourceType": "PractitionerRole",
        "id": "584fe615-cb73-469b-ac83-e35540565d77",
        "meta": {
          "profile": [
            "http://hl7.eu/fhir/base/StructureDefinition/practitionerRole-eu"
          ]
        },
        "text": {
          "status": "generated",
          "div": "<div xmlns=\"http://www.w3.org/1999/xhtml\">Laboratory Role Id: 584fe615-cb73-469b-ac83-e35540565d77</div>"
        },
        "practitioner": {
          "reference": "urn:uuid:b16e8370-d22a-49f2-83d5-1dd0ec0a77f2"
        }
      }
    },
    {
      "fullUrl": "urn:uuid:b16e8370-d22a-49f2-83d5-1dd0ec0a77f2",
      "resource": {
        "resourceType": "Practitioner",
        "id": "b16e8370-d22a-49f2-83d5-1dd0ec0a77f2",
        "meta": {
          "profile": [
            "http://hl7.eu/fhir/base/StructureDefinition/practitioner-eu"
          ]
        },
        "identifier": [
          {
            "assigner": {
              "display": "HL7 Europe"
            },
            "system": "urn:oid:2.16.840.1.113883.2.51.999",
            "value": "c3932a10-d2d0-4066-bd40-265cd599be30"
          }
        ],
        "name": [
          {
            "prefix": [
              "dr"
            ],
            "given": [
              "Ex"
            ],
            "family": "Ample"
          }
        ],
        "address": [
          {
            "line": [
              "Laboratoire Central Européenne",
              "Boulevard du Jardin Botanique 32"
            ],
            "postalCode": "1000",
            "city": "Brussels",
            "country": "Belgium"
          }
        ],
        "text": {
          "status": "generated",
          "div": "<div xmlns=\"http://www.w3.org/1999/xhtml\">Laboratory: Laboratoire Central Européenne, 1000 Brussels, Belgium</div>"
        }
      }
    }
  ],
  "type": "document",
  "timestamp": "2025-07-10T21:05:43Z"
}
