{
  "resourceType": "Bundle",
  "id": "d1c69def-8946-447d-b540-8249c66e4a69",
  "meta": {
    "profile": [
      "http://hl7.eu/fhir/laboratory/StructureDefinition/Bundle-eu-lab"
    ]
  },
  "identifier": {
    "assigner": {
      "display": "HL7 Europe"
    },
    "system": "urn:oid:2.16.840.1.113883.2.51.999",
    "value": "7536b03d-8f0d-4184-8d7d-031a4274c0b5"
  },
  "entry": [
    {
      "fullUrl": "urn:uuid:933f8493-8d17-47d7-8b19-46dd03083bee",
      "resource": {
        "resourceType": "Composition",
        "id": "933f8493-8d17-47d7-8b19-46dd03083bee",
        "meta": {
          "profile": [
            "http://hl7.eu/fhir/laboratory/StructureDefinition/Composition-eu-lab"
          ]
        },
        "identifier": {
          "assigner": {
            "display": "HL7 Europe"
          },
          "system": "urn:oid:2.16.840.1.113883.2.51.999",
          "value": "680d4767-9381-4a3a-bebc-99e19eb12dc1"
        },
        "author": [
          {
            "reference": "urn:uuid:8d762cc6-4608-4a57-9f0e-cd4691cab88e"
          }
        ],
        "category": [
          {
            "coding": [
              {
                "code": "26436-6",
                "system": "http://loinc.org",
                "display": "Laboratory studies (set)"
              }
            ]
          }
        ],
        "type": {
          "coding": [
            {
              "code": "11502-2",
              "system": "http://loinc.org",
              "display": "Laboratory report"
            }
          ],
          "text": "Laboratory Report"
        },
        "section": [
          {
            "code": {
              "coding": [
                {
                  "code": "26436-6",
                  "system": "http://loinc.org",
                  "display": "Laboratory studies (set)"
                }
              ],
              "text": "Laboratory studies"
            },
            "section": [
              {
                "code": {
                  "coding": [
                    {
                      "code": "$18719-5",
                      "system": "http://loinc.org",
                      "display": "Chemistry studies (set)"
                    }
                  ],
                  "text": "Chemistry"
                },
                "entry": [
                  {
                    "reference": "urn:uuid:e382a151-4b08-4f7a-9817-11f46b3d0898"
                  },
                  {
                    "reference": "urn:uuid:8e76d125-900f-4761-9807-5ce0d0687c28"
                  },
                  {
                    "reference": "urn:uuid:cc471117-3ea6-4b6a-9fa1-68f27e72d90f"
                  },
                  {
                    "reference": "urn:uuid:b550e273-5734-4e36-a79a-3d3011ad6ffe"
                  },
                  {
                    "reference": "urn:uuid:b2c44674-abfd-44ba-98cb-68c18107ea07"
                  },
                  {
                    "reference": "urn:uuid:368e7610-1c82-4a21-91a4-a48dc9b512a8"
                  },
                  {
                    "reference": "urn:uuid:05c9eaa3-71f5-4ed7-9953-7bd1ce5d2658"
                  },
                  {
                    "reference": "urn:uuid:940330f7-2b07-42bd-a220-163e260e8925"
                  },
                  {
                    "reference": "urn:uuid:c2a2b7ed-4cd0-4b0a-80f2-3a686a5c6c41"
                  },
                  {
                    "reference": "urn:uuid:de932a91-32f9-4096-aa27-8ef90fb40482"
                  }
                ],
                "text": {
                  "status": "generated",
                  "div": "<div xmlns=\"http://www.w3.org/1999/xhtml\"><h3>Chemistry</h3><table class=\"hl7__eu__lab__report\"><thead><tr><th>Test</th><th>31-OCT-2019</th><th>Reference&#xA0;Range</th><th>Unit</th></tr></thead><tbody><tr><td>Glucose [Mass/volume] in Serum or Plasma</td><td>74.8</td><td>70 - 140</td><td>mg/dL</td></tr><tr><td>Urea nitrogen [Mass/volume] in Serum or Plasma</td><td>14.6</td><td>7 - 25</td><td>mg/dL</td></tr><tr><td>Creatinine [Mass/volume] in Serum or Plasma</td><td><strong>2.0 H</strong></td><td>0.9 - 1.3</td><td>mg/dL</td></tr><tr><td>Calcium [Mass/volume] in Serum or Plasma</td><td>9.2</td><td>8.5 - 10.5</td><td>mg/dL</td></tr><tr><td>Sodium [Moles/volume] in Serum or Plasma</td><td>139.9</td><td>135 - 145</td><td>mmol/L</td></tr><tr><td>Potassium [Moles/volume] in Serum or Plasma</td><td>4.5</td><td>3.5 - 5.3</td><td>mmol/L</td></tr><tr><td>Chloride [Moles/volume] in Serum or Plasma</td><td>106.3</td><td>98 - 107</td><td>mmol/L</td></tr><tr><td>Carbon dioxide, total [Moles/volume] in Serum or Plasma</td><td>23.9</td><td>22 - 29</td><td>mmol/L</td></tr><tr><td>Ketones [Presence] in Urine by Test strip</td><td>Urine ketone test = +</td><td></td><td></td></tr><tr><td>Hemoglobin A1c/Hemoglobin.total in Blood</td><td><strong>2.9 L</strong></td><td>4.5 - 6.4</td><td>%</td></tr></tbody></table></div>"
                },
                "title": "Chemistry"
              },
              {
                "code": {
                  "coding": [
                    {
                      "code": "$18729-4",
                      "system": "http://loinc.org",
                      "display": "Urinalysis studies (set)"
                    }
                  ],
                  "text": "Urinalysis"
                },
                "entry": [
                  {
                    "reference": "urn:uuid:3e55321f-99b9-405f-80b8-24b57ea5c38b"
                  },
                  {
                    "reference": "urn:uuid:6cf44586-80be-4e7f-911b-0094967d8e53"
                  },
                  {
                    "reference": "urn:uuid:60644bd6-8587-49b9-9411-bd6e4ea1d07b"
                  },
                  {
                    "reference": "urn:uuid:bdfe0b50-f5e4-46e9-a78b-aff8fd3be054"
                  },
                  {
                    "reference": "urn:uuid:4e916c8a-2b5f-4fa1-b426-846688f2c15a"
                  },
                  {
                    "reference": "urn:uuid:726c9a00-d6ea-4d54-a168-ee220d65fcde"
                  },
                  {
                    "reference": "urn:uuid:08c10489-c48b-42c6-8fea-8818bad7cdd3"
                  },
                  {
                    "reference": "urn:uuid:e5c68581-2b47-47e9-866f-2bfabe9a1d17"
                  },
                  {
                    "reference": "urn:uuid:bfcdf71b-705c-4c27-a128-182073127524"
                  },
                  {
                    "reference": "urn:uuid:1d02fe90-f1d1-4d5a-b75d-7c867993ad5a"
                  },
                  {
                    "reference": "urn:uuid:977b0428-24aa-4205-b6df-33753bfde047"
                  },
                  {
                    "reference": "urn:uuid:09fd72c5-cb49-48ca-abf5-90d472f3cd67"
                  }
                ],
                "text": {
                  "status": "generated",
                  "div": "<div xmlns=\"http://www.w3.org/1999/xhtml\"><h3>Urinalysis</h3><table class=\"hl7__eu__lab__report\"><thead><tr><th>Test</th><th>31-OCT-2019</th><th>Reference&#xA0;Range</th><th>Unit</th></tr></thead><tbody><tr><td>Glucose [Mass/volume] in Urine by Test strip</td><td><strong>0.6 L</strong></td><td>0.8 - 0</td><td>mg/dL</td></tr><tr><td>Glucose [Presence] in Urine by Test strip</td><td>++</td><td></td><td></td></tr><tr><td>Bilirubin.total [Mass/volume] in Urine by Test strip</td><td>1.2</td><td>0.2 - 1.5</td><td>mg/dL</td></tr><tr><td>Bilirubin.total [Presence] in Urine by Test strip</td><td>Finding of bilirubin in urine</td><td></td><td></td></tr><tr><td>Ketones [Mass/volume] in Urine by Test strip</td><td><strong>13.7 H</strong></td><td>0 - 4</td><td>mg/dL</td></tr><tr><td>Specific gravity of Urine by Test strip</td><td><strong>1.0 L</strong></td><td>1.01 - 1.03</td><td>{nominal}</td></tr><tr><td>pH of Urine by Test strip</td><td>6.0</td><td>4.5 - 7.5</td><td>pH</td></tr><tr><td>Protein [Mass/volume] in Urine by Test strip</td><td><strong>341.8 H</strong></td><td>0 - 150</td><td>mg/dL</td></tr><tr><td>Protein [Presence] in Urine by Test strip</td><td>Urine protein test = ++</td><td></td><td></td></tr><tr><td>Nitrite [Presence] in Urine by Test strip</td><td>Urine nitrite negative</td><td></td><td></td></tr><tr><td>Hemoglobin [Presence] in Urine by Test strip</td><td>Urine blood test = negative</td><td></td><td></td></tr><tr><td>Leukocyte esterase [Presence] in Urine by Test strip</td><td>Urine leukocyte test negative</td><td></td><td></td></tr></tbody></table></div>"
                },
                "title": "Urinalysis"
              },
              {
                "code": {
                  "coding": [
                    {
                      "code": "$LP7846-1",
                      "system": "http://loinc.org",
                      "display": "Specimen information"
                    }
                  ],
                  "text": "Specimen information"
                },
                "entry": [
                  {
                    "reference": "urn:uuid:7b30b5a7-7f48-4ff7-bd87-9df1b8604bd3"
                  },
                  {
                    "reference": "urn:uuid:f23d29ac-7fd8-4d18-a1d9-45325d16ffde"
                  },
                  {
                    "reference": "urn:uuid:0471d360-b7ef-4fc2-90bf-7bbfa8159274"
                  },
                  {
                    "reference": "urn:uuid:7524fce9-a1d9-4fac-b549-99acef6eeb12"
                  }
                ],
                "text": {
                  "status": "generated",
                  "div": "<div xmlns=\"http://www.w3.org/1999/xhtml\"><h3>Specimen information</h3><table class=\"hl7__eu__lab__report\"><thead><tr><th>Test</th><th>31-OCT-2019</th><th>Specimen</th><th></th></tr></thead><tbody><tr><td>Appearance of Urine</td><td>Cloudy urine</td><td>Urine</td><td></td></tr><tr><td>Odor of Urine</td><td>Urine smell ammoniacal</td><td>Urine</td><td></td></tr><tr><td>Clarity of Urine</td><td>Translucent</td><td>Urine</td><td></td></tr><tr><td>Color of Urine</td><td>Brown color</td><td>Urine</td><td></td></tr></tbody></table></div>"
                },
                "title": "Specimen information"
              }
            ],
            "title": "Laboratory Report"
          },
          {
            "text": {
              "status": "generated",
              "div": "<div xmlns=\"http://www.w3.org/1999/xhtml\"><h3>Annotation</h3><table class=\"hl7__eu__lab__report\"><tr><th>Conclusion and Recommendations based on this report and previous findings known to us</th></tr><tr><td>The patient shows elevated serum creatinine, indicating impaired renal function. Urinalysis reveals proteinuria, glucosuria, ketonuria, low specific gravity, and abnormal urine appearance (cloudy, brown, ammoniacal), suggesting possible nephrotic syndrome or diabetic nephropathy, though HbA1c is low. No evidence of urinary infection (negative nitrites/leukocytes). Further clinical correlation and nephrology evaluation are recommended.</td></tr></table></div>"
            },
            "code": {
              "coding": [
                {
                  "system": "http://loinc.org",
                  "code": "48767-8",
                  "display": "Annotation comment"
                }
              ]
            },
            "title": "Annotation comment"
          }
        ],
        "status": "final",
        "subject": {
          "reference": "urn:uuid:11e1cf8a-a306-4d30-b0e9-71b961167281",
          "display": "Pelayo Casal"
        },
        "date": "2019-10-31T06:38:59Z",
        "title": "Laboratory Report",
        "confidentiality": "N"
      }
    },
    {
      "fullUrl": "urn:uuid:38c8dee6-709a-4533-84dd-0a5bea26d5b7",
      "resource": {
        "resourceType": "DiagnosticReport",
        "id": "38c8dee6-709a-4533-84dd-0a5bea26d5b7",
        "meta": {
          "profile": [
            "http://hl7.eu/fhir/laboratory/StructureDefinition/DiagnosticReport-eu-lab"
          ]
        },
        "identifier": [
          {
            "assigner": {
              "display": "HL7 Europe"
            },
            "system": "urn:oid:2.16.840.1.113883.2.51.999",
            "value": "4e1325cb-2316-4d2d-a824-4371f27a6b8b"
          }
        ],
        "extension": [
          {
            "url": "http://hl7.org/fhir/5.0/StructureDefinition/extension-DiagnosticReport.composition",
            "valueReference": {
              "reference": "urn:uuid:680d4767-9381-4a3a-bebc-99e19eb12dc1"
            }
          }
        ],
        "category": [
          {
            "coding": [
              {
                "code": "26436-6",
                "system": "http://loinc.org",
                "display": "Laboratory studies (set)"
              }
            ]
          }
        ],
        "specimen": [
          {
            "reference": "urn:uuid:76352289-79a8-4bbc-a61c-d49e49df5af0"
          },
          {
            "reference": "urn:uuid:d5b9a70e-0266-4a0d-8d53-0cdd5dba546d"
          },
          {
            "reference": "urn:uuid:38b4bf8a-875b-4733-9aa5-19fc65b32566"
          }
        ],
        "result": [
          {
            "reference": "urn:uuid:e382a151-4b08-4f7a-9817-11f46b3d0898"
          },
          {
            "reference": "urn:uuid:8e76d125-900f-4761-9807-5ce0d0687c28"
          },
          {
            "reference": "urn:uuid:cc471117-3ea6-4b6a-9fa1-68f27e72d90f"
          },
          {
            "reference": "urn:uuid:b550e273-5734-4e36-a79a-3d3011ad6ffe"
          },
          {
            "reference": "urn:uuid:b2c44674-abfd-44ba-98cb-68c18107ea07"
          },
          {
            "reference": "urn:uuid:368e7610-1c82-4a21-91a4-a48dc9b512a8"
          },
          {
            "reference": "urn:uuid:05c9eaa3-71f5-4ed7-9953-7bd1ce5d2658"
          },
          {
            "reference": "urn:uuid:940330f7-2b07-42bd-a220-163e260e8925"
          },
          {
            "reference": "urn:uuid:7b30b5a7-7f48-4ff7-bd87-9df1b8604bd3"
          },
          {
            "reference": "urn:uuid:f23d29ac-7fd8-4d18-a1d9-45325d16ffde"
          },
          {
            "reference": "urn:uuid:0471d360-b7ef-4fc2-90bf-7bbfa8159274"
          },
          {
            "reference": "urn:uuid:7524fce9-a1d9-4fac-b549-99acef6eeb12"
          },
          {
            "reference": "urn:uuid:3e55321f-99b9-405f-80b8-24b57ea5c38b"
          },
          {
            "reference": "urn:uuid:6cf44586-80be-4e7f-911b-0094967d8e53"
          },
          {
            "reference": "urn:uuid:60644bd6-8587-49b9-9411-bd6e4ea1d07b"
          },
          {
            "reference": "urn:uuid:bdfe0b50-f5e4-46e9-a78b-aff8fd3be054"
          },
          {
            "reference": "urn:uuid:4e916c8a-2b5f-4fa1-b426-846688f2c15a"
          },
          {
            "reference": "urn:uuid:c2a2b7ed-4cd0-4b0a-80f2-3a686a5c6c41"
          },
          {
            "reference": "urn:uuid:726c9a00-d6ea-4d54-a168-ee220d65fcde"
          },
          {
            "reference": "urn:uuid:08c10489-c48b-42c6-8fea-8818bad7cdd3"
          },
          {
            "reference": "urn:uuid:e5c68581-2b47-47e9-866f-2bfabe9a1d17"
          },
          {
            "reference": "urn:uuid:bfcdf71b-705c-4c27-a128-182073127524"
          },
          {
            "reference": "urn:uuid:1d02fe90-f1d1-4d5a-b75d-7c867993ad5a"
          },
          {
            "reference": "urn:uuid:977b0428-24aa-4205-b6df-33753bfde047"
          },
          {
            "reference": "urn:uuid:09fd72c5-cb49-48ca-abf5-90d472f3cd67"
          },
          {
            "reference": "urn:uuid:de932a91-32f9-4096-aa27-8ef90fb40482"
          }
        ],
        "status": "registered",
        "code": {
          "coding": [
            {
              "code": "11502-2",
              "system": "http://loinc.org",
              "display": "Laboratory report"
            }
          ]
        },
        "subject": {
          "reference": "urn:uuid:11e1cf8a-a306-4d30-b0e9-71b961167281",
          "display": "Pelayo Casal"
        }
      }
    },
    {
      "fullUrl": "urn:uuid:11e1cf8a-a306-4d30-b0e9-71b961167281",
      "resource": {
        "resourceType": "Patient",
        "id": "11e1cf8a-a306-4d30-b0e9-71b961167281",
        "meta": {
          "security": [
            {
              "system": "http://terminology.hl7.org/CodeSystem/v3-ActReason",
              "code": "HTEST"
            },
            {
              "system": "http://terminology.hl7.org/CodeSystem/v3-ActReason",
              "code": "TRAIN"
            }
          ],
          "tag": [
            {
              "system": "https://synderai.net/fhir/CodeSystem/tags",
              "code": "synthetic",
              "display": "SYNDERAI Synthetic data"
            }
          ],
          "profile": [
            "http://hl7.eu/fhir/base/StructureDefinition/patient-eu-core"
          ]
        },
        "identifier": [
          {
            "type": {
              "coding": [
                {
                  "code": "PT",
                  "system": "http://terminology.hl7.org/CodeSystem/v2-0203"
                }
              ]
            },
            "system": "http://ec.europa.eu/identifier/eci",
            "value": "7707-510028-7"
          },
          {
            "type": {
              "coding": [
                {
                  "code": "MR",
                  "system": "http://terminology.hl7.org/CodeSystem/v2-0203"
                }
              ]
            },
            "system": "http://local.setting.eu/identifier",
            "value": "d88e82c6-df33-82d2-8538-f8b57da06491"
          }
        ],
        "name": [
          {
            "family": "Casal"
          },
          {
            "given": [
              "Pelayo"
            ]
          },
          {
            "text": "Pelayo Casal"
          }
        ],
        "address": [
          {
            "line": [
              "Callejón de Ignacio Pedrosa 67 Apt. 68 "
            ],
            "use": "home",
            "type": "physical",
            "postalCode": "35001",
            "city": "Las Palmas",
            "country": "Spain"
          }
        ],
        "telecom": [
          {
            "system": "phone",
            "value": "+34 875724898"
          }
        ],
        "extension": [
          {
            "url": "http://hl7.org/fhir/StructureDefinition/patient-nationality",
            "valueCodeableConcept": {
              "coding": [
                {
                  "code": "ES",
                  "system": "http://hl7.org/fhir/ValueSet/country"
                }
              ]
            }
          }
        ],
        "text": {
          "status": "generated",
          "div": "<div xmlns=\"http://www.w3.org/1999/xhtml\"><table class=\"hl7__ips\"><tr><td>Pelayo Casal</td><td>male</td><td>19-Apr-1940</td></tr></table></div>"
        },
        "gender": "male",
        "birthDate": "1940-04-19"
      }
    },
    {
      "fullUrl": "urn:uuid:acac498e-d3e9-4b30-b7d3-1b5ef2edc9ee",
      "resource": {
        "resourceType": "ServiceRequest",
        "id": "acac498e-d3e9-4b30-b7d3-1b5ef2edc9ee",
        "meta": {
          "profile": [
            "http://hl7.eu/fhir/laboratory/StructureDefinition/ServiceRequest-eu-lab"
          ]
        },
        "identifier": [
          {
            "system": "http://example.org",
            "value": "7bf3f94a-2c33-469f-9b7a-639123d0c214"
          }
        ],
        "specimen": [
          {
            "reference": "urn:uuid:76352289-79a8-4bbc-a61c-d49e49df5af0"
          },
          {
            "reference": "urn:uuid:d5b9a70e-0266-4a0d-8d53-0cdd5dba546d"
          },
          {
            "reference": "urn:uuid:38b4bf8a-875b-4733-9aa5-19fc65b32566"
          }
        ],
        "reasonCode": [
          {
            "coding": [
              {
                "code": "431856006",
                "system": "http://snomed.info/sct",
                "display": "Chronic kidney disease stage 2"
              }
            ]
          },
          {
            "coding": [
              {
                "code": "90781000119102",
                "system": "http://snomed.info/sct",
                "display": "Microalbuminuria due to type 2 diabetes mellitus"
              }
            ]
          },
          {
            "coding": [
              {
                "code": "127013003",
                "system": "http://snomed.info/sct",
                "display": "Disorder of kidney due to diabetes mellitus"
              }
            ]
          },
          {
            "coding": [
              {
                "code": "431855005",
                "system": "http://snomed.info/sct",
                "display": "Chronic kidney disease stage 1"
              }
            ]
          },
          {
            "coding": [
              {
                "code": "64859006",
                "system": "http://snomed.info/sct",
                "display": "Osteoporosis"
              }
            ]
          },
          {
            "coding": [
              {
                "code": "414545008",
                "system": "http://snomed.info/sct",
                "display": "Ischemic heart disease"
              }
            ]
          },
          {
            "coding": [
              {
                "code": "237602007",
                "system": "http://snomed.info/sct",
                "display": "Metabolic syndrome X"
              }
            ]
          },
          {
            "coding": [
              {
                "code": "59621000",
                "system": "http://snomed.info/sct",
                "display": "Essential hypertension"
              }
            ]
          },
          {
            "coding": [
              {
                "code": "271737000",
                "system": "http://snomed.info/sct",
                "display": "Anemia"
              }
            ]
          },
          {
            "coding": [
              {
                "code": "15777000",
                "system": "http://snomed.info/sct",
                "display": "Prediabetes"
              }
            ]
          }
        ],
        "status": "active",
        "intent": "order",
        "code": {
          "coding": [
            {
              "code": "108252007",
              "system": "http://snomed.info/sct",
              "display": "Laboratory procedure"
            }
          ]
        },
        "subject": {
          "reference": "urn:uuid:11e1cf8a-a306-4d30-b0e9-71b961167281",
          "display": "Pelayo Casal"
        },
        "requester": {
          "reference": "urn:uuid:cfecc7d4-9d30-4eed-a6af-613c985238aa"
        }
      }
    },
    {
      "fullUrl": "urn:uuid:cfecc7d4-9d30-4eed-a6af-613c985238aa",
      "resource": {
        "resourceType": "PractitionerRole",
        "id": "cfecc7d4-9d30-4eed-a6af-613c985238aa",
        "meta": {
          "profile": [
            "http://hl7.eu/fhir/base/StructureDefinition/practitionerRole-eu"
          ]
        },
        "text": {
          "status": "generated",
          "div": "<div xmlns=\"http://www.w3.org/1999/xhtml\">Provider Role Id: cfecc7d4-9d30-4eed-a6af-613c985238aa</div>"
        },
        "organization": {
          "reference": "urn:uuid:9a9453f0-21ee-4252-a42b-0ec3fad83fc0"
        }
      }
    },
    {
      "fullUrl": "urn:uuid:9a9453f0-21ee-4252-a42b-0ec3fad83fc0",
      "resource": {
        "resourceType": "Organization",
        "id": "9a9453f0-21ee-4252-a42b-0ec3fad83fc0",
        "meta": {
          "profile": [
            "http://hl7.eu/fhir/base/StructureDefinition/organization-eu"
          ]
        },
        "identifier": [
          {
            "assigner": {
              "display": "HL7 Europe"
            },
            "system": "urn:oid:2.16.840.1.113883.2.51.999",
            "value": "9352c61b-7afa-464c-85ff-e4890220cad7"
          }
        ],
        "address": [
          {
            "country": "Spain"
          }
        ],
        "text": {
          "status": "generated",
          "div": "<div xmlns=\"http://www.w3.org/1999/xhtml\">Provider Organization: Centro de Salud de Guanarteme</div>"
        },
        "name": "Centro de Salud de Guanarteme"
      }
    },
    {
      "fullUrl": "urn:uuid:76352289-79a8-4bbc-a61c-d49e49df5af0",
      "resource": {
        "resourceType": "Specimen",
        "id": "76352289-79a8-4bbc-a61c-d49e49df5af0",
        "meta": {
          "profile": [
            "http://hl7.eu/fhir/laboratory/StructureDefinition/Specimen-eu-lab"
          ]
        },
        "collection": {
          "collectedDateTime": "2019-10-31"
        },
        "text": {
          "status": "generated",
          "div": "<div xmlns=\"http://www.w3.org/1999/xhtml\"><table class=\"hl7__eu__lab__report\"><tr><th>Specimen</th><th>Collection Date</th></tr><tr><td>Acellular blood (serum or plasma) specimen</td><td><span class=\"nb\">31-Oct-2019</span></td></tr></table></div>"
        },
        "type": {
          "coding": [
            {
              "code": "122592007",
              "system": "http://snomed.info/sct",
              "display": "Acellular blood (serum or plasma) specimen"
            }
          ]
        }
      }
    },
    {
      "fullUrl": "urn:uuid:d5b9a70e-0266-4a0d-8d53-0cdd5dba546d",
      "resource": {
        "resourceType": "Specimen",
        "id": "d5b9a70e-0266-4a0d-8d53-0cdd5dba546d",
        "meta": {
          "profile": [
            "http://hl7.eu/fhir/laboratory/StructureDefinition/Specimen-eu-lab"
          ]
        },
        "collection": {
          "collectedDateTime": "2019-10-31"
        },
        "text": {
          "status": "generated",
          "div": "<div xmlns=\"http://www.w3.org/1999/xhtml\"><table class=\"hl7__eu__lab__report\"><tr><th>Specimen</th><th>Collection Date</th></tr><tr><td>Urine specimen</td><td><span class=\"nb\">31-Oct-2019</span></td></tr></table></div>"
        },
        "type": {
          "coding": [
            {
              "code": "122575003",
              "system": "http://snomed.info/sct",
              "display": "Urine specimen"
            }
          ]
        }
      }
    },
    {
      "fullUrl": "urn:uuid:38b4bf8a-875b-4733-9aa5-19fc65b32566",
      "resource": {
        "resourceType": "Specimen",
        "id": "38b4bf8a-875b-4733-9aa5-19fc65b32566",
        "meta": {
          "profile": [
            "http://hl7.eu/fhir/laboratory/StructureDefinition/Specimen-eu-lab"
          ]
        },
        "collection": {
          "collectedDateTime": "2019-10-31"
        },
        "text": {
          "status": "generated",
          "div": "<div xmlns=\"http://www.w3.org/1999/xhtml\"><table class=\"hl7__eu__lab__report\"><tr><th>Specimen</th><th>Collection Date</th></tr><tr><td>Whole blood specimen (specimen)</td><td><span class=\"nb\">31-Oct-2019</span></td></tr></table></div>"
        },
        "type": {
          "coding": [
            {
              "code": "258580003",
              "system": "http://snomed.info/sct",
              "display": "Whole blood specimen (specimen)"
            }
          ]
        }
      }
    },
    {
      "fullUrl": "urn:uuid:e382a151-4b08-4f7a-9817-11f46b3d0898",
      "resource": {
        "resourceType": "Observation",
        "id": "e382a151-4b08-4f7a-9817-11f46b3d0898",
        "meta": {
          "profile": [
            "http://hl7.eu/fhir/laboratory/StructureDefinition/Observation-resultslab-eu-lab"
          ]
        },
        "performer": [
          {
            "display": "The Central European Lab"
          }
        ],
        "category": [
          {
            "coding": [
              {
                "system": "http://terminology.hl7.org/CodeSystem/observation-category",
                "code": "laboratory"
              }
            ]
          }
        ],
        "code": {
          "coding": [
            {
              "code": "2345-7",
              "system": "http://loinc.org",
              "display": "Glucose [Mass/volume] in Serum or Plasma"
            }
          ],
          "text": "Glucose [Mass/volume] in Serum or Plasma"
        },
        "valueQuantity": {
          "system": "http://unitsofmeasure.org",
          "value": 74.8,
          "unit": "mg/dL",
          "code": "mg/dL"
        },
        "referenceRange": [
          {
            "low": {
              "value": 70,
              "code": "mg/dL",
              "system": "http://unitsofmeasure.org"
            }
          },
          {
            "high": {
              "value": 140,
              "code": "mg/dL",
              "system": "http://unitsofmeasure.org"
            }
          }
        ],
        "text": {
          "status": "generated",
          "div": "<div xmlns=\"http://www.w3.org/1999/xhtml\"><table class=\"hl7__eu__lab__report\"><tr><th>Test</th><th>31-Oct-2019</th><th>Reference&#xA0;Range</th><th>Unit</th></tr><tr><td>Glucose [Mass/volume] in Serum or Plasma</td><td>74.8</td><td>70 - 140</td><td></td><td>mg/dL</td></tr></table></div>"
        },
        "status": "final",
        "subject": {
          "reference": "urn:uuid:11e1cf8a-a306-4d30-b0e9-71b961167281",
          "display": "Pelayo Casal"
        },
        "effectiveDateTime": "2019-10-31T05:38:59Z",
        "specimen": {
          "reference": "urn:uuid:76352289-79a8-4bbc-a61c-d49e49df5af0"
        }
      }
    },
    {
      "fullUrl": "urn:uuid:8e76d125-900f-4761-9807-5ce0d0687c28",
      "resource": {
        "resourceType": "Observation",
        "id": "8e76d125-900f-4761-9807-5ce0d0687c28",
        "meta": {
          "profile": [
            "http://hl7.eu/fhir/laboratory/StructureDefinition/Observation-resultslab-eu-lab"
          ]
        },
        "performer": [
          {
            "display": "The Central European Lab"
          }
        ],
        "category": [
          {
            "coding": [
              {
                "system": "http://terminology.hl7.org/CodeSystem/observation-category",
                "code": "laboratory"
              }
            ]
          }
        ],
        "code": {
          "coding": [
            {
              "code": "3094-0",
              "system": "http://loinc.org",
              "display": "Urea nitrogen [Mass/volume] in Serum or Plasma"
            }
          ],
          "text": "Urea nitrogen [Mass/volume] in Serum or Plasma"
        },
        "valueQuantity": {
          "system": "http://unitsofmeasure.org",
          "value": 14.6,
          "unit": "mg/dL",
          "code": "mg/dL"
        },
        "referenceRange": [
          {
            "low": {
              "value": 7,
              "code": "mg/dL",
              "system": "http://unitsofmeasure.org"
            }
          },
          {
            "high": {
              "value": 25,
              "code": "mg/dL",
              "system": "http://unitsofmeasure.org"
            }
          }
        ],
        "text": {
          "status": "generated",
          "div": "<div xmlns=\"http://www.w3.org/1999/xhtml\"><table class=\"hl7__eu__lab__report\"><tr><th>Test</th><th>31-Oct-2019</th><th>Reference&#xA0;Range</th><th>Unit</th></tr><tr><td>Urea nitrogen [Mass/volume] in Serum or Plasma</td><td>14.6</td><td>7 - 25</td><td></td><td>mg/dL</td></tr></table></div>"
        },
        "status": "final",
        "subject": {
          "reference": "urn:uuid:11e1cf8a-a306-4d30-b0e9-71b961167281",
          "display": "Pelayo Casal"
        },
        "effectiveDateTime": "2019-10-31T05:38:59Z",
        "specimen": {
          "reference": "urn:uuid:76352289-79a8-4bbc-a61c-d49e49df5af0"
        }
      }
    },
    {
      "fullUrl": "urn:uuid:cc471117-3ea6-4b6a-9fa1-68f27e72d90f",
      "resource": {
        "resourceType": "Observation",
        "id": "cc471117-3ea6-4b6a-9fa1-68f27e72d90f",
        "meta": {
          "profile": [
            "http://hl7.eu/fhir/laboratory/StructureDefinition/Observation-resultslab-eu-lab"
          ]
        },
        "performer": [
          {
            "display": "The Central European Lab"
          }
        ],
        "category": [
          {
            "coding": [
              {
                "system": "http://terminology.hl7.org/CodeSystem/observation-category",
                "code": "laboratory"
              }
            ]
          }
        ],
        "code": {
          "coding": [
            {
              "code": "2160-0",
              "system": "http://loinc.org",
              "display": "Creatinine [Mass/volume] in Serum or Plasma"
            }
          ],
          "text": "Creatinine [Mass/volume] in Serum or Plasma"
        },
        "valueQuantity": {
          "system": "http://unitsofmeasure.org",
          "value": 2,
          "unit": "mg/dL",
          "code": "mg/dL"
        },
        "referenceRange": [
          {
            "low": {
              "value": 0.9,
              "code": "mg/dL",
              "system": "http://unitsofmeasure.org"
            }
          },
          {
            "high": {
              "value": 1.3,
              "code": "mg/dL",
              "system": "http://unitsofmeasure.org"
            }
          }
        ],
        "interpretation": [
          {
            "coding": [
              {
                "code": "H",
                "system": "http://terminology.hl7.org/CodeSystem/v3-ObservationInterpretation",
                "display": "High"
              }
            ]
          }
        ],
        "text": {
          "status": "generated",
          "div": "<div xmlns=\"http://www.w3.org/1999/xhtml\"><table class=\"hl7__eu__lab__report\"><tr><th>Test</th><th>31-Oct-2019</th><th>Reference&#xA0;Range</th><th>Unit</th></tr><tr><td>Creatinine [Mass/volume] in Serum or Plasma</td><td>2.0</td><td>0.9 - 1.3</td><td>H</td><td>mg/dL</td></tr></table></div>"
        },
        "status": "final",
        "subject": {
          "reference": "urn:uuid:11e1cf8a-a306-4d30-b0e9-71b961167281",
          "display": "Pelayo Casal"
        },
        "effectiveDateTime": "2019-10-31T05:38:59Z",
        "specimen": {
          "reference": "urn:uuid:76352289-79a8-4bbc-a61c-d49e49df5af0"
        }
      }
    },
    {
      "fullUrl": "urn:uuid:b550e273-5734-4e36-a79a-3d3011ad6ffe",
      "resource": {
        "resourceType": "Observation",
        "id": "b550e273-5734-4e36-a79a-3d3011ad6ffe",
        "meta": {
          "profile": [
            "http://hl7.eu/fhir/laboratory/StructureDefinition/Observation-resultslab-eu-lab"
          ]
        },
        "performer": [
          {
            "display": "The Central European Lab"
          }
        ],
        "category": [
          {
            "coding": [
              {
                "system": "http://terminology.hl7.org/CodeSystem/observation-category",
                "code": "laboratory"
              }
            ]
          }
        ],
        "code": {
          "coding": [
            {
              "code": "17861-6",
              "system": "http://loinc.org",
              "display": "Calcium [Mass/volume] in Serum or Plasma"
            }
          ],
          "text": "Calcium [Mass/volume] in Serum or Plasma"
        },
        "valueQuantity": {
          "system": "http://unitsofmeasure.org",
          "value": 9.2,
          "unit": "mg/dL",
          "code": "mg/dL"
        },
        "referenceRange": [
          {
            "low": {
              "value": 8.5,
              "code": "mg/dL",
              "system": "http://unitsofmeasure.org"
            }
          },
          {
            "high": {
              "value": 10.5,
              "code": "mg/dL",
              "system": "http://unitsofmeasure.org"
            }
          }
        ],
        "text": {
          "status": "generated",
          "div": "<div xmlns=\"http://www.w3.org/1999/xhtml\"><table class=\"hl7__eu__lab__report\"><tr><th>Test</th><th>31-Oct-2019</th><th>Reference&#xA0;Range</th><th>Unit</th></tr><tr><td>Calcium [Mass/volume] in Serum or Plasma</td><td>9.2</td><td>8.5 - 10.5</td><td></td><td>mg/dL</td></tr></table></div>"
        },
        "status": "final",
        "subject": {
          "reference": "urn:uuid:11e1cf8a-a306-4d30-b0e9-71b961167281",
          "display": "Pelayo Casal"
        },
        "effectiveDateTime": "2019-10-31T05:38:59Z",
        "specimen": {
          "reference": "urn:uuid:76352289-79a8-4bbc-a61c-d49e49df5af0"
        }
      }
    },
    {
      "fullUrl": "urn:uuid:b2c44674-abfd-44ba-98cb-68c18107ea07",
      "resource": {
        "resourceType": "Observation",
        "id": "b2c44674-abfd-44ba-98cb-68c18107ea07",
        "meta": {
          "profile": [
            "http://hl7.eu/fhir/laboratory/StructureDefinition/Observation-resultslab-eu-lab"
          ]
        },
        "performer": [
          {
            "display": "The Central European Lab"
          }
        ],
        "category": [
          {
            "coding": [
              {
                "system": "http://terminology.hl7.org/CodeSystem/observation-category",
                "code": "laboratory"
              }
            ]
          }
        ],
        "code": {
          "coding": [
            {
              "code": "2951-2",
              "system": "http://loinc.org",
              "display": "Sodium [Moles/volume] in Serum or Plasma"
            }
          ],
          "text": "Sodium [Moles/volume] in Serum or Plasma"
        },
        "valueQuantity": {
          "system": "http://unitsofmeasure.org",
          "value": 139.9,
          "unit": "mmol/L",
          "code": "mmol/L"
        },
        "referenceRange": [
          {
            "low": {
              "value": 135,
              "code": "mmol/L",
              "system": "http://unitsofmeasure.org"
            }
          },
          {
            "high": {
              "value": 145,
              "code": "mmol/L",
              "system": "http://unitsofmeasure.org"
            }
          }
        ],
        "text": {
          "status": "generated",
          "div": "<div xmlns=\"http://www.w3.org/1999/xhtml\"><table class=\"hl7__eu__lab__report\"><tr><th>Test</th><th>31-Oct-2019</th><th>Reference&#xA0;Range</th><th>Unit</th></tr><tr><td>Sodium [Moles/volume] in Serum or Plasma</td><td>139.9</td><td>135 - 145</td><td></td><td>mmol/L</td></tr></table></div>"
        },
        "status": "final",
        "subject": {
          "reference": "urn:uuid:11e1cf8a-a306-4d30-b0e9-71b961167281",
          "display": "Pelayo Casal"
        },
        "effectiveDateTime": "2019-10-31T05:38:59Z",
        "specimen": {
          "reference": "urn:uuid:76352289-79a8-4bbc-a61c-d49e49df5af0"
        }
      }
    },
    {
      "fullUrl": "urn:uuid:368e7610-1c82-4a21-91a4-a48dc9b512a8",
      "resource": {
        "resourceType": "Observation",
        "id": "368e7610-1c82-4a21-91a4-a48dc9b512a8",
        "meta": {
          "profile": [
            "http://hl7.eu/fhir/laboratory/StructureDefinition/Observation-resultslab-eu-lab"
          ]
        },
        "performer": [
          {
            "display": "The Central European Lab"
          }
        ],
        "category": [
          {
            "coding": [
              {
                "system": "http://terminology.hl7.org/CodeSystem/observation-category",
                "code": "laboratory"
              }
            ]
          }
        ],
        "code": {
          "coding": [
            {
              "code": "2823-3",
              "system": "http://loinc.org",
              "display": "Potassium [Moles/volume] in Serum or Plasma"
            }
          ],
          "text": "Potassium [Moles/volume] in Serum or Plasma"
        },
        "valueQuantity": {
          "system": "http://unitsofmeasure.org",
          "value": 4.5,
          "unit": "mmol/L",
          "code": "mmol/L"
        },
        "referenceRange": [
          {
            "low": {
              "value": 3.5,
              "code": "mmol/L",
              "system": "http://unitsofmeasure.org"
            }
          },
          {
            "high": {
              "value": 5.3,
              "code": "mmol/L",
              "system": "http://unitsofmeasure.org"
            }
          }
        ],
        "text": {
          "status": "generated",
          "div": "<div xmlns=\"http://www.w3.org/1999/xhtml\"><table class=\"hl7__eu__lab__report\"><tr><th>Test</th><th>31-Oct-2019</th><th>Reference&#xA0;Range</th><th>Unit</th></tr><tr><td>Potassium [Moles/volume] in Serum or Plasma</td><td>4.5</td><td>3.5 - 5.3</td><td></td><td>mmol/L</td></tr></table></div>"
        },
        "status": "final",
        "subject": {
          "reference": "urn:uuid:11e1cf8a-a306-4d30-b0e9-71b961167281",
          "display": "Pelayo Casal"
        },
        "effectiveDateTime": "2019-10-31T05:38:59Z",
        "specimen": {
          "reference": "urn:uuid:76352289-79a8-4bbc-a61c-d49e49df5af0"
        }
      }
    },
    {
      "fullUrl": "urn:uuid:05c9eaa3-71f5-4ed7-9953-7bd1ce5d2658",
      "resource": {
        "resourceType": "Observation",
        "id": "05c9eaa3-71f5-4ed7-9953-7bd1ce5d2658",
        "meta": {
          "profile": [
            "http://hl7.eu/fhir/laboratory/StructureDefinition/Observation-resultslab-eu-lab"
          ]
        },
        "performer": [
          {
            "display": "The Central European Lab"
          }
        ],
        "category": [
          {
            "coding": [
              {
                "system": "http://terminology.hl7.org/CodeSystem/observation-category",
                "code": "laboratory"
              }
            ]
          }
        ],
        "code": {
          "coding": [
            {
              "code": "2075-0",
              "system": "http://loinc.org",
              "display": "Chloride [Moles/volume] in Serum or Plasma"
            }
          ],
          "text": "Chloride [Moles/volume] in Serum or Plasma"
        },
        "valueQuantity": {
          "system": "http://unitsofmeasure.org",
          "value": 106.3,
          "unit": "mmol/L",
          "code": "mmol/L"
        },
        "referenceRange": [
          {
            "low": {
              "value": 98,
              "code": "mmol/L",
              "system": "http://unitsofmeasure.org"
            }
          },
          {
            "high": {
              "value": 107,
              "code": "mmol/L",
              "system": "http://unitsofmeasure.org"
            }
          }
        ],
        "text": {
          "status": "generated",
          "div": "<div xmlns=\"http://www.w3.org/1999/xhtml\"><table class=\"hl7__eu__lab__report\"><tr><th>Test</th><th>31-Oct-2019</th><th>Reference&#xA0;Range</th><th>Unit</th></tr><tr><td>Chloride [Moles/volume] in Serum or Plasma</td><td>106.3</td><td>98 - 107</td><td></td><td>mmol/L</td></tr></table></div>"
        },
        "status": "final",
        "subject": {
          "reference": "urn:uuid:11e1cf8a-a306-4d30-b0e9-71b961167281",
          "display": "Pelayo Casal"
        },
        "effectiveDateTime": "2019-10-31T05:38:59Z",
        "specimen": {
          "reference": "urn:uuid:76352289-79a8-4bbc-a61c-d49e49df5af0"
        }
      }
    },
    {
      "fullUrl": "urn:uuid:940330f7-2b07-42bd-a220-163e260e8925",
      "resource": {
        "resourceType": "Observation",
        "id": "940330f7-2b07-42bd-a220-163e260e8925",
        "meta": {
          "profile": [
            "http://hl7.eu/fhir/laboratory/StructureDefinition/Observation-resultslab-eu-lab"
          ]
        },
        "performer": [
          {
            "display": "The Central European Lab"
          }
        ],
        "category": [
          {
            "coding": [
              {
                "system": "http://terminology.hl7.org/CodeSystem/observation-category",
                "code": "laboratory"
              }
            ]
          }
        ],
        "code": {
          "coding": [
            {
              "code": "2028-9",
              "system": "http://loinc.org",
              "display": "Carbon dioxide, total [Moles/volume] in Serum or Plasma"
            }
          ],
          "text": "Carbon dioxide, total [Moles/volume] in Serum or Plasma"
        },
        "valueQuantity": {
          "system": "http://unitsofmeasure.org",
          "value": 23.9,
          "unit": "mmol/L",
          "code": "mmol/L"
        },
        "referenceRange": [
          {
            "low": {
              "value": 22,
              "code": "mmol/L",
              "system": "http://unitsofmeasure.org"
            }
          },
          {
            "high": {
              "value": 29,
              "code": "mmol/L",
              "system": "http://unitsofmeasure.org"
            }
          }
        ],
        "text": {
          "status": "generated",
          "div": "<div xmlns=\"http://www.w3.org/1999/xhtml\"><table class=\"hl7__eu__lab__report\"><tr><th>Test</th><th>31-Oct-2019</th><th>Reference&#xA0;Range</th><th>Unit</th></tr><tr><td>Carbon dioxide, total [Moles/volume] in Serum or Plasma</td><td>23.9</td><td>22 - 29</td><td></td><td>mmol/L</td></tr></table></div>"
        },
        "status": "final",
        "subject": {
          "reference": "urn:uuid:11e1cf8a-a306-4d30-b0e9-71b961167281",
          "display": "Pelayo Casal"
        },
        "effectiveDateTime": "2019-10-31T05:38:59Z",
        "specimen": {
          "reference": "urn:uuid:76352289-79a8-4bbc-a61c-d49e49df5af0"
        }
      }
    },
    {
      "fullUrl": "urn:uuid:7b30b5a7-7f48-4ff7-bd87-9df1b8604bd3",
      "resource": {
        "resourceType": "Observation",
        "id": "7b30b5a7-7f48-4ff7-bd87-9df1b8604bd3",
        "meta": {
          "profile": [
            "http://hl7.eu/fhir/laboratory/StructureDefinition/Observation-resultslab-eu-lab"
          ]
        },
        "performer": [
          {
            "display": "The Central European Lab"
          }
        ],
        "category": [
          {
            "coding": [
              {
                "system": "http://terminology.hl7.org/CodeSystem/observation-category",
                "code": "laboratory"
              }
            ]
          }
        ],
        "code": {
          "coding": [
            {
              "code": "5767-9",
              "system": "http://loinc.org",
              "display": "Appearance of Urine"
            }
          ],
          "text": "Appearance of Urine"
        },
        "text": {
          "status": "generated",
          "div": "<div xmlns=\"http://www.w3.org/1999/xhtml\"><table class=\"hl7__eu__lab__report\"><tr><th>Test</th><th>31-Oct-2019</th><th>Reference&#xA0;Range</th><th>Unit</th></tr><tr><td>Appearance of Urine</td></tr></table></div>"
        },
        "status": "final",
        "subject": {
          "reference": "urn:uuid:11e1cf8a-a306-4d30-b0e9-71b961167281",
          "display": "Pelayo Casal"
        },
        "effectiveDateTime": "2019-10-31T05:38:59Z",
        "specimen": {
          "reference": "urn:uuid:d5b9a70e-0266-4a0d-8d53-0cdd5dba546d"
        }
      }
    },
    {
      "fullUrl": "urn:uuid:f23d29ac-7fd8-4d18-a1d9-45325d16ffde",
      "resource": {
        "resourceType": "Observation",
        "id": "f23d29ac-7fd8-4d18-a1d9-45325d16ffde",
        "meta": {
          "profile": [
            "http://hl7.eu/fhir/laboratory/StructureDefinition/Observation-resultslab-eu-lab"
          ]
        },
        "performer": [
          {
            "display": "The Central European Lab"
          }
        ],
        "category": [
          {
            "coding": [
              {
                "system": "http://terminology.hl7.org/CodeSystem/observation-category",
                "code": "laboratory"
              }
            ]
          }
        ],
        "code": {
          "coding": [
            {
              "code": "34533-0",
              "system": "http://loinc.org",
              "display": "Odor of Urine"
            }
          ],
          "text": "Odor of Urine"
        },
        "text": {
          "status": "generated",
          "div": "<div xmlns=\"http://www.w3.org/1999/xhtml\"><table class=\"hl7__eu__lab__report\"><tr><th>Test</th><th>31-Oct-2019</th><th>Reference&#xA0;Range</th><th>Unit</th></tr><tr><td>Odor of Urine</td></tr></table></div>"
        },
        "status": "final",
        "subject": {
          "reference": "urn:uuid:11e1cf8a-a306-4d30-b0e9-71b961167281",
          "display": "Pelayo Casal"
        },
        "effectiveDateTime": "2019-10-31T05:38:59Z",
        "specimen": {
          "reference": "urn:uuid:d5b9a70e-0266-4a0d-8d53-0cdd5dba546d"
        }
      }
    },
    {
      "fullUrl": "urn:uuid:0471d360-b7ef-4fc2-90bf-7bbfa8159274",
      "resource": {
        "resourceType": "Observation",
        "id": "0471d360-b7ef-4fc2-90bf-7bbfa8159274",
        "meta": {
          "profile": [
            "http://hl7.eu/fhir/laboratory/StructureDefinition/Observation-resultslab-eu-lab"
          ]
        },
        "performer": [
          {
            "display": "The Central European Lab"
          }
        ],
        "category": [
          {
            "coding": [
              {
                "system": "http://terminology.hl7.org/CodeSystem/observation-category",
                "code": "laboratory"
              }
            ]
          }
        ],
        "code": {
          "coding": [
            {
              "code": "32167-9",
              "system": "http://loinc.org",
              "display": "Clarity of Urine"
            }
          ],
          "text": "Clarity of Urine"
        },
        "text": {
          "status": "generated",
          "div": "<div xmlns=\"http://www.w3.org/1999/xhtml\"><table class=\"hl7__eu__lab__report\"><tr><th>Test</th><th>31-Oct-2019</th><th>Reference&#xA0;Range</th><th>Unit</th></tr><tr><td>Clarity of Urine</td></tr></table></div>"
        },
        "status": "final",
        "subject": {
          "reference": "urn:uuid:11e1cf8a-a306-4d30-b0e9-71b961167281",
          "display": "Pelayo Casal"
        },
        "effectiveDateTime": "2019-10-31T05:38:59Z",
        "specimen": {
          "reference": "urn:uuid:d5b9a70e-0266-4a0d-8d53-0cdd5dba546d"
        }
      }
    },
    {
      "fullUrl": "urn:uuid:7524fce9-a1d9-4fac-b549-99acef6eeb12",
      "resource": {
        "resourceType": "Observation",
        "id": "7524fce9-a1d9-4fac-b549-99acef6eeb12",
        "meta": {
          "profile": [
            "http://hl7.eu/fhir/laboratory/StructureDefinition/Observation-resultslab-eu-lab"
          ]
        },
        "performer": [
          {
            "display": "The Central European Lab"
          }
        ],
        "category": [
          {
            "coding": [
              {
                "system": "http://terminology.hl7.org/CodeSystem/observation-category",
                "code": "laboratory"
              }
            ]
          }
        ],
        "code": {
          "coding": [
            {
              "code": "5778-6",
              "system": "http://loinc.org",
              "display": "Color of Urine"
            }
          ],
          "text": "Color of Urine"
        },
        "text": {
          "status": "generated",
          "div": "<div xmlns=\"http://www.w3.org/1999/xhtml\"><table class=\"hl7__eu__lab__report\"><tr><th>Test</th><th>31-Oct-2019</th><th>Reference&#xA0;Range</th><th>Unit</th></tr><tr><td>Color of Urine</td></tr></table></div>"
        },
        "status": "final",
        "subject": {
          "reference": "urn:uuid:11e1cf8a-a306-4d30-b0e9-71b961167281",
          "display": "Pelayo Casal"
        },
        "effectiveDateTime": "2019-10-31T05:38:59Z",
        "specimen": {
          "reference": "urn:uuid:d5b9a70e-0266-4a0d-8d53-0cdd5dba546d"
        }
      }
    },
    {
      "fullUrl": "urn:uuid:3e55321f-99b9-405f-80b8-24b57ea5c38b",
      "resource": {
        "resourceType": "Observation",
        "id": "3e55321f-99b9-405f-80b8-24b57ea5c38b",
        "meta": {
          "profile": [
            "http://hl7.eu/fhir/laboratory/StructureDefinition/Observation-resultslab-eu-lab"
          ]
        },
        "performer": [
          {
            "display": "The Central European Lab"
          }
        ],
        "category": [
          {
            "coding": [
              {
                "system": "http://terminology.hl7.org/CodeSystem/observation-category",
                "code": "laboratory"
              }
            ]
          }
        ],
        "code": {
          "coding": [
            {
              "code": "5792-7",
              "system": "http://loinc.org",
              "display": "Glucose [Mass/volume] in Urine by Test strip"
            }
          ],
          "text": "Glucose [Mass/volume] in Urine by Test strip"
        },
        "valueQuantity": {
          "system": "http://unitsofmeasure.org",
          "value": 0.6,
          "unit": "mg/dL",
          "code": "mg/dL"
        },
        "referenceRange": [
          {
            "low": {
              "value": 0.8,
              "code": "mg/dL",
              "system": "http://unitsofmeasure.org"
            }
          },
          {
            "high": {
              "value": 0,
              "code": "mg/dL",
              "system": "http://unitsofmeasure.org"
            }
          }
        ],
        "interpretation": [
          {
            "coding": [
              {
                "code": "L",
                "system": "http://terminology.hl7.org/CodeSystem/v3-ObservationInterpretation",
                "display": "Low"
              }
            ]
          }
        ],
        "text": {
          "status": "generated",
          "div": "<div xmlns=\"http://www.w3.org/1999/xhtml\"><table class=\"hl7__eu__lab__report\"><tr><th>Test</th><th>31-Oct-2019</th><th>Reference&#xA0;Range</th><th>Unit</th></tr><tr><td>Glucose [Mass/volume] in Urine by Test strip</td><td>0.6</td><td>0.8 - 0</td><td>L</td><td>mg/dL</td></tr></table></div>"
        },
        "status": "final",
        "subject": {
          "reference": "urn:uuid:11e1cf8a-a306-4d30-b0e9-71b961167281",
          "display": "Pelayo Casal"
        },
        "effectiveDateTime": "2019-10-31T05:38:59Z",
        "specimen": {
          "reference": "urn:uuid:d5b9a70e-0266-4a0d-8d53-0cdd5dba546d"
        }
      }
    },
    {
      "fullUrl": "urn:uuid:6cf44586-80be-4e7f-911b-0094967d8e53",
      "resource": {
        "resourceType": "Observation",
        "id": "6cf44586-80be-4e7f-911b-0094967d8e53",
        "meta": {
          "profile": [
            "http://hl7.eu/fhir/laboratory/StructureDefinition/Observation-resultslab-eu-lab"
          ]
        },
        "performer": [
          {
            "display": "The Central European Lab"
          }
        ],
        "category": [
          {
            "coding": [
              {
                "system": "http://terminology.hl7.org/CodeSystem/observation-category",
                "code": "laboratory"
              }
            ]
          }
        ],
        "code": {
          "coding": [
            {
              "code": "25428-4",
              "system": "http://loinc.org",
              "display": "Glucose [Presence] in Urine by Test strip"
            }
          ],
          "text": "Glucose [Presence] in Urine by Test strip"
        },
        "text": {
          "status": "generated",
          "div": "<div xmlns=\"http://www.w3.org/1999/xhtml\"><table class=\"hl7__eu__lab__report\"><tr><th>Test</th><th>31-Oct-2019</th><th>Reference&#xA0;Range</th><th>Unit</th></tr><tr><td>Glucose [Presence] in Urine by Test strip</td></tr></table></div>"
        },
        "status": "final",
        "subject": {
          "reference": "urn:uuid:11e1cf8a-a306-4d30-b0e9-71b961167281",
          "display": "Pelayo Casal"
        },
        "effectiveDateTime": "2019-10-31T05:38:59Z",
        "specimen": {
          "reference": "urn:uuid:d5b9a70e-0266-4a0d-8d53-0cdd5dba546d"
        }
      }
    },
    {
      "fullUrl": "urn:uuid:60644bd6-8587-49b9-9411-bd6e4ea1d07b",
      "resource": {
        "resourceType": "Observation",
        "id": "60644bd6-8587-49b9-9411-bd6e4ea1d07b",
        "meta": {
          "profile": [
            "http://hl7.eu/fhir/laboratory/StructureDefinition/Observation-resultslab-eu-lab"
          ]
        },
        "performer": [
          {
            "display": "The Central European Lab"
          }
        ],
        "category": [
          {
            "coding": [
              {
                "system": "http://terminology.hl7.org/CodeSystem/observation-category",
                "code": "laboratory"
              }
            ]
          }
        ],
        "code": {
          "coding": [
            {
              "code": "20505-4",
              "system": "http://loinc.org",
              "display": "Bilirubin.total [Mass/volume] in Urine by Test strip"
            }
          ],
          "text": "Bilirubin.total [Mass/volume] in Urine by Test strip"
        },
        "valueQuantity": {
          "system": "http://unitsofmeasure.org",
          "value": 1.2,
          "unit": "mg/dL",
          "code": "mg/dL"
        },
        "referenceRange": [
          {
            "low": {
              "value": 0.2,
              "code": "mg/dL",
              "system": "http://unitsofmeasure.org"
            }
          },
          {
            "high": {
              "value": 1.5,
              "code": "mg/dL",
              "system": "http://unitsofmeasure.org"
            }
          }
        ],
        "text": {
          "status": "generated",
          "div": "<div xmlns=\"http://www.w3.org/1999/xhtml\"><table class=\"hl7__eu__lab__report\"><tr><th>Test</th><th>31-Oct-2019</th><th>Reference&#xA0;Range</th><th>Unit</th></tr><tr><td>Bilirubin.total [Mass/volume] in Urine by Test strip</td><td>1.2</td><td>0.2 - 1.5</td><td></td><td>mg/dL</td></tr></table></div>"
        },
        "status": "final",
        "subject": {
          "reference": "urn:uuid:11e1cf8a-a306-4d30-b0e9-71b961167281",
          "display": "Pelayo Casal"
        },
        "effectiveDateTime": "2019-10-31T05:38:59Z",
        "specimen": {
          "reference": "urn:uuid:d5b9a70e-0266-4a0d-8d53-0cdd5dba546d"
        }
      }
    },
    {
      "fullUrl": "urn:uuid:bdfe0b50-f5e4-46e9-a78b-aff8fd3be054",
      "resource": {
        "resourceType": "Observation",
        "id": "bdfe0b50-f5e4-46e9-a78b-aff8fd3be054",
        "meta": {
          "profile": [
            "http://hl7.eu/fhir/laboratory/StructureDefinition/Observation-resultslab-eu-lab"
          ]
        },
        "performer": [
          {
            "display": "The Central European Lab"
          }
        ],
        "category": [
          {
            "coding": [
              {
                "system": "http://terminology.hl7.org/CodeSystem/observation-category",
                "code": "laboratory"
              }
            ]
          }
        ],
        "code": {
          "coding": [
            {
              "code": "5770-3",
              "system": "http://loinc.org",
              "display": "Bilirubin.total [Presence] in Urine by Test strip"
            }
          ],
          "text": "Bilirubin.total [Presence] in Urine by Test strip"
        },
        "text": {
          "status": "generated",
          "div": "<div xmlns=\"http://www.w3.org/1999/xhtml\"><table class=\"hl7__eu__lab__report\"><tr><th>Test</th><th>31-Oct-2019</th><th>Reference&#xA0;Range</th><th>Unit</th></tr><tr><td>Bilirubin.total [Presence] in Urine by Test strip</td></tr></table></div>"
        },
        "status": "final",
        "subject": {
          "reference": "urn:uuid:11e1cf8a-a306-4d30-b0e9-71b961167281",
          "display": "Pelayo Casal"
        },
        "effectiveDateTime": "2019-10-31T05:38:59Z",
        "specimen": {
          "reference": "urn:uuid:d5b9a70e-0266-4a0d-8d53-0cdd5dba546d"
        }
      }
    },
    {
      "fullUrl": "urn:uuid:4e916c8a-2b5f-4fa1-b426-846688f2c15a",
      "resource": {
        "resourceType": "Observation",
        "id": "4e916c8a-2b5f-4fa1-b426-846688f2c15a",
        "meta": {
          "profile": [
            "http://hl7.eu/fhir/laboratory/StructureDefinition/Observation-resultslab-eu-lab"
          ]
        },
        "performer": [
          {
            "display": "The Central European Lab"
          }
        ],
        "category": [
          {
            "coding": [
              {
                "system": "http://terminology.hl7.org/CodeSystem/observation-category",
                "code": "laboratory"
              }
            ]
          }
        ],
        "code": {
          "coding": [
            {
              "code": "5797-6",
              "system": "http://loinc.org",
              "display": "Ketones [Mass/volume] in Urine by Test strip"
            }
          ],
          "text": "Ketones [Mass/volume] in Urine by Test strip"
        },
        "valueQuantity": {
          "system": "http://unitsofmeasure.org",
          "value": 13.7,
          "unit": "mg/dL",
          "code": "mg/dL"
        },
        "referenceRange": [
          {
            "low": {
              "value": 0,
              "code": "mg/dL",
              "system": "http://unitsofmeasure.org"
            }
          },
          {
            "high": {
              "value": 4,
              "code": "mg/dL",
              "system": "http://unitsofmeasure.org"
            }
          }
        ],
        "interpretation": [
          {
            "coding": [
              {
                "code": "H",
                "system": "http://terminology.hl7.org/CodeSystem/v3-ObservationInterpretation",
                "display": "High"
              }
            ]
          }
        ],
        "text": {
          "status": "generated",
          "div": "<div xmlns=\"http://www.w3.org/1999/xhtml\"><table class=\"hl7__eu__lab__report\"><tr><th>Test</th><th>31-Oct-2019</th><th>Reference&#xA0;Range</th><th>Unit</th></tr><tr><td>Ketones [Mass/volume] in Urine by Test strip</td><td>13.7</td><td>0 - 4</td><td>H</td><td>mg/dL</td></tr></table></div>"
        },
        "status": "final",
        "subject": {
          "reference": "urn:uuid:11e1cf8a-a306-4d30-b0e9-71b961167281",
          "display": "Pelayo Casal"
        },
        "effectiveDateTime": "2019-10-31T05:38:59Z",
        "specimen": {
          "reference": "urn:uuid:d5b9a70e-0266-4a0d-8d53-0cdd5dba546d"
        }
      }
    },
    {
      "fullUrl": "urn:uuid:c2a2b7ed-4cd0-4b0a-80f2-3a686a5c6c41",
      "resource": {
        "resourceType": "Observation",
        "id": "c2a2b7ed-4cd0-4b0a-80f2-3a686a5c6c41",
        "meta": {
          "profile": [
            "http://hl7.eu/fhir/laboratory/StructureDefinition/Observation-resultslab-eu-lab"
          ]
        },
        "performer": [
          {
            "display": "The Central European Lab"
          }
        ],
        "category": [
          {
            "coding": [
              {
                "system": "http://terminology.hl7.org/CodeSystem/observation-category",
                "code": "laboratory"
              }
            ]
          }
        ],
        "code": {
          "coding": [
            {
              "code": "2514-8",
              "system": "http://loinc.org",
              "display": "Ketones [Presence] in Urine by Test strip"
            }
          ],
          "text": "Ketones [Presence] in Urine by Test strip"
        },
        "text": {
          "status": "generated",
          "div": "<div xmlns=\"http://www.w3.org/1999/xhtml\"><table class=\"hl7__eu__lab__report\"><tr><th>Test</th><th>31-Oct-2019</th><th>Reference&#xA0;Range</th><th>Unit</th></tr><tr><td>Ketones [Presence] in Urine by Test strip</td></tr></table></div>"
        },
        "status": "final",
        "subject": {
          "reference": "urn:uuid:11e1cf8a-a306-4d30-b0e9-71b961167281",
          "display": "Pelayo Casal"
        },
        "effectiveDateTime": "2019-10-31T05:38:59Z",
        "specimen": {
          "reference": "urn:uuid:d5b9a70e-0266-4a0d-8d53-0cdd5dba546d"
        }
      }
    },
    {
      "fullUrl": "urn:uuid:726c9a00-d6ea-4d54-a168-ee220d65fcde",
      "resource": {
        "resourceType": "Observation",
        "id": "726c9a00-d6ea-4d54-a168-ee220d65fcde",
        "meta": {
          "profile": [
            "http://hl7.eu/fhir/laboratory/StructureDefinition/Observation-resultslab-eu-lab"
          ]
        },
        "performer": [
          {
            "display": "The Central European Lab"
          }
        ],
        "category": [
          {
            "coding": [
              {
                "system": "http://terminology.hl7.org/CodeSystem/observation-category",
                "code": "laboratory"
              }
            ]
          }
        ],
        "code": {
          "coding": [
            {
              "code": "5811-5",
              "system": "http://loinc.org",
              "display": "Specific gravity of Urine by Test strip"
            }
          ],
          "text": "Specific gravity of Urine by Test strip"
        },
        "valueQuantity": {
          "system": "http://unitsofmeasure.org",
          "value": 1,
          "unit": "{nominal}",
          "code": "{nominal}"
        },
        "referenceRange": [
          {
            "low": {
              "value": 1.01,
              "code": "g/mL",
              "system": "http://unitsofmeasure.org"
            }
          },
          {
            "high": {
              "value": 1.03,
              "code": "g/mL",
              "system": "http://unitsofmeasure.org"
            }
          }
        ],
        "interpretation": [
          {
            "coding": [
              {
                "code": "L",
                "system": "http://terminology.hl7.org/CodeSystem/v3-ObservationInterpretation",
                "display": "Low"
              }
            ]
          }
        ],
        "text": {
          "status": "generated",
          "div": "<div xmlns=\"http://www.w3.org/1999/xhtml\"><table class=\"hl7__eu__lab__report\"><tr><th>Test</th><th>31-Oct-2019</th><th>Reference&#xA0;Range</th><th>Unit</th></tr><tr><td>Specific gravity of Urine by Test strip</td><td>1.0</td><td>1.01 - 1.03</td><td>L</td><td>{nominal}</td></tr></table></div>"
        },
        "status": "final",
        "subject": {
          "reference": "urn:uuid:11e1cf8a-a306-4d30-b0e9-71b961167281",
          "display": "Pelayo Casal"
        },
        "effectiveDateTime": "2019-10-31T05:38:59Z",
        "specimen": {
          "reference": "urn:uuid:d5b9a70e-0266-4a0d-8d53-0cdd5dba546d"
        }
      }
    },
    {
      "fullUrl": "urn:uuid:08c10489-c48b-42c6-8fea-8818bad7cdd3",
      "resource": {
        "resourceType": "Observation",
        "id": "08c10489-c48b-42c6-8fea-8818bad7cdd3",
        "meta": {
          "profile": [
            "http://hl7.eu/fhir/laboratory/StructureDefinition/Observation-resultslab-eu-lab"
          ]
        },
        "performer": [
          {
            "display": "The Central European Lab"
          }
        ],
        "category": [
          {
            "coding": [
              {
                "system": "http://terminology.hl7.org/CodeSystem/observation-category",
                "code": "laboratory"
              }
            ]
          }
        ],
        "code": {
          "coding": [
            {
              "code": "5803-2",
              "system": "http://loinc.org",
              "display": "pH of Urine by Test strip"
            }
          ],
          "text": "pH of Urine by Test strip"
        },
        "valueQuantity": {
          "system": "http://unitsofmeasure.org",
          "value": 6,
          "unit": "pH",
          "code": "pH"
        },
        "referenceRange": [
          {
            "low": {
              "value": 4.5,
              "code": "pH",
              "system": "http://unitsofmeasure.org"
            }
          },
          {
            "high": {
              "value": 7.5,
              "code": "pH",
              "system": "http://unitsofmeasure.org"
            }
          }
        ],
        "text": {
          "status": "generated",
          "div": "<div xmlns=\"http://www.w3.org/1999/xhtml\"><table class=\"hl7__eu__lab__report\"><tr><th>Test</th><th>31-Oct-2019</th><th>Reference&#xA0;Range</th><th>Unit</th></tr><tr><td>pH of Urine by Test strip</td><td>6.0</td><td>4.5 - 7.5</td><td></td><td>pH</td></tr></table></div>"
        },
        "status": "final",
        "subject": {
          "reference": "urn:uuid:11e1cf8a-a306-4d30-b0e9-71b961167281",
          "display": "Pelayo Casal"
        },
        "effectiveDateTime": "2019-10-31T05:38:59Z",
        "specimen": {
          "reference": "urn:uuid:d5b9a70e-0266-4a0d-8d53-0cdd5dba546d"
        }
      }
    },
    {
      "fullUrl": "urn:uuid:e5c68581-2b47-47e9-866f-2bfabe9a1d17",
      "resource": {
        "resourceType": "Observation",
        "id": "e5c68581-2b47-47e9-866f-2bfabe9a1d17",
        "meta": {
          "profile": [
            "http://hl7.eu/fhir/laboratory/StructureDefinition/Observation-resultslab-eu-lab"
          ]
        },
        "performer": [
          {
            "display": "The Central European Lab"
          }
        ],
        "category": [
          {
            "coding": [
              {
                "system": "http://terminology.hl7.org/CodeSystem/observation-category",
                "code": "laboratory"
              }
            ]
          }
        ],
        "code": {
          "coding": [
            {
              "code": "5804-0",
              "system": "http://loinc.org",
              "display": "Protein [Mass/volume] in Urine by Test strip"
            }
          ],
          "text": "Protein [Mass/volume] in Urine by Test strip"
        },
        "valueQuantity": {
          "system": "http://unitsofmeasure.org",
          "value": 341.8,
          "unit": "mg/dL",
          "code": "mg/dL"
        },
        "referenceRange": [
          {
            "low": {
              "value": 0,
              "code": "mg/dL",
              "system": "http://unitsofmeasure.org"
            }
          },
          {
            "high": {
              "value": 150,
              "code": "mg/dL",
              "system": "http://unitsofmeasure.org"
            }
          }
        ],
        "interpretation": [
          {
            "coding": [
              {
                "code": "H",
                "system": "http://terminology.hl7.org/CodeSystem/v3-ObservationInterpretation",
                "display": "High"
              }
            ]
          }
        ],
        "text": {
          "status": "generated",
          "div": "<div xmlns=\"http://www.w3.org/1999/xhtml\"><table class=\"hl7__eu__lab__report\"><tr><th>Test</th><th>31-Oct-2019</th><th>Reference&#xA0;Range</th><th>Unit</th></tr><tr><td>Protein [Mass/volume] in Urine by Test strip</td><td>341.8</td><td>0 - 150</td><td>H</td><td>mg/dL</td></tr></table></div>"
        },
        "status": "final",
        "subject": {
          "reference": "urn:uuid:11e1cf8a-a306-4d30-b0e9-71b961167281",
          "display": "Pelayo Casal"
        },
        "effectiveDateTime": "2019-10-31T05:38:59Z",
        "specimen": {
          "reference": "urn:uuid:d5b9a70e-0266-4a0d-8d53-0cdd5dba546d"
        }
      }
    },
    {
      "fullUrl": "urn:uuid:bfcdf71b-705c-4c27-a128-182073127524",
      "resource": {
        "resourceType": "Observation",
        "id": "bfcdf71b-705c-4c27-a128-182073127524",
        "meta": {
          "profile": [
            "http://hl7.eu/fhir/laboratory/StructureDefinition/Observation-resultslab-eu-lab"
          ]
        },
        "performer": [
          {
            "display": "The Central European Lab"
          }
        ],
        "category": [
          {
            "coding": [
              {
                "system": "http://terminology.hl7.org/CodeSystem/observation-category",
                "code": "laboratory"
              }
            ]
          }
        ],
        "code": {
          "coding": [
            {
              "code": "20454-5",
              "system": "http://loinc.org",
              "display": "Protein [Presence] in Urine by Test strip"
            }
          ],
          "text": "Protein [Presence] in Urine by Test strip"
        },
        "text": {
          "status": "generated",
          "div": "<div xmlns=\"http://www.w3.org/1999/xhtml\"><table class=\"hl7__eu__lab__report\"><tr><th>Test</th><th>31-Oct-2019</th><th>Reference&#xA0;Range</th><th>Unit</th></tr><tr><td>Protein [Presence] in Urine by Test strip</td></tr></table></div>"
        },
        "status": "final",
        "subject": {
          "reference": "urn:uuid:11e1cf8a-a306-4d30-b0e9-71b961167281",
          "display": "Pelayo Casal"
        },
        "effectiveDateTime": "2019-10-31T05:38:59Z",
        "specimen": {
          "reference": "urn:uuid:d5b9a70e-0266-4a0d-8d53-0cdd5dba546d"
        }
      }
    },
    {
      "fullUrl": "urn:uuid:1d02fe90-f1d1-4d5a-b75d-7c867993ad5a",
      "resource": {
        "resourceType": "Observation",
        "id": "1d02fe90-f1d1-4d5a-b75d-7c867993ad5a",
        "meta": {
          "profile": [
            "http://hl7.eu/fhir/laboratory/StructureDefinition/Observation-resultslab-eu-lab"
          ]
        },
        "performer": [
          {
            "display": "The Central European Lab"
          }
        ],
        "category": [
          {
            "coding": [
              {
                "system": "http://terminology.hl7.org/CodeSystem/observation-category",
                "code": "laboratory"
              }
            ]
          }
        ],
        "code": {
          "coding": [
            {
              "code": "5802-4",
              "system": "http://loinc.org",
              "display": "Nitrite [Presence] in Urine by Test strip"
            }
          ],
          "text": "Nitrite [Presence] in Urine by Test strip"
        },
        "text": {
          "status": "generated",
          "div": "<div xmlns=\"http://www.w3.org/1999/xhtml\"><table class=\"hl7__eu__lab__report\"><tr><th>Test</th><th>31-Oct-2019</th><th>Reference&#xA0;Range</th><th>Unit</th></tr><tr><td>Nitrite [Presence] in Urine by Test strip</td></tr></table></div>"
        },
        "status": "final",
        "subject": {
          "reference": "urn:uuid:11e1cf8a-a306-4d30-b0e9-71b961167281",
          "display": "Pelayo Casal"
        },
        "effectiveDateTime": "2019-10-31T05:38:59Z",
        "specimen": {
          "reference": "urn:uuid:d5b9a70e-0266-4a0d-8d53-0cdd5dba546d"
        }
      }
    },
    {
      "fullUrl": "urn:uuid:977b0428-24aa-4205-b6df-33753bfde047",
      "resource": {
        "resourceType": "Observation",
        "id": "977b0428-24aa-4205-b6df-33753bfde047",
        "meta": {
          "profile": [
            "http://hl7.eu/fhir/laboratory/StructureDefinition/Observation-resultslab-eu-lab"
          ]
        },
        "performer": [
          {
            "display": "The Central European Lab"
          }
        ],
        "category": [
          {
            "coding": [
              {
                "system": "http://terminology.hl7.org/CodeSystem/observation-category",
                "code": "laboratory"
              }
            ]
          }
        ],
        "code": {
          "coding": [
            {
              "code": "5794-3",
              "system": "http://loinc.org",
              "display": "Hemoglobin [Presence] in Urine by Test strip"
            }
          ],
          "text": "Hemoglobin [Presence] in Urine by Test strip"
        },
        "text": {
          "status": "generated",
          "div": "<div xmlns=\"http://www.w3.org/1999/xhtml\"><table class=\"hl7__eu__lab__report\"><tr><th>Test</th><th>31-Oct-2019</th><th>Reference&#xA0;Range</th><th>Unit</th></tr><tr><td>Hemoglobin [Presence] in Urine by Test strip</td></tr></table></div>"
        },
        "status": "final",
        "subject": {
          "reference": "urn:uuid:11e1cf8a-a306-4d30-b0e9-71b961167281",
          "display": "Pelayo Casal"
        },
        "effectiveDateTime": "2019-10-31T05:38:59Z",
        "specimen": {
          "reference": "urn:uuid:d5b9a70e-0266-4a0d-8d53-0cdd5dba546d"
        }
      }
    },
    {
      "fullUrl": "urn:uuid:09fd72c5-cb49-48ca-abf5-90d472f3cd67",
      "resource": {
        "resourceType": "Observation",
        "id": "09fd72c5-cb49-48ca-abf5-90d472f3cd67",
        "meta": {
          "profile": [
            "http://hl7.eu/fhir/laboratory/StructureDefinition/Observation-resultslab-eu-lab"
          ]
        },
        "performer": [
          {
            "display": "The Central European Lab"
          }
        ],
        "category": [
          {
            "coding": [
              {
                "system": "http://terminology.hl7.org/CodeSystem/observation-category",
                "code": "laboratory"
              }
            ]
          }
        ],
        "code": {
          "coding": [
            {
              "code": "5799-2",
              "system": "http://loinc.org",
              "display": "Leukocyte esterase [Presence] in Urine by Test strip"
            }
          ],
          "text": "Leukocyte esterase [Presence] in Urine by Test strip"
        },
        "text": {
          "status": "generated",
          "div": "<div xmlns=\"http://www.w3.org/1999/xhtml\"><table class=\"hl7__eu__lab__report\"><tr><th>Test</th><th>31-Oct-2019</th><th>Reference&#xA0;Range</th><th>Unit</th></tr><tr><td>Leukocyte esterase [Presence] in Urine by Test strip</td></tr></table></div>"
        },
        "status": "final",
        "subject": {
          "reference": "urn:uuid:11e1cf8a-a306-4d30-b0e9-71b961167281",
          "display": "Pelayo Casal"
        },
        "effectiveDateTime": "2019-10-31T05:38:59Z",
        "specimen": {
          "reference": "urn:uuid:d5b9a70e-0266-4a0d-8d53-0cdd5dba546d"
        }
      }
    },
    {
      "fullUrl": "urn:uuid:de932a91-32f9-4096-aa27-8ef90fb40482",
      "resource": {
        "resourceType": "Observation",
        "id": "de932a91-32f9-4096-aa27-8ef90fb40482",
        "meta": {
          "profile": [
            "http://hl7.eu/fhir/laboratory/StructureDefinition/Observation-resultslab-eu-lab"
          ]
        },
        "performer": [
          {
            "display": "The Central European Lab"
          }
        ],
        "category": [
          {
            "coding": [
              {
                "system": "http://terminology.hl7.org/CodeSystem/observation-category",
                "code": "laboratory"
              }
            ]
          }
        ],
        "code": {
          "coding": [
            {
              "code": "4548-4",
              "system": "http://loinc.org",
              "display": "Hemoglobin A1c/Hemoglobin.total in Blood"
            }
          ],
          "text": "Hemoglobin A1c/Hemoglobin.total in Blood"
        },
        "valueQuantity": {
          "system": "http://unitsofmeasure.org",
          "value": 2.9,
          "unit": "%",
          "code": "%"
        },
        "referenceRange": [
          {
            "low": {
              "value": 4.5,
              "code": "%",
              "system": "http://unitsofmeasure.org"
            }
          },
          {
            "high": {
              "value": 6.4,
              "code": "%",
              "system": "http://unitsofmeasure.org"
            }
          }
        ],
        "interpretation": [
          {
            "coding": [
              {
                "code": "L",
                "system": "http://terminology.hl7.org/CodeSystem/v3-ObservationInterpretation",
                "display": "Low"
              }
            ]
          }
        ],
        "text": {
          "status": "generated",
          "div": "<div xmlns=\"http://www.w3.org/1999/xhtml\"><table class=\"hl7__eu__lab__report\"><tr><th>Test</th><th>31-Oct-2019</th><th>Reference&#xA0;Range</th><th>Unit</th></tr><tr><td>Hemoglobin A1c/Hemoglobin.total in Blood</td><td>2.9</td><td>4.5 - 6.4</td><td>L</td><td>%</td></tr></table></div>"
        },
        "status": "final",
        "subject": {
          "reference": "urn:uuid:11e1cf8a-a306-4d30-b0e9-71b961167281",
          "display": "Pelayo Casal"
        },
        "effectiveDateTime": "2019-10-31T05:38:59Z",
        "specimen": {
          "reference": "urn:uuid:38b4bf8a-875b-4733-9aa5-19fc65b32566"
        }
      }
    },
    {
      "fullUrl": "urn:uuid:a066a1ff-8646-4486-9f11-c5c9661dce97",
      "resource": {
        "resourceType": "Device",
        "id": "a066a1ff-8646-4486-9f11-c5c9661dce97",
        "deviceName": [
          {
            "name": "SYNDERAI Synthetic Generator",
            "type": "manufacturer-name"
          }
        ],
        "version": [
          {
            "value": "5.0"
          }
        ],
        "text": {
          "status": "generated",
          "div": "<div xmlns=\"http://www.w3.org/1999/xhtml\">SYNDERAI Synthetic Generator v5.0</div>"
        },
        "status": "active\"",
        "distinctIdentifier": "synderai-generator-50",
        "manufacturer": "SYNDERAI Project"
      }
    },
    {
      "fullUrl": "urn:uuid:2abe8085-fbb7-4b5b-8893-6d9b5d855906",
      "resource": {
        "resourceType": "Provenance",
        "id": "2abe8085-fbb7-4b5b-8893-6d9b5d855906",
        "target": [
          {
            "reference": "Patient/11e1cf8a-a306-4d30-b0e9-71b961167281"
          },
          {
            "reference": "Bundle/d1c69def-8946-447d-b540-8249c66e4a69"
          },
          {
            "reference": "Composition/933f8493-8d17-47d7-8b19-46dd03083bee"
          },
          {
            "reference": "PractitionerRole/8d762cc6-4608-4a57-9f0e-cd4691cab88e"
          },
          {
            "reference": "Practitioner/1e7a1e3e-71a2-4058-be30-560ceb086bb4"
          },
          {
            "reference": "PractitionerRole/cfecc7d4-9d30-4eed-a6af-613c985238aa"
          },
          {
            "reference": "Organization/9a9453f0-21ee-4252-a42b-0ec3fad83fc0"
          }
        ],
        "activity": {
          "text": "Synthetic Example Data Generation"
        },
        "policy": [
          "https://synderai.net/synderai-synthetic-data-policy"
        ],
        "agent": [
          {
            "type": {
              "text": "author"
            },
            "who": {
              "reference": "Device/a066a1ff-8646-4486-9f11-c5c9661dce97"
            }
          }
        ],
        "reason": [
          {
            "text": "Interoperability Testing and Training (non-clinical use)"
          }
        ],
        "text": {
          "status": "generated",
          "div": "<div xmlns=\"http://www.w3.org/1999/xhtml\">Provenance for SYNDERAI Synthetic Example Data Resource</div>"
        },
        "recorded": "2019-10-31T06:38:59Z"
      }
    },
    {
      "fullUrl": "urn:uuid:8d762cc6-4608-4a57-9f0e-cd4691cab88e",
      "resource": {
        "resourceType": "PractitionerRole",
        "id": "8d762cc6-4608-4a57-9f0e-cd4691cab88e",
        "meta": {
          "profile": [
            "http://hl7.eu/fhir/base/StructureDefinition/practitionerRole-eu"
          ]
        },
        "text": {
          "status": "generated",
          "div": "<div xmlns=\"http://www.w3.org/1999/xhtml\">Laboratory Role Id: 8d762cc6-4608-4a57-9f0e-cd4691cab88e</div>"
        },
        "practitioner": {
          "reference": "urn:uuid:1e7a1e3e-71a2-4058-be30-560ceb086bb4"
        }
      }
    },
    {
      "fullUrl": "urn:uuid:1e7a1e3e-71a2-4058-be30-560ceb086bb4",
      "resource": {
        "resourceType": "Practitioner",
        "id": "1e7a1e3e-71a2-4058-be30-560ceb086bb4",
        "meta": {
          "profile": [
            "http://hl7.eu/fhir/base/StructureDefinition/practitioner-eu"
          ]
        },
        "identifier": [
          {
            "assigner": {
              "display": "HL7 Europe"
            },
            "system": "urn:oid:2.16.840.1.113883.2.51.999",
            "value": "5246ca36-6c1a-4edf-9ca8-2d0c02612ef7"
          }
        ],
        "name": [
          {
            "prefix": [
              "dr"
            ],
            "given": [
              "Ex"
            ],
            "family": "Ample"
          }
        ],
        "address": [
          {
            "line": [
              "Laboratoire Central Européenne",
              "Boulevard du Jardin Botanique 32"
            ],
            "postalCode": "1000",
            "city": "Brussels",
            "country": "Belgium"
          }
        ],
        "text": {
          "status": "generated",
          "div": "<div xmlns=\"http://www.w3.org/1999/xhtml\">Laboratory: Laboratoire Central Européenne, 1000 Brussels, Belgium</div>"
        }
      }
    }
  ],
  "type": "document",
  "timestamp": "2019-10-31T06:38:59Z"
}
