{
  "resourceType": "Bundle",
  "id": "b55ab0d3-6060-4807-9da3-dc37e6f12f8b",
  "meta": {
    "profile": [
      "http://hl7.eu/fhir/laboratory/StructureDefinition/Bundle-eu-lab"
    ]
  },
  "identifier": {
    "assigner": {
      "display": "HL7 Europe"
    },
    "system": "urn:oid:2.16.840.1.113883.2.51.999",
    "value": "23c1727a-22fe-4285-b51e-291ef1f0eb57"
  },
  "entry": [
    {
      "fullUrl": "urn:uuid:4d7bb760-9794-465b-b443-08bf403dffbb",
      "resource": {
        "resourceType": "Composition",
        "id": "4d7bb760-9794-465b-b443-08bf403dffbb",
        "meta": {
          "profile": [
            "http://hl7.eu/fhir/laboratory/StructureDefinition/Composition-eu-lab"
          ]
        },
        "identifier": {
          "assigner": {
            "display": "HL7 Europe"
          },
          "system": "urn:oid:2.16.840.1.113883.2.51.999",
          "value": "2a0c93d5-e976-4e43-b33f-ed20cae6dce9"
        },
        "author": [
          {
            "reference": "urn:uuid:f18c7704-dfcb-4b45-b5c4-7fd8eca0fbb5"
          }
        ],
        "category": [
          {
            "coding": [
              {
                "code": "26436-6",
                "system": "http://loinc.org",
                "display": "Laboratory studies (set)"
              }
            ]
          }
        ],
        "type": {
          "coding": [
            {
              "code": "11502-2",
              "system": "http://loinc.org",
              "display": "Laboratory report"
            }
          ],
          "text": "Laboratory Report"
        },
        "section": [
          {
            "code": {
              "coding": [
                {
                  "code": "26436-6",
                  "system": "http://loinc.org",
                  "display": "Laboratory studies (set)"
                }
              ],
              "text": "Laboratory studies"
            },
            "section": [
              {
                "code": {
                  "coding": [
                    {
                      "code": "$18719-5",
                      "system": "http://loinc.org",
                      "display": "Chemistry studies (set)"
                    }
                  ],
                  "text": "Chemistry"
                },
                "entry": [
                  {
                    "reference": "urn:uuid:d165d5d2-48e2-4cab-9615-0058d400a08c"
                  },
                  {
                    "reference": "urn:uuid:0a8480cf-e328-4984-827e-e3633bdf1439"
                  },
                  {
                    "reference": "urn:uuid:615fbf3f-05c4-487b-b357-296216cab90f"
                  },
                  {
                    "reference": "urn:uuid:a91f8eda-57b5-4920-9d78-6d03bab2e3b3"
                  },
                  {
                    "reference": "urn:uuid:4a832906-68ac-4d07-ad7d-da70bd61a494"
                  },
                  {
                    "reference": "urn:uuid:e684f9a3-8253-4dbe-ad66-73318ba01646"
                  },
                  {
                    "reference": "urn:uuid:8c32dee0-290c-4abd-a435-4fe236054b46"
                  },
                  {
                    "reference": "urn:uuid:936b64e0-16f5-471f-afd3-130160488b00"
                  },
                  {
                    "reference": "urn:uuid:51adc4dc-b945-42ed-9cf3-2e1ca7c9d09d"
                  },
                  {
                    "reference": "urn:uuid:70baf6dc-6697-4c71-828c-9152b1918ea0"
                  },
                  {
                    "reference": "urn:uuid:39e4b069-10e8-43b8-8af5-a3243ab68fd1"
                  },
                  {
                    "reference": "urn:uuid:96cd5779-3187-4429-838a-3c539ae2b824"
                  },
                  {
                    "reference": "urn:uuid:ba6cb8ec-1897-44ef-853d-7be7b98f4849"
                  }
                ],
                "text": {
                  "status": "generated",
                  "div": "<div xmlns=\"http://www.w3.org/1999/xhtml\"><h3>Chemistry</h3><table class=\"hl7__eu__lab__report\"><thead><tr><th>Test</th><th>06-MAR-2023</th><th>Reference&#xA0;Range</th><th>Unit</th></tr></thead><tbody><tr><td>Hemoglobin A1c/Hemoglobin.total in Blood</td><td><strong>6.1 H</strong></td><td>4.8 - 5.7</td><td>%</td></tr><tr><td>Glucose [Mass/volume] in Blood</td><td>95.7</td><td>70 - 99</td><td>mg/dL</td></tr><tr><td>Urea nitrogen [Mass/volume] in Blood</td><td>12.6</td><td>7 - 20</td><td>mg/dL</td></tr><tr><td>Creatinine [Mass/volume] in Blood</td><td>1.0</td><td>0.6 - 1.1</td><td>mg/dL</td></tr><tr><td>Calcium [Mass/volume] in Blood</td><td>9.5</td><td>8.5 - 10.5</td><td>mg/dL</td></tr><tr><td>Sodium [Moles/volume] in Blood</td><td>136.4</td><td>135 - 145</td><td>mmol/L</td></tr><tr><td>Potassium [Moles/volume] in Blood</td><td>4.6</td><td>3.5 - 5.3</td><td>mmol/L</td></tr><tr><td>Chloride [Moles/volume] in Blood</td><td>108.0</td><td>98 - 114</td><td>mmol/L</td></tr><tr><td>Carbon dioxide, total [Moles/volume] in Blood</td><td>28.8</td><td>22 - 29</td><td>mmol/L</td></tr><tr><td>Cholesterol [Mass/volume] in Serum or Plasma</td><td>149.5</td><td>125 - 200</td><td>mg/dL</td></tr><tr><td>Triglyceride [Mass/volume] in Serum or Plasma</td><td>103.7</td><td>35 - 150</td><td>mg/dL</td></tr><tr><td>Cholesterol in LDL [Mass/volume] in Serum or Plasma by Direct assay</td><td>68.9</td><td>0 - 130</td><td>mg/dL</td></tr><tr><td>Cholesterol in HDL [Mass/volume] in Serum or Plasma</td><td>59.9</td><td>40 - 60</td><td>mg/dL</td></tr></tbody></table></div>"
                },
                "title": "Chemistry"
              }
            ],
            "title": "Laboratory Report"
          },
          {
            "text": {
              "status": "generated",
              "div": "<div xmlns=\"http://www.w3.org/1999/xhtml\"><h3>Annotation</h3><table class=\"hl7__eu__lab__report\"><tr><th>Conclusion and Recommendations based on this report and previous findings known to us</th></tr><tr><td>All parameters are within normal limits except for a mildly elevated HbA1c (6.1%), indicating prediabetes. Glucose is currently normal. Renal function, electrolytes, and lipid profile are unremarkable. Recommend monitoring glycemic control and considering lifestyle modifications to prevent progression to diabetes. No other laboratory abnormalities detected.</td></tr></table></div>"
            },
            "code": {
              "coding": [
                {
                  "system": "http://loinc.org",
                  "code": "48767-8",
                  "display": "Annotation comment"
                }
              ]
            },
            "title": "Annotation comment"
          }
        ],
        "status": "final",
        "subject": {
          "reference": "urn:uuid:b32a61d8-6bb5-4940-871d-31e3570941c8",
          "display": "Pauline Grenier"
        },
        "date": "2023-03-06T12:54:46Z",
        "title": "Laboratory Report",
        "confidentiality": "N"
      }
    },
    {
      "fullUrl": "urn:uuid:d34e317e-d4b1-4889-99bf-175cc6c5ed53",
      "resource": {
        "resourceType": "DiagnosticReport",
        "id": "d34e317e-d4b1-4889-99bf-175cc6c5ed53",
        "meta": {
          "profile": [
            "http://hl7.eu/fhir/laboratory/StructureDefinition/DiagnosticReport-eu-lab"
          ]
        },
        "identifier": [
          {
            "assigner": {
              "display": "HL7 Europe"
            },
            "system": "urn:oid:2.16.840.1.113883.2.51.999",
            "value": "4c73a388-602d-4900-8d31-d16d550ef6cc"
          }
        ],
        "extension": [
          {
            "url": "http://hl7.org/fhir/5.0/StructureDefinition/extension-DiagnosticReport.composition",
            "valueReference": {
              "reference": "urn:uuid:2a0c93d5-e976-4e43-b33f-ed20cae6dce9"
            }
          }
        ],
        "category": [
          {
            "coding": [
              {
                "code": "26436-6",
                "system": "http://loinc.org",
                "display": "Laboratory studies (set)"
              }
            ]
          }
        ],
        "specimen": [
          {
            "reference": "urn:uuid:ac56b1c4-6d77-4034-8cc0-2891cf595cf3"
          },
          {
            "reference": "urn:uuid:1918ff80-6c1e-434c-bab0-c5c9017a2315"
          }
        ],
        "result": [
          {
            "reference": "urn:uuid:d165d5d2-48e2-4cab-9615-0058d400a08c"
          },
          {
            "reference": "urn:uuid:0a8480cf-e328-4984-827e-e3633bdf1439"
          },
          {
            "reference": "urn:uuid:615fbf3f-05c4-487b-b357-296216cab90f"
          },
          {
            "reference": "urn:uuid:a91f8eda-57b5-4920-9d78-6d03bab2e3b3"
          },
          {
            "reference": "urn:uuid:4a832906-68ac-4d07-ad7d-da70bd61a494"
          },
          {
            "reference": "urn:uuid:e684f9a3-8253-4dbe-ad66-73318ba01646"
          },
          {
            "reference": "urn:uuid:8c32dee0-290c-4abd-a435-4fe236054b46"
          },
          {
            "reference": "urn:uuid:936b64e0-16f5-471f-afd3-130160488b00"
          },
          {
            "reference": "urn:uuid:51adc4dc-b945-42ed-9cf3-2e1ca7c9d09d"
          },
          {
            "reference": "urn:uuid:70baf6dc-6697-4c71-828c-9152b1918ea0"
          },
          {
            "reference": "urn:uuid:39e4b069-10e8-43b8-8af5-a3243ab68fd1"
          },
          {
            "reference": "urn:uuid:96cd5779-3187-4429-838a-3c539ae2b824"
          },
          {
            "reference": "urn:uuid:ba6cb8ec-1897-44ef-853d-7be7b98f4849"
          }
        ],
        "status": "registered",
        "code": {
          "coding": [
            {
              "code": "11502-2",
              "system": "http://loinc.org",
              "display": "Laboratory report"
            }
          ]
        },
        "subject": {
          "reference": "urn:uuid:b32a61d8-6bb5-4940-871d-31e3570941c8",
          "display": "Pauline Grenier"
        }
      }
    },
    {
      "fullUrl": "urn:uuid:b32a61d8-6bb5-4940-871d-31e3570941c8",
      "resource": {
        "resourceType": "Patient",
        "id": "b32a61d8-6bb5-4940-871d-31e3570941c8",
        "meta": {
          "security": [
            {
              "system": "http://terminology.hl7.org/CodeSystem/v3-ActReason",
              "code": "HTEST"
            },
            {
              "system": "http://terminology.hl7.org/CodeSystem/v3-ActReason",
              "code": "TRAIN"
            }
          ],
          "tag": [
            {
              "system": "https://synderai.net/fhir/CodeSystem/tags",
              "code": "synthetic",
              "display": "SYNDERAI Synthetic data"
            }
          ],
          "profile": [
            "http://hl7.eu/fhir/base/StructureDefinition/patient-eu-core"
          ]
        },
        "identifier": [
          {
            "type": {
              "coding": [
                {
                  "code": "PT",
                  "system": "http://terminology.hl7.org/CodeSystem/v2-0203"
                }
              ]
            },
            "system": "http://ec.europa.eu/identifier/eci",
            "value": "6776-872657-1"
          },
          {
            "type": {
              "coding": [
                {
                  "code": "MR",
                  "system": "http://terminology.hl7.org/CodeSystem/v2-0203"
                }
              ]
            },
            "system": "http://local.setting.eu/identifier",
            "value": "a90ff566-3092-3af0-91f2-c0514ba66d35"
          }
        ],
        "name": [
          {
            "family": "Grenier"
          },
          {
            "given": [
              "Pauline"
            ]
          },
          {
            "text": "Pauline Grenier"
          }
        ],
        "address": [
          {
            "line": [
              "114, avenue Georges"
            ],
            "use": "home",
            "type": "physical",
            "postalCode": "71110",
            "city": "Caron",
            "country": "France"
          }
        ],
        "telecom": [
          {
            "system": "phone",
            "value": "+33 4 26 27 51 56"
          }
        ],
        "extension": [
          {
            "url": "http://hl7.org/fhir/StructureDefinition/patient-nationality",
            "valueCodeableConcept": {
              "coding": [
                {
                  "code": "FR",
                  "system": "http://hl7.org/fhir/ValueSet/country"
                }
              ]
            }
          }
        ],
        "text": {
          "status": "generated",
          "div": "<div xmlns=\"http://www.w3.org/1999/xhtml\"><table class=\"hl7__ips\"><tr><td>Pauline Grenier</td><td>female</td><td>03-May-1971</td></tr></table></div>"
        },
        "gender": "female",
        "birthDate": "1971-05-03"
      }
    },
    {
      "fullUrl": "urn:uuid:c98b4120-6cf0-4a65-8de0-b12b738738ed",
      "resource": {
        "resourceType": "ServiceRequest",
        "id": "c98b4120-6cf0-4a65-8de0-b12b738738ed",
        "meta": {
          "profile": [
            "http://hl7.eu/fhir/laboratory/StructureDefinition/ServiceRequest-eu-lab"
          ]
        },
        "identifier": [
          {
            "system": "http://example.org",
            "value": "31cf9c50-4884-4b56-8f44-8a501a1116a0"
          }
        ],
        "specimen": [
          {
            "reference": "urn:uuid:ac56b1c4-6d77-4034-8cc0-2891cf595cf3"
          },
          {
            "reference": "urn:uuid:1918ff80-6c1e-434c-bab0-c5c9017a2315"
          }
        ],
        "reasonCode": [
          {
            "coding": [
              {
                "code": "59621000",
                "system": "http://snomed.info/sct",
                "display": "Essential hypertension"
              }
            ]
          },
          {
            "coding": [
              {
                "code": "237602007",
                "system": "http://snomed.info/sct",
                "display": "Metabolic syndrome X"
              }
            ]
          },
          {
            "coding": [
              {
                "code": "15777000",
                "system": "http://snomed.info/sct",
                "display": "Prediabetes"
              }
            ]
          }
        ],
        "status": "active",
        "intent": "order",
        "code": {
          "coding": [
            {
              "code": "108252007",
              "system": "http://snomed.info/sct",
              "display": "Laboratory procedure"
            }
          ]
        },
        "subject": {
          "reference": "urn:uuid:b32a61d8-6bb5-4940-871d-31e3570941c8",
          "display": "Pauline Grenier"
        },
        "requester": {
          "reference": "urn:uuid:7c926f70-43f4-44ee-9196-d4f6295c2468"
        }
      }
    },
    {
      "fullUrl": "urn:uuid:7c926f70-43f4-44ee-9196-d4f6295c2468",
      "resource": {
        "resourceType": "PractitionerRole",
        "id": "7c926f70-43f4-44ee-9196-d4f6295c2468",
        "meta": {
          "profile": [
            "http://hl7.eu/fhir/base/StructureDefinition/practitionerRole-eu"
          ]
        },
        "text": {
          "status": "generated",
          "div": "<div xmlns=\"http://www.w3.org/1999/xhtml\">Provider Role Id: 7c926f70-43f4-44ee-9196-d4f6295c2468</div>"
        },
        "organization": {
          "reference": "urn:uuid:a03a3bb6-daf1-441a-a7f1-9887ab2de825"
        }
      }
    },
    {
      "fullUrl": "urn:uuid:a03a3bb6-daf1-441a-a7f1-9887ab2de825",
      "resource": {
        "resourceType": "Organization",
        "id": "a03a3bb6-daf1-441a-a7f1-9887ab2de825",
        "meta": {
          "profile": [
            "http://hl7.eu/fhir/base/StructureDefinition/organization-eu"
          ]
        },
        "identifier": [
          {
            "assigner": {
              "display": "HL7 Europe"
            },
            "system": "urn:oid:2.16.840.1.113883.2.51.999",
            "value": "8c9ff730-0fde-46c0-8e0b-aa4f66e1da38"
          }
        ],
        "address": [
          {
            "city": "Le Creusot",
            "postalCode": "71200",
            "country": "France"
          }
        ],
        "text": {
          "status": "generated",
          "div": "<div xmlns=\"http://www.w3.org/1999/xhtml\">Provider Organization: Hôpital du Creusot - Site Foch</div>"
        },
        "name": "Hôpital du Creusot - Site Foch"
      }
    },
    {
      "fullUrl": "urn:uuid:ac56b1c4-6d77-4034-8cc0-2891cf595cf3",
      "resource": {
        "resourceType": "Specimen",
        "id": "ac56b1c4-6d77-4034-8cc0-2891cf595cf3",
        "meta": {
          "profile": [
            "http://hl7.eu/fhir/laboratory/StructureDefinition/Specimen-eu-lab"
          ]
        },
        "collection": {
          "collectedDateTime": "2023-03-06"
        },
        "text": {
          "status": "generated",
          "div": "<div xmlns=\"http://www.w3.org/1999/xhtml\"><table class=\"hl7__eu__lab__report\"><tr><th>Specimen</th><th>Collection Date</th></tr><tr><td>Whole blood specimen (specimen)</td><td><span class=\"nb\">06-Mar-2023</span></td></tr></table></div>"
        },
        "type": {
          "coding": [
            {
              "code": "258580003",
              "system": "http://snomed.info/sct",
              "display": "Whole blood specimen (specimen)"
            }
          ]
        }
      }
    },
    {
      "fullUrl": "urn:uuid:1918ff80-6c1e-434c-bab0-c5c9017a2315",
      "resource": {
        "resourceType": "Specimen",
        "id": "1918ff80-6c1e-434c-bab0-c5c9017a2315",
        "meta": {
          "profile": [
            "http://hl7.eu/fhir/laboratory/StructureDefinition/Specimen-eu-lab"
          ]
        },
        "collection": {
          "collectedDateTime": "2023-03-06"
        },
        "text": {
          "status": "generated",
          "div": "<div xmlns=\"http://www.w3.org/1999/xhtml\"><table class=\"hl7__eu__lab__report\"><tr><th>Specimen</th><th>Collection Date</th></tr><tr><td>Acellular blood (serum or plasma) specimen</td><td><span class=\"nb\">06-Mar-2023</span></td></tr></table></div>"
        },
        "type": {
          "coding": [
            {
              "code": "122592007",
              "system": "http://snomed.info/sct",
              "display": "Acellular blood (serum or plasma) specimen"
            }
          ]
        }
      }
    },
    {
      "fullUrl": "urn:uuid:d165d5d2-48e2-4cab-9615-0058d400a08c",
      "resource": {
        "resourceType": "Observation",
        "id": "d165d5d2-48e2-4cab-9615-0058d400a08c",
        "meta": {
          "profile": [
            "http://hl7.eu/fhir/laboratory/StructureDefinition/Observation-resultslab-eu-lab"
          ]
        },
        "performer": [
          {
            "display": "The Central European Lab"
          }
        ],
        "category": [
          {
            "coding": [
              {
                "system": "http://terminology.hl7.org/CodeSystem/observation-category",
                "code": "laboratory"
              }
            ]
          }
        ],
        "code": {
          "coding": [
            {
              "code": "4548-4",
              "system": "http://loinc.org",
              "display": "Hemoglobin A1c/Hemoglobin.total in Blood"
            }
          ],
          "text": "Hemoglobin A1c/Hemoglobin.total in Blood"
        },
        "valueQuantity": {
          "system": "http://unitsofmeasure.org",
          "value": 6.1,
          "unit": "%",
          "code": "%"
        },
        "referenceRange": [
          {
            "low": {
              "value": 4.8,
              "code": "%",
              "system": "http://unitsofmeasure.org"
            }
          },
          {
            "high": {
              "value": 5.7,
              "code": "%",
              "system": "http://unitsofmeasure.org"
            }
          }
        ],
        "interpretation": [
          {
            "coding": [
              {
                "code": "H",
                "system": "http://terminology.hl7.org/CodeSystem/v3-ObservationInterpretation",
                "display": "High"
              }
            ]
          }
        ],
        "text": {
          "status": "generated",
          "div": "<div xmlns=\"http://www.w3.org/1999/xhtml\"><table class=\"hl7__eu__lab__report\"><tr><th>Test</th><th>06-Mar-2023</th><th>Reference&#xA0;Range</th><th>Unit</th></tr><tr><td>Hemoglobin A1c/Hemoglobin.total in Blood</td><td>6.1</td><td>4.8 - 5.7</td><td>H</td><td>%</td></tr></table></div>"
        },
        "status": "final",
        "subject": {
          "reference": "urn:uuid:b32a61d8-6bb5-4940-871d-31e3570941c8",
          "display": "Pauline Grenier"
        },
        "effectiveDateTime": "2023-03-06T11:54:46Z",
        "specimen": {
          "reference": "urn:uuid:ac56b1c4-6d77-4034-8cc0-2891cf595cf3"
        }
      }
    },
    {
      "fullUrl": "urn:uuid:0a8480cf-e328-4984-827e-e3633bdf1439",
      "resource": {
        "resourceType": "Observation",
        "id": "0a8480cf-e328-4984-827e-e3633bdf1439",
        "meta": {
          "profile": [
            "http://hl7.eu/fhir/laboratory/StructureDefinition/Observation-resultslab-eu-lab"
          ]
        },
        "performer": [
          {
            "display": "The Central European Lab"
          }
        ],
        "category": [
          {
            "coding": [
              {
                "system": "http://terminology.hl7.org/CodeSystem/observation-category",
                "code": "laboratory"
              }
            ]
          }
        ],
        "code": {
          "coding": [
            {
              "code": "2339-0",
              "system": "http://loinc.org",
              "display": "Glucose [Mass/volume] in Blood"
            }
          ],
          "text": "Glucose [Mass/volume] in Blood"
        },
        "valueQuantity": {
          "system": "http://unitsofmeasure.org",
          "value": 95.7,
          "unit": "mg/dL",
          "code": "mg/dL"
        },
        "referenceRange": [
          {
            "low": {
              "value": 70,
              "code": "mg/dL",
              "system": "http://unitsofmeasure.org"
            }
          },
          {
            "high": {
              "value": 99,
              "code": "mg/dL",
              "system": "http://unitsofmeasure.org"
            }
          }
        ],
        "text": {
          "status": "generated",
          "div": "<div xmlns=\"http://www.w3.org/1999/xhtml\"><table class=\"hl7__eu__lab__report\"><tr><th>Test</th><th>06-Mar-2023</th><th>Reference&#xA0;Range</th><th>Unit</th></tr><tr><td>Glucose [Mass/volume] in Blood</td><td>95.7</td><td>70 - 99</td><td></td><td>mg/dL</td></tr></table></div>"
        },
        "status": "final",
        "subject": {
          "reference": "urn:uuid:b32a61d8-6bb5-4940-871d-31e3570941c8",
          "display": "Pauline Grenier"
        },
        "effectiveDateTime": "2023-03-06T11:54:46Z",
        "specimen": {
          "reference": "urn:uuid:ac56b1c4-6d77-4034-8cc0-2891cf595cf3"
        }
      }
    },
    {
      "fullUrl": "urn:uuid:615fbf3f-05c4-487b-b357-296216cab90f",
      "resource": {
        "resourceType": "Observation",
        "id": "615fbf3f-05c4-487b-b357-296216cab90f",
        "meta": {
          "profile": [
            "http://hl7.eu/fhir/laboratory/StructureDefinition/Observation-resultslab-eu-lab"
          ]
        },
        "performer": [
          {
            "display": "The Central European Lab"
          }
        ],
        "category": [
          {
            "coding": [
              {
                "system": "http://terminology.hl7.org/CodeSystem/observation-category",
                "code": "laboratory"
              }
            ]
          }
        ],
        "code": {
          "coding": [
            {
              "code": "6299-2",
              "system": "http://loinc.org",
              "display": "Urea nitrogen [Mass/volume] in Blood"
            }
          ],
          "text": "Urea nitrogen [Mass/volume] in Blood"
        },
        "valueQuantity": {
          "system": "http://unitsofmeasure.org",
          "value": 12.6,
          "unit": "mg/dL",
          "code": "mg/dL"
        },
        "referenceRange": [
          {
            "low": {
              "value": 7,
              "code": "mg/dL",
              "system": "http://unitsofmeasure.org"
            }
          },
          {
            "high": {
              "value": 20,
              "code": "mg/dL",
              "system": "http://unitsofmeasure.org"
            }
          }
        ],
        "text": {
          "status": "generated",
          "div": "<div xmlns=\"http://www.w3.org/1999/xhtml\"><table class=\"hl7__eu__lab__report\"><tr><th>Test</th><th>06-Mar-2023</th><th>Reference&#xA0;Range</th><th>Unit</th></tr><tr><td>Urea nitrogen [Mass/volume] in Blood</td><td>12.6</td><td>7 - 20</td><td></td><td>mg/dL</td></tr></table></div>"
        },
        "status": "final",
        "subject": {
          "reference": "urn:uuid:b32a61d8-6bb5-4940-871d-31e3570941c8",
          "display": "Pauline Grenier"
        },
        "effectiveDateTime": "2023-03-06T11:54:46Z",
        "specimen": {
          "reference": "urn:uuid:ac56b1c4-6d77-4034-8cc0-2891cf595cf3"
        }
      }
    },
    {
      "fullUrl": "urn:uuid:a91f8eda-57b5-4920-9d78-6d03bab2e3b3",
      "resource": {
        "resourceType": "Observation",
        "id": "a91f8eda-57b5-4920-9d78-6d03bab2e3b3",
        "meta": {
          "profile": [
            "http://hl7.eu/fhir/laboratory/StructureDefinition/Observation-resultslab-eu-lab"
          ]
        },
        "performer": [
          {
            "display": "The Central European Lab"
          }
        ],
        "category": [
          {
            "coding": [
              {
                "system": "http://terminology.hl7.org/CodeSystem/observation-category",
                "code": "laboratory"
              }
            ]
          }
        ],
        "code": {
          "coding": [
            {
              "code": "38483-4",
              "system": "http://loinc.org",
              "display": "Creatinine [Mass/volume] in Blood"
            }
          ],
          "text": "Creatinine [Mass/volume] in Blood"
        },
        "valueQuantity": {
          "system": "http://unitsofmeasure.org",
          "value": 1,
          "unit": "mg/dL",
          "code": "mg/dL"
        },
        "referenceRange": [
          {
            "low": {
              "value": 0.6,
              "code": "mg/dL",
              "system": "http://unitsofmeasure.org"
            }
          },
          {
            "high": {
              "value": 1.1,
              "code": "mg/dL",
              "system": "http://unitsofmeasure.org"
            }
          }
        ],
        "text": {
          "status": "generated",
          "div": "<div xmlns=\"http://www.w3.org/1999/xhtml\"><table class=\"hl7__eu__lab__report\"><tr><th>Test</th><th>06-Mar-2023</th><th>Reference&#xA0;Range</th><th>Unit</th></tr><tr><td>Creatinine [Mass/volume] in Blood</td><td>1.0</td><td>0.6 - 1.1</td><td></td><td>mg/dL</td></tr></table></div>"
        },
        "status": "final",
        "subject": {
          "reference": "urn:uuid:b32a61d8-6bb5-4940-871d-31e3570941c8",
          "display": "Pauline Grenier"
        },
        "effectiveDateTime": "2023-03-06T11:54:46Z",
        "specimen": {
          "reference": "urn:uuid:ac56b1c4-6d77-4034-8cc0-2891cf595cf3"
        }
      }
    },
    {
      "fullUrl": "urn:uuid:4a832906-68ac-4d07-ad7d-da70bd61a494",
      "resource": {
        "resourceType": "Observation",
        "id": "4a832906-68ac-4d07-ad7d-da70bd61a494",
        "meta": {
          "profile": [
            "http://hl7.eu/fhir/laboratory/StructureDefinition/Observation-resultslab-eu-lab"
          ]
        },
        "performer": [
          {
            "display": "The Central European Lab"
          }
        ],
        "category": [
          {
            "coding": [
              {
                "system": "http://terminology.hl7.org/CodeSystem/observation-category",
                "code": "laboratory"
              }
            ]
          }
        ],
        "code": {
          "coding": [
            {
              "code": "49765-1",
              "system": "http://loinc.org",
              "display": "Calcium [Mass/volume] in Blood"
            }
          ],
          "text": "Calcium [Mass/volume] in Blood"
        },
        "valueQuantity": {
          "system": "http://unitsofmeasure.org",
          "value": 9.5,
          "unit": "mg/dL",
          "code": "mg/dL"
        },
        "referenceRange": [
          {
            "low": {
              "value": 8.5,
              "code": "mg/dL",
              "system": "http://unitsofmeasure.org"
            }
          },
          {
            "high": {
              "value": 10.5,
              "code": "mg/dL",
              "system": "http://unitsofmeasure.org"
            }
          }
        ],
        "text": {
          "status": "generated",
          "div": "<div xmlns=\"http://www.w3.org/1999/xhtml\"><table class=\"hl7__eu__lab__report\"><tr><th>Test</th><th>06-Mar-2023</th><th>Reference&#xA0;Range</th><th>Unit</th></tr><tr><td>Calcium [Mass/volume] in Blood</td><td>9.5</td><td>8.5 - 10.5</td><td></td><td>mg/dL</td></tr></table></div>"
        },
        "status": "final",
        "subject": {
          "reference": "urn:uuid:b32a61d8-6bb5-4940-871d-31e3570941c8",
          "display": "Pauline Grenier"
        },
        "effectiveDateTime": "2023-03-06T11:54:46Z",
        "specimen": {
          "reference": "urn:uuid:ac56b1c4-6d77-4034-8cc0-2891cf595cf3"
        }
      }
    },
    {
      "fullUrl": "urn:uuid:e684f9a3-8253-4dbe-ad66-73318ba01646",
      "resource": {
        "resourceType": "Observation",
        "id": "e684f9a3-8253-4dbe-ad66-73318ba01646",
        "meta": {
          "profile": [
            "http://hl7.eu/fhir/laboratory/StructureDefinition/Observation-resultslab-eu-lab"
          ]
        },
        "performer": [
          {
            "display": "The Central European Lab"
          }
        ],
        "category": [
          {
            "coding": [
              {
                "system": "http://terminology.hl7.org/CodeSystem/observation-category",
                "code": "laboratory"
              }
            ]
          }
        ],
        "code": {
          "coding": [
            {
              "code": "2947-0",
              "system": "http://loinc.org",
              "display": "Sodium [Moles/volume] in Blood"
            }
          ],
          "text": "Sodium [Moles/volume] in Blood"
        },
        "valueQuantity": {
          "system": "http://unitsofmeasure.org",
          "value": 136.4,
          "unit": "mmol/L",
          "code": "mmol/L"
        },
        "referenceRange": [
          {
            "low": {
              "value": 135,
              "code": "mmol/L",
              "system": "http://unitsofmeasure.org"
            }
          },
          {
            "high": {
              "value": 145,
              "code": "mmol/L",
              "system": "http://unitsofmeasure.org"
            }
          }
        ],
        "text": {
          "status": "generated",
          "div": "<div xmlns=\"http://www.w3.org/1999/xhtml\"><table class=\"hl7__eu__lab__report\"><tr><th>Test</th><th>06-Mar-2023</th><th>Reference&#xA0;Range</th><th>Unit</th></tr><tr><td>Sodium [Moles/volume] in Blood</td><td>136.4</td><td>135 - 145</td><td></td><td>mmol/L</td></tr></table></div>"
        },
        "status": "final",
        "subject": {
          "reference": "urn:uuid:b32a61d8-6bb5-4940-871d-31e3570941c8",
          "display": "Pauline Grenier"
        },
        "effectiveDateTime": "2023-03-06T11:54:46Z",
        "specimen": {
          "reference": "urn:uuid:ac56b1c4-6d77-4034-8cc0-2891cf595cf3"
        }
      }
    },
    {
      "fullUrl": "urn:uuid:8c32dee0-290c-4abd-a435-4fe236054b46",
      "resource": {
        "resourceType": "Observation",
        "id": "8c32dee0-290c-4abd-a435-4fe236054b46",
        "meta": {
          "profile": [
            "http://hl7.eu/fhir/laboratory/StructureDefinition/Observation-resultslab-eu-lab"
          ]
        },
        "performer": [
          {
            "display": "The Central European Lab"
          }
        ],
        "category": [
          {
            "coding": [
              {
                "system": "http://terminology.hl7.org/CodeSystem/observation-category",
                "code": "laboratory"
              }
            ]
          }
        ],
        "code": {
          "coding": [
            {
              "code": "6298-4",
              "system": "http://loinc.org",
              "display": "Potassium [Moles/volume] in Blood"
            }
          ],
          "text": "Potassium [Moles/volume] in Blood"
        },
        "valueQuantity": {
          "system": "http://unitsofmeasure.org",
          "value": 4.6,
          "unit": "mmol/L",
          "code": "mmol/L"
        },
        "referenceRange": [
          {
            "low": {
              "value": 3.5,
              "code": "mmol/L",
              "system": "http://unitsofmeasure.org"
            }
          },
          {
            "high": {
              "value": 5.3,
              "code": "mmol/L",
              "system": "http://unitsofmeasure.org"
            }
          }
        ],
        "text": {
          "status": "generated",
          "div": "<div xmlns=\"http://www.w3.org/1999/xhtml\"><table class=\"hl7__eu__lab__report\"><tr><th>Test</th><th>06-Mar-2023</th><th>Reference&#xA0;Range</th><th>Unit</th></tr><tr><td>Potassium [Moles/volume] in Blood</td><td>4.6</td><td>3.5 - 5.3</td><td></td><td>mmol/L</td></tr></table></div>"
        },
        "status": "final",
        "subject": {
          "reference": "urn:uuid:b32a61d8-6bb5-4940-871d-31e3570941c8",
          "display": "Pauline Grenier"
        },
        "effectiveDateTime": "2023-03-06T11:54:46Z",
        "specimen": {
          "reference": "urn:uuid:ac56b1c4-6d77-4034-8cc0-2891cf595cf3"
        }
      }
    },
    {
      "fullUrl": "urn:uuid:936b64e0-16f5-471f-afd3-130160488b00",
      "resource": {
        "resourceType": "Observation",
        "id": "936b64e0-16f5-471f-afd3-130160488b00",
        "meta": {
          "profile": [
            "http://hl7.eu/fhir/laboratory/StructureDefinition/Observation-resultslab-eu-lab"
          ]
        },
        "performer": [
          {
            "display": "The Central European Lab"
          }
        ],
        "category": [
          {
            "coding": [
              {
                "system": "http://terminology.hl7.org/CodeSystem/observation-category",
                "code": "laboratory"
              }
            ]
          }
        ],
        "code": {
          "coding": [
            {
              "code": "2069-3",
              "system": "http://loinc.org",
              "display": "Chloride [Moles/volume] in Blood"
            }
          ],
          "text": "Chloride [Moles/volume] in Blood"
        },
        "valueQuantity": {
          "system": "http://unitsofmeasure.org",
          "value": 108,
          "unit": "mmol/L",
          "code": "mmol/L"
        },
        "referenceRange": [
          {
            "low": {
              "value": 98,
              "code": "mmol/L",
              "system": "http://unitsofmeasure.org"
            }
          },
          {
            "high": {
              "value": 114,
              "code": "mmol/L",
              "system": "http://unitsofmeasure.org"
            }
          }
        ],
        "text": {
          "status": "generated",
          "div": "<div xmlns=\"http://www.w3.org/1999/xhtml\"><table class=\"hl7__eu__lab__report\"><tr><th>Test</th><th>06-Mar-2023</th><th>Reference&#xA0;Range</th><th>Unit</th></tr><tr><td>Chloride [Moles/volume] in Blood</td><td>108.0</td><td>98 - 114</td><td></td><td>mmol/L</td></tr></table></div>"
        },
        "status": "final",
        "subject": {
          "reference": "urn:uuid:b32a61d8-6bb5-4940-871d-31e3570941c8",
          "display": "Pauline Grenier"
        },
        "effectiveDateTime": "2023-03-06T11:54:46Z",
        "specimen": {
          "reference": "urn:uuid:ac56b1c4-6d77-4034-8cc0-2891cf595cf3"
        }
      }
    },
    {
      "fullUrl": "urn:uuid:51adc4dc-b945-42ed-9cf3-2e1ca7c9d09d",
      "resource": {
        "resourceType": "Observation",
        "id": "51adc4dc-b945-42ed-9cf3-2e1ca7c9d09d",
        "meta": {
          "profile": [
            "http://hl7.eu/fhir/laboratory/StructureDefinition/Observation-resultslab-eu-lab"
          ]
        },
        "performer": [
          {
            "display": "The Central European Lab"
          }
        ],
        "category": [
          {
            "coding": [
              {
                "system": "http://terminology.hl7.org/CodeSystem/observation-category",
                "code": "laboratory"
              }
            ]
          }
        ],
        "code": {
          "coding": [
            {
              "code": "20565-8",
              "system": "http://loinc.org",
              "display": "Carbon dioxide, total [Moles/volume] in Blood"
            }
          ],
          "text": "Carbon dioxide, total [Moles/volume] in Blood"
        },
        "valueQuantity": {
          "system": "http://unitsofmeasure.org",
          "value": 28.8,
          "unit": "mmol/L",
          "code": "mmol/L"
        },
        "referenceRange": [
          {
            "low": {
              "value": 22,
              "code": "mmol/L",
              "system": "http://unitsofmeasure.org"
            }
          },
          {
            "high": {
              "value": 29,
              "code": "mmol/L",
              "system": "http://unitsofmeasure.org"
            }
          }
        ],
        "text": {
          "status": "generated",
          "div": "<div xmlns=\"http://www.w3.org/1999/xhtml\"><table class=\"hl7__eu__lab__report\"><tr><th>Test</th><th>06-Mar-2023</th><th>Reference&#xA0;Range</th><th>Unit</th></tr><tr><td>Carbon dioxide, total [Moles/volume] in Blood</td><td>28.8</td><td>22 - 29</td><td></td><td>mmol/L</td></tr></table></div>"
        },
        "status": "final",
        "subject": {
          "reference": "urn:uuid:b32a61d8-6bb5-4940-871d-31e3570941c8",
          "display": "Pauline Grenier"
        },
        "effectiveDateTime": "2023-03-06T11:54:46Z",
        "specimen": {
          "reference": "urn:uuid:ac56b1c4-6d77-4034-8cc0-2891cf595cf3"
        }
      }
    },
    {
      "fullUrl": "urn:uuid:70baf6dc-6697-4c71-828c-9152b1918ea0",
      "resource": {
        "resourceType": "Observation",
        "id": "70baf6dc-6697-4c71-828c-9152b1918ea0",
        "meta": {
          "profile": [
            "http://hl7.eu/fhir/laboratory/StructureDefinition/Observation-resultslab-eu-lab"
          ]
        },
        "performer": [
          {
            "display": "The Central European Lab"
          }
        ],
        "category": [
          {
            "coding": [
              {
                "system": "http://terminology.hl7.org/CodeSystem/observation-category",
                "code": "laboratory"
              }
            ]
          }
        ],
        "code": {
          "coding": [
            {
              "code": "2093-3",
              "system": "http://loinc.org",
              "display": "Cholesterol [Mass/volume] in Serum or Plasma"
            }
          ],
          "text": "Cholesterol [Mass/volume] in Serum or Plasma"
        },
        "valueQuantity": {
          "system": "http://unitsofmeasure.org",
          "value": 149.5,
          "unit": "mg/dL",
          "code": "mg/dL"
        },
        "referenceRange": [
          {
            "low": {
              "value": 125,
              "code": "mg/dL",
              "system": "http://unitsofmeasure.org"
            }
          },
          {
            "high": {
              "value": 200,
              "code": "mg/dL",
              "system": "http://unitsofmeasure.org"
            }
          }
        ],
        "text": {
          "status": "generated",
          "div": "<div xmlns=\"http://www.w3.org/1999/xhtml\"><table class=\"hl7__eu__lab__report\"><tr><th>Test</th><th>06-Mar-2023</th><th>Reference&#xA0;Range</th><th>Unit</th></tr><tr><td>Cholesterol [Mass/volume] in Serum or Plasma</td><td>149.5</td><td>125 - 200</td><td></td><td>mg/dL</td></tr></table></div>"
        },
        "status": "final",
        "subject": {
          "reference": "urn:uuid:b32a61d8-6bb5-4940-871d-31e3570941c8",
          "display": "Pauline Grenier"
        },
        "effectiveDateTime": "2023-03-06T11:54:46Z",
        "specimen": {
          "reference": "urn:uuid:1918ff80-6c1e-434c-bab0-c5c9017a2315"
        }
      }
    },
    {
      "fullUrl": "urn:uuid:39e4b069-10e8-43b8-8af5-a3243ab68fd1",
      "resource": {
        "resourceType": "Observation",
        "id": "39e4b069-10e8-43b8-8af5-a3243ab68fd1",
        "meta": {
          "profile": [
            "http://hl7.eu/fhir/laboratory/StructureDefinition/Observation-resultslab-eu-lab"
          ]
        },
        "performer": [
          {
            "display": "The Central European Lab"
          }
        ],
        "category": [
          {
            "coding": [
              {
                "system": "http://terminology.hl7.org/CodeSystem/observation-category",
                "code": "laboratory"
              }
            ]
          }
        ],
        "code": {
          "coding": [
            {
              "code": "2571-8",
              "system": "http://loinc.org",
              "display": "Triglyceride [Mass/volume] in Serum or Plasma"
            }
          ],
          "text": "Triglyceride [Mass/volume] in Serum or Plasma"
        },
        "valueQuantity": {
          "system": "http://unitsofmeasure.org",
          "value": 103.7,
          "unit": "mg/dL",
          "code": "mg/dL"
        },
        "referenceRange": [
          {
            "low": {
              "value": 35,
              "code": "mg/dL",
              "system": "http://unitsofmeasure.org"
            }
          },
          {
            "high": {
              "value": 150,
              "code": "mg/dL",
              "system": "http://unitsofmeasure.org"
            }
          }
        ],
        "text": {
          "status": "generated",
          "div": "<div xmlns=\"http://www.w3.org/1999/xhtml\"><table class=\"hl7__eu__lab__report\"><tr><th>Test</th><th>06-Mar-2023</th><th>Reference&#xA0;Range</th><th>Unit</th></tr><tr><td>Triglyceride [Mass/volume] in Serum or Plasma</td><td>103.7</td><td>35 - 150</td><td></td><td>mg/dL</td></tr></table></div>"
        },
        "status": "final",
        "subject": {
          "reference": "urn:uuid:b32a61d8-6bb5-4940-871d-31e3570941c8",
          "display": "Pauline Grenier"
        },
        "effectiveDateTime": "2023-03-06T11:54:46Z",
        "specimen": {
          "reference": "urn:uuid:1918ff80-6c1e-434c-bab0-c5c9017a2315"
        }
      }
    },
    {
      "fullUrl": "urn:uuid:96cd5779-3187-4429-838a-3c539ae2b824",
      "resource": {
        "resourceType": "Observation",
        "id": "96cd5779-3187-4429-838a-3c539ae2b824",
        "meta": {
          "profile": [
            "http://hl7.eu/fhir/laboratory/StructureDefinition/Observation-resultslab-eu-lab"
          ]
        },
        "performer": [
          {
            "display": "The Central European Lab"
          }
        ],
        "category": [
          {
            "coding": [
              {
                "system": "http://terminology.hl7.org/CodeSystem/observation-category",
                "code": "laboratory"
              }
            ]
          }
        ],
        "code": {
          "coding": [
            {
              "code": "18262-6",
              "system": "http://loinc.org",
              "display": "Cholesterol in LDL [Mass/volume] in Serum or Plasma by Direct assay"
            }
          ],
          "text": "Cholesterol in LDL [Mass/volume] in Serum or Plasma by Direct assay"
        },
        "valueQuantity": {
          "system": "http://unitsofmeasure.org",
          "value": 68.9,
          "unit": "mg/dL",
          "code": "mg/dL"
        },
        "referenceRange": [
          {
            "low": {
              "value": 0,
              "code": "mg/dL",
              "system": "http://unitsofmeasure.org"
            }
          },
          {
            "high": {
              "value": 130,
              "code": "mg/dL",
              "system": "http://unitsofmeasure.org"
            }
          }
        ],
        "text": {
          "status": "generated",
          "div": "<div xmlns=\"http://www.w3.org/1999/xhtml\"><table class=\"hl7__eu__lab__report\"><tr><th>Test</th><th>06-Mar-2023</th><th>Reference&#xA0;Range</th><th>Unit</th></tr><tr><td>Cholesterol in LDL [Mass/volume] in Serum or Plasma by Direct assay</td><td>68.9</td><td>0 - 130</td><td></td><td>mg/dL</td></tr></table></div>"
        },
        "status": "final",
        "subject": {
          "reference": "urn:uuid:b32a61d8-6bb5-4940-871d-31e3570941c8",
          "display": "Pauline Grenier"
        },
        "effectiveDateTime": "2023-03-06T11:54:46Z",
        "specimen": {
          "reference": "urn:uuid:1918ff80-6c1e-434c-bab0-c5c9017a2315"
        }
      }
    },
    {
      "fullUrl": "urn:uuid:ba6cb8ec-1897-44ef-853d-7be7b98f4849",
      "resource": {
        "resourceType": "Observation",
        "id": "ba6cb8ec-1897-44ef-853d-7be7b98f4849",
        "meta": {
          "profile": [
            "http://hl7.eu/fhir/laboratory/StructureDefinition/Observation-resultslab-eu-lab"
          ]
        },
        "performer": [
          {
            "display": "The Central European Lab"
          }
        ],
        "category": [
          {
            "coding": [
              {
                "system": "http://terminology.hl7.org/CodeSystem/observation-category",
                "code": "laboratory"
              }
            ]
          }
        ],
        "code": {
          "coding": [
            {
              "code": "2085-9",
              "system": "http://loinc.org",
              "display": "Cholesterol in HDL [Mass/volume] in Serum or Plasma"
            }
          ],
          "text": "Cholesterol in HDL [Mass/volume] in Serum or Plasma"
        },
        "valueQuantity": {
          "system": "http://unitsofmeasure.org",
          "value": 59.9,
          "unit": "mg/dL",
          "code": "mg/dL"
        },
        "referenceRange": [
          {
            "low": {
              "value": 40,
              "code": "mg/dL",
              "system": "http://unitsofmeasure.org"
            }
          },
          {
            "high": {
              "value": 60,
              "code": "mg/dL",
              "system": "http://unitsofmeasure.org"
            }
          }
        ],
        "text": {
          "status": "generated",
          "div": "<div xmlns=\"http://www.w3.org/1999/xhtml\"><table class=\"hl7__eu__lab__report\"><tr><th>Test</th><th>06-Mar-2023</th><th>Reference&#xA0;Range</th><th>Unit</th></tr><tr><td>Cholesterol in HDL [Mass/volume] in Serum or Plasma</td><td>59.9</td><td>40 - 60</td><td></td><td>mg/dL</td></tr></table></div>"
        },
        "status": "final",
        "subject": {
          "reference": "urn:uuid:b32a61d8-6bb5-4940-871d-31e3570941c8",
          "display": "Pauline Grenier"
        },
        "effectiveDateTime": "2023-03-06T11:54:46Z",
        "specimen": {
          "reference": "urn:uuid:1918ff80-6c1e-434c-bab0-c5c9017a2315"
        }
      }
    },
    {
      "fullUrl": "urn:uuid:81fcb6a1-4439-4d85-8e5a-7e37c02b1c86",
      "resource": {
        "resourceType": "Device",
        "id": "81fcb6a1-4439-4d85-8e5a-7e37c02b1c86",
        "deviceName": [
          {
            "name": "SYNDERAI Synthetic Generator",
            "type": "manufacturer-name"
          }
        ],
        "version": [
          {
            "value": "5.0"
          }
        ],
        "text": {
          "status": "generated",
          "div": "<div xmlns=\"http://www.w3.org/1999/xhtml\">SYNDERAI Synthetic Generator v5.0</div>"
        },
        "status": "active\"",
        "distinctIdentifier": "synderai-generator-50",
        "manufacturer": "SYNDERAI Project"
      }
    },
    {
      "fullUrl": "urn:uuid:25a18ef6-99c9-4d50-a758-4a7ce82a7e05",
      "resource": {
        "resourceType": "Provenance",
        "id": "25a18ef6-99c9-4d50-a758-4a7ce82a7e05",
        "target": [
          {
            "reference": "Patient/b32a61d8-6bb5-4940-871d-31e3570941c8"
          },
          {
            "reference": "Bundle/b55ab0d3-6060-4807-9da3-dc37e6f12f8b"
          },
          {
            "reference": "Composition/4d7bb760-9794-465b-b443-08bf403dffbb"
          },
          {
            "reference": "PractitionerRole/f18c7704-dfcb-4b45-b5c4-7fd8eca0fbb5"
          },
          {
            "reference": "Practitioner/cb9d8de7-42b4-4c5e-954f-ad683cb09d01"
          },
          {
            "reference": "PractitionerRole/7c926f70-43f4-44ee-9196-d4f6295c2468"
          },
          {
            "reference": "Organization/a03a3bb6-daf1-441a-a7f1-9887ab2de825"
          }
        ],
        "activity": {
          "text": "Synthetic Example Data Generation"
        },
        "policy": [
          "https://synderai.net/synderai-synthetic-data-policy"
        ],
        "agent": [
          {
            "type": {
              "text": "author"
            },
            "who": {
              "reference": "Device/81fcb6a1-4439-4d85-8e5a-7e37c02b1c86"
            }
          }
        ],
        "reason": [
          {
            "text": "Interoperability Testing and Training (non-clinical use)"
          }
        ],
        "text": {
          "status": "generated",
          "div": "<div xmlns=\"http://www.w3.org/1999/xhtml\">Provenance for SYNDERAI Synthetic Example Data Resource</div>"
        },
        "recorded": "2023-03-06T12:54:46Z"
      }
    },
    {
      "fullUrl": "urn:uuid:f18c7704-dfcb-4b45-b5c4-7fd8eca0fbb5",
      "resource": {
        "resourceType": "PractitionerRole",
        "id": "f18c7704-dfcb-4b45-b5c4-7fd8eca0fbb5",
        "meta": {
          "profile": [
            "http://hl7.eu/fhir/base/StructureDefinition/practitionerRole-eu"
          ]
        },
        "text": {
          "status": "generated",
          "div": "<div xmlns=\"http://www.w3.org/1999/xhtml\">Laboratory Role Id: f18c7704-dfcb-4b45-b5c4-7fd8eca0fbb5</div>"
        },
        "practitioner": {
          "reference": "urn:uuid:cb9d8de7-42b4-4c5e-954f-ad683cb09d01"
        }
      }
    },
    {
      "fullUrl": "urn:uuid:cb9d8de7-42b4-4c5e-954f-ad683cb09d01",
      "resource": {
        "resourceType": "Practitioner",
        "id": "cb9d8de7-42b4-4c5e-954f-ad683cb09d01",
        "meta": {
          "profile": [
            "http://hl7.eu/fhir/base/StructureDefinition/practitioner-eu"
          ]
        },
        "identifier": [
          {
            "assigner": {
              "display": "HL7 Europe"
            },
            "system": "urn:oid:2.16.840.1.113883.2.51.999",
            "value": "2297418c-c94f-46cb-bbfd-de9bbb5ea81c"
          }
        ],
        "name": [
          {
            "prefix": [
              "dr"
            ],
            "given": [
              "Ex"
            ],
            "family": "Ample"
          }
        ],
        "address": [
          {
            "line": [
              "Laboratoire Central Européenne",
              "Boulevard du Jardin Botanique 32"
            ],
            "postalCode": "1000",
            "city": "Brussels",
            "country": "Belgium"
          }
        ],
        "text": {
          "status": "generated",
          "div": "<div xmlns=\"http://www.w3.org/1999/xhtml\">Laboratory: Laboratoire Central Européenne, 1000 Brussels, Belgium</div>"
        }
      }
    }
  ],
  "type": "document",
  "timestamp": "2023-03-06T12:54:46Z"
}
