{
  "resourceType": "Bundle",
  "id": "df21fcbb-3253-4c46-a2d5-3f50fb75213d",
  "meta": {
    "profile": [
      "http://hl7.eu/fhir/laboratory/StructureDefinition/Bundle-eu-lab"
    ]
  },
  "identifier": {
    "assigner": {
      "display": "HL7 Europe"
    },
    "system": "urn:oid:2.16.840.1.113883.2.51.999",
    "value": "3039c87f-2114-4b7d-82f0-ee7ecd382781"
  },
  "entry": [
    {
      "fullUrl": "urn:uuid:c3b72972-c8cc-4998-97c3-42394fc66489",
      "resource": {
        "resourceType": "Composition",
        "id": "c3b72972-c8cc-4998-97c3-42394fc66489",
        "meta": {
          "profile": [
            "http://hl7.eu/fhir/laboratory/StructureDefinition/Composition-eu-lab"
          ]
        },
        "identifier": {
          "assigner": {
            "display": "HL7 Europe"
          },
          "system": "urn:oid:2.16.840.1.113883.2.51.999",
          "value": "2861eeb8-967d-403b-bfd6-d4e4423c0f53"
        },
        "author": [
          {
            "reference": "urn:uuid:af3f26f1-4946-449e-89fe-26562ab7440c"
          }
        ],
        "category": [
          {
            "coding": [
              {
                "code": "26436-6",
                "system": "http://loinc.org",
                "display": "Laboratory studies (set)"
              }
            ]
          }
        ],
        "type": {
          "coding": [
            {
              "code": "11502-2",
              "system": "http://loinc.org",
              "display": "Laboratory report"
            }
          ],
          "text": "Laboratory Report"
        },
        "section": [
          {
            "code": {
              "coding": [
                {
                  "code": "26436-6",
                  "system": "http://loinc.org",
                  "display": "Laboratory studies (set)"
                }
              ],
              "text": "Laboratory studies"
            },
            "section": [
              {
                "code": {
                  "coding": [
                    {
                      "code": "$18719-5",
                      "system": "http://loinc.org",
                      "display": "Chemistry studies (set)"
                    }
                  ],
                  "text": "Chemistry"
                },
                "entry": [
                  {
                    "reference": "urn:uuid:8bc36509-910c-4c10-8e62-b596cb75ee0a"
                  },
                  {
                    "reference": "urn:uuid:0298835b-ce5d-4de5-8585-010ae00d29c3"
                  },
                  {
                    "reference": "urn:uuid:32a39896-0df2-4a04-b6d0-c5d6803c4635"
                  },
                  {
                    "reference": "urn:uuid:556430d3-540b-4b0c-9b55-d817d6fb6463"
                  },
                  {
                    "reference": "urn:uuid:a68e1327-ca4b-4822-9d8a-616eb863654b"
                  },
                  {
                    "reference": "urn:uuid:8a81696d-000c-4587-acfd-cb6efd4c9b22"
                  },
                  {
                    "reference": "urn:uuid:3459be99-9b36-4e86-ae47-5d4f960264c5"
                  },
                  {
                    "reference": "urn:uuid:f8e0957e-5117-4fc6-8197-45003db98803"
                  },
                  {
                    "reference": "urn:uuid:ca0c2f1d-edaf-4c52-af24-6959e002db5d"
                  }
                ],
                "text": {
                  "status": "generated",
                  "div": "<div xmlns=\"http://www.w3.org/1999/xhtml\"><h3>Chemistry</h3><table class=\"hl7__eu__lab__report\"><thead><tr><th>Test</th><th>19-OCT-2023</th><th>Reference&#xA0;Range</th><th>Unit</th></tr></thead><tbody><tr><td>Glucose [Mass/volume] in Serum or Plasma</td><td>78.7</td><td>70 - 140</td><td>mg/dL</td></tr><tr><td>Urea nitrogen [Mass/volume] in Serum or Plasma</td><td>7.5</td><td>7 - 50</td><td>mg/dL</td></tr><tr><td>Creatinine [Mass/volume] in Serum or Plasma</td><td><strong>2.1 H</strong></td><td>0.6 - 1.1</td><td>mg/dL</td></tr><tr><td>Calcium [Mass/volume] in Serum or Plasma</td><td>9.5</td><td>8.5 - 10.5</td><td>mg/dL</td></tr><tr><td>Sodium [Moles/volume] in Serum or Plasma</td><td>140.1</td><td>135 - 145</td><td>mmol/L</td></tr><tr><td>Potassium [Moles/volume] in Serum or Plasma</td><td>4.3</td><td>3.5 - 5.1</td><td>mmol/L</td></tr><tr><td>Chloride [Moles/volume] in Serum or Plasma</td><td>105.4</td><td>98 - 108</td><td>mmol/L</td></tr><tr><td>Carbon dioxide, total [Moles/volume] in Serum or Plasma</td><td>28.5</td><td>22 - 32</td><td>mmol/L</td></tr><tr><td>Ketones [Presence] in Urine by Test strip</td><td>Urine ketone test = +</td><td></td><td></td></tr></tbody></table></div>"
                },
                "title": "Chemistry"
              },
              {
                "code": {
                  "coding": [
                    {
                      "code": "$18729-4",
                      "system": "http://loinc.org",
                      "display": "Urinalysis studies (set)"
                    }
                  ],
                  "text": "Urinalysis"
                },
                "entry": [
                  {
                    "reference": "urn:uuid:48b6e646-9b59-4bec-944f-56d81f3521de"
                  },
                  {
                    "reference": "urn:uuid:39ff3188-b59c-479a-bb98-837c5a41c28a"
                  },
                  {
                    "reference": "urn:uuid:bacac376-507d-4062-afd7-fc2b95f95f24"
                  },
                  {
                    "reference": "urn:uuid:f6ef242d-13e4-4e09-b3b3-c630efc53769"
                  },
                  {
                    "reference": "urn:uuid:ba529bfa-2a40-40c0-8a44-aa6862f14cac"
                  },
                  {
                    "reference": "urn:uuid:68170e67-1dcb-435c-a9fe-075b47ceb24e"
                  },
                  {
                    "reference": "urn:uuid:5509f14a-3927-4c3a-a153-a1217dbc9687"
                  },
                  {
                    "reference": "urn:uuid:b7e24465-d7c9-4e8e-be05-0e24660f964f"
                  },
                  {
                    "reference": "urn:uuid:079b15d7-127a-4124-a25b-d83fcfd504d7"
                  },
                  {
                    "reference": "urn:uuid:dda258b3-1f5c-4ced-beb3-97f68407462c"
                  },
                  {
                    "reference": "urn:uuid:4398af05-6ddc-4a8f-85e6-cb3a55e31c3a"
                  },
                  {
                    "reference": "urn:uuid:626c14df-140f-42e9-b299-b9f0f23280fb"
                  }
                ],
                "text": {
                  "status": "generated",
                  "div": "<div xmlns=\"http://www.w3.org/1999/xhtml\"><h3>Urinalysis</h3><table class=\"hl7__eu__lab__report\"><thead><tr><th>Test</th><th>19-OCT-2023</th><th>Reference&#xA0;Range</th><th>Unit</th></tr></thead><tbody><tr><td>Glucose [Mass/volume] in Urine by Test strip</td><td><strong>1.7 H</strong></td><td>0.8 - 0</td><td>mg/dL</td></tr><tr><td>Glucose [Presence] in Urine by Test strip</td><td>++</td><td></td><td></td></tr><tr><td>Bilirubin.total [Mass/volume] in Urine by Test strip</td><td>0.3</td><td>0 - 1</td><td>mg/dL</td></tr><tr><td>Bilirubin.total [Presence] in Urine by Test strip</td><td>Finding of bilirubin in urine</td><td></td><td></td></tr><tr><td>Ketones [Mass/volume] in Urine by Test strip</td><td>15.1</td><td>0 - 20</td><td>mg/dL</td></tr><tr><td>Specific gravity of Urine by Test strip</td><td><strong>1.0 L</strong></td><td>1.01 - 1.03</td><td>{nominal}</td></tr><tr><td>pH of Urine by Test strip</td><td>6.6</td><td>4.6 - 7</td><td>pH</td></tr><tr><td>Protein [Mass/volume] in Urine by Test strip</td><td><strong>209.6 H</strong></td><td>0 - 15</td><td>mg/dL</td></tr><tr><td>Protein [Presence] in Urine by Test strip</td><td>Urine protein test = ++</td><td></td><td></td></tr><tr><td>Nitrite [Presence] in Urine by Test strip</td><td>Urine nitrite negative</td><td></td><td></td></tr><tr><td>Hemoglobin [Presence] in Urine by Test strip</td><td>Urine blood test = negative</td><td></td><td></td></tr><tr><td>Leukocyte esterase [Presence] in Urine by Test strip</td><td>Urine leukocyte test negative</td><td></td><td></td></tr></tbody></table></div>"
                },
                "title": "Urinalysis"
              },
              {
                "code": {
                  "coding": [
                    {
                      "code": "$LP7846-1",
                      "system": "http://loinc.org",
                      "display": "Specimen information"
                    }
                  ],
                  "text": "Specimen information"
                },
                "entry": [
                  {
                    "reference": "urn:uuid:7ffe68d2-affc-436d-8cf1-e6f629e28007"
                  },
                  {
                    "reference": "urn:uuid:70774cb3-3a6e-4563-b03a-42641e4b9b01"
                  },
                  {
                    "reference": "urn:uuid:b231d41c-fa36-495c-a6e5-480fbbe3d7c9"
                  },
                  {
                    "reference": "urn:uuid:2b890cd6-db4e-4145-8a2b-64dd2b6e9e3c"
                  }
                ],
                "text": {
                  "status": "generated",
                  "div": "<div xmlns=\"http://www.w3.org/1999/xhtml\"><h3>Specimen information</h3><table class=\"hl7__eu__lab__report\"><thead><tr><th>Test</th><th>19-OCT-2023</th><th>Specimen</th><th></th></tr></thead><tbody><tr><td>Appearance of Urine</td><td>Cloudy urine</td><td>Urine</td><td></td></tr><tr><td>Odor of Urine</td><td>Urine smell ammoniacal</td><td>Urine</td><td></td></tr><tr><td>Clarity of Urine</td><td>Translucent</td><td>Urine</td><td></td></tr><tr><td>Color of Urine</td><td>Brown color</td><td>Urine</td><td></td></tr></tbody></table></div>"
                },
                "title": "Specimen information"
              }
            ],
            "title": "Laboratory Report"
          },
          {
            "text": {
              "status": "generated",
              "div": "<div xmlns=\"http://www.w3.org/1999/xhtml\"><h3>Annotation</h3><table class=\"hl7__eu__lab__report\"><tr><th>Conclusion and Recommendations based on this report and previous findings known to us</th></tr><tr><td>The patient shows elevated serum creatinine, indicating impaired renal function. Urinalysis reveals significant proteinuria, glucosuria, low specific gravity, and abnormal urine appearance (cloudy, brown, ammoniacal), suggesting possible chronic kidney disease with tubular dysfunction. No evidence of urinary tract infection (negative nitrites, leukocytes, and hemoglobin). Recommend further nephrological evaluation and monitoring of renal function.</td></tr></table></div>"
            },
            "code": {
              "coding": [
                {
                  "system": "http://loinc.org",
                  "code": "48767-8",
                  "display": "Annotation comment"
                }
              ]
            },
            "title": "Annotation comment"
          }
        ],
        "status": "final",
        "subject": {
          "reference": "urn:uuid:c826ebbf-f9d1-484f-876a-0625097c09ea",
          "display": "Marthe Gallet"
        },
        "date": "2023-10-19T21:05:43Z",
        "title": "Laboratory Report",
        "confidentiality": "N"
      }
    },
    {
      "fullUrl": "urn:uuid:05754b64-040d-4973-80a7-730472ab0fda",
      "resource": {
        "resourceType": "DiagnosticReport",
        "id": "05754b64-040d-4973-80a7-730472ab0fda",
        "meta": {
          "profile": [
            "http://hl7.eu/fhir/laboratory/StructureDefinition/DiagnosticReport-eu-lab"
          ]
        },
        "identifier": [
          {
            "assigner": {
              "display": "HL7 Europe"
            },
            "system": "urn:oid:2.16.840.1.113883.2.51.999",
            "value": "24bbf810-5487-4624-ac2b-03c92cd82655"
          }
        ],
        "extension": [
          {
            "url": "http://hl7.org/fhir/5.0/StructureDefinition/extension-DiagnosticReport.composition",
            "valueReference": {
              "reference": "urn:uuid:2861eeb8-967d-403b-bfd6-d4e4423c0f53"
            }
          }
        ],
        "category": [
          {
            "coding": [
              {
                "code": "26436-6",
                "system": "http://loinc.org",
                "display": "Laboratory studies (set)"
              }
            ]
          }
        ],
        "specimen": [
          {
            "reference": "urn:uuid:96511b9b-a9d2-4f38-8af6-27e1c884c1ec"
          },
          {
            "reference": "urn:uuid:0e302807-7ad7-46d5-92bc-bcd4293f87fa"
          }
        ],
        "result": [
          {
            "reference": "urn:uuid:8bc36509-910c-4c10-8e62-b596cb75ee0a"
          },
          {
            "reference": "urn:uuid:0298835b-ce5d-4de5-8585-010ae00d29c3"
          },
          {
            "reference": "urn:uuid:32a39896-0df2-4a04-b6d0-c5d6803c4635"
          },
          {
            "reference": "urn:uuid:556430d3-540b-4b0c-9b55-d817d6fb6463"
          },
          {
            "reference": "urn:uuid:a68e1327-ca4b-4822-9d8a-616eb863654b"
          },
          {
            "reference": "urn:uuid:8a81696d-000c-4587-acfd-cb6efd4c9b22"
          },
          {
            "reference": "urn:uuid:3459be99-9b36-4e86-ae47-5d4f960264c5"
          },
          {
            "reference": "urn:uuid:f8e0957e-5117-4fc6-8197-45003db98803"
          },
          {
            "reference": "urn:uuid:7ffe68d2-affc-436d-8cf1-e6f629e28007"
          },
          {
            "reference": "urn:uuid:70774cb3-3a6e-4563-b03a-42641e4b9b01"
          },
          {
            "reference": "urn:uuid:b231d41c-fa36-495c-a6e5-480fbbe3d7c9"
          },
          {
            "reference": "urn:uuid:2b890cd6-db4e-4145-8a2b-64dd2b6e9e3c"
          },
          {
            "reference": "urn:uuid:48b6e646-9b59-4bec-944f-56d81f3521de"
          },
          {
            "reference": "urn:uuid:39ff3188-b59c-479a-bb98-837c5a41c28a"
          },
          {
            "reference": "urn:uuid:bacac376-507d-4062-afd7-fc2b95f95f24"
          },
          {
            "reference": "urn:uuid:f6ef242d-13e4-4e09-b3b3-c630efc53769"
          },
          {
            "reference": "urn:uuid:ba529bfa-2a40-40c0-8a44-aa6862f14cac"
          },
          {
            "reference": "urn:uuid:ca0c2f1d-edaf-4c52-af24-6959e002db5d"
          },
          {
            "reference": "urn:uuid:68170e67-1dcb-435c-a9fe-075b47ceb24e"
          },
          {
            "reference": "urn:uuid:5509f14a-3927-4c3a-a153-a1217dbc9687"
          },
          {
            "reference": "urn:uuid:b7e24465-d7c9-4e8e-be05-0e24660f964f"
          },
          {
            "reference": "urn:uuid:079b15d7-127a-4124-a25b-d83fcfd504d7"
          },
          {
            "reference": "urn:uuid:dda258b3-1f5c-4ced-beb3-97f68407462c"
          },
          {
            "reference": "urn:uuid:4398af05-6ddc-4a8f-85e6-cb3a55e31c3a"
          },
          {
            "reference": "urn:uuid:626c14df-140f-42e9-b299-b9f0f23280fb"
          }
        ],
        "status": "registered",
        "code": {
          "coding": [
            {
              "code": "11502-2",
              "system": "http://loinc.org",
              "display": "Laboratory report"
            }
          ]
        },
        "subject": {
          "reference": "urn:uuid:c826ebbf-f9d1-484f-876a-0625097c09ea",
          "display": "Marthe Gallet"
        }
      }
    },
    {
      "fullUrl": "urn:uuid:c826ebbf-f9d1-484f-876a-0625097c09ea",
      "resource": {
        "resourceType": "Patient",
        "id": "c826ebbf-f9d1-484f-876a-0625097c09ea",
        "meta": {
          "security": [
            {
              "system": "http://terminology.hl7.org/CodeSystem/v3-ActReason",
              "code": "HTEST"
            },
            {
              "system": "http://terminology.hl7.org/CodeSystem/v3-ActReason",
              "code": "TRAIN"
            }
          ],
          "tag": [
            {
              "system": "https://synderai.net/fhir/CodeSystem/tags",
              "code": "synthetic",
              "display": "SYNDERAI Synthetic data"
            }
          ],
          "profile": [
            "http://hl7.eu/fhir/base/StructureDefinition/patient-eu-core"
          ]
        },
        "identifier": [
          {
            "type": {
              "coding": [
                {
                  "code": "PT",
                  "system": "http://terminology.hl7.org/CodeSystem/v2-0203"
                }
              ]
            },
            "system": "http://ec.europa.eu/identifier/eci",
            "value": "9444-947487-6"
          },
          {
            "type": {
              "coding": [
                {
                  "code": "MR",
                  "system": "http://terminology.hl7.org/CodeSystem/v2-0203"
                }
              ]
            },
            "system": "http://local.setting.eu/identifier",
            "value": "854228d5-a476-2d9c-a1d7-c3202375a617"
          }
        ],
        "name": [
          {
            "family": "Gallet"
          },
          {
            "given": [
              "Marthe"
            ]
          },
          {
            "text": "Marthe Gallet"
          }
        ],
        "address": [
          {
            "line": [
              "3, rue Emmanuel Goncalves"
            ],
            "use": "home",
            "type": "physical",
            "postalCode": "49490",
            "city": "Briand",
            "country": "France"
          }
        ],
        "telecom": [
          {
            "system": "phone",
            "value": "+33 1 70 99 82 74"
          }
        ],
        "extension": [
          {
            "url": "http://hl7.org/fhir/StructureDefinition/patient-nationality",
            "valueCodeableConcept": {
              "coding": [
                {
                  "code": "FR",
                  "system": "http://hl7.org/fhir/ValueSet/country"
                }
              ]
            }
          }
        ],
        "text": {
          "status": "generated",
          "div": "<div xmlns=\"http://www.w3.org/1999/xhtml\"><table class=\"hl7__ips\"><tr><td>Marthe Gallet</td><td>female</td><td>29-Oct-1950</td></tr></table></div>"
        },
        "gender": "female",
        "birthDate": "1950-10-29"
      }
    },
    {
      "fullUrl": "urn:uuid:3ddb159d-b24e-4cf2-9a7d-68aa1163a67f",
      "resource": {
        "resourceType": "ServiceRequest",
        "id": "3ddb159d-b24e-4cf2-9a7d-68aa1163a67f",
        "meta": {
          "profile": [
            "http://hl7.eu/fhir/laboratory/StructureDefinition/ServiceRequest-eu-lab"
          ]
        },
        "identifier": [
          {
            "system": "http://example.org",
            "value": "34788c1b-23ea-46d7-bd4d-badd508df209"
          }
        ],
        "specimen": [
          {
            "reference": "urn:uuid:96511b9b-a9d2-4f38-8af6-27e1c884c1ec"
          },
          {
            "reference": "urn:uuid:0e302807-7ad7-46d5-92bc-bcd4293f87fa"
          }
        ],
        "reasonCode": [
          {
            "coding": [
              {
                "code": "431856006",
                "system": "http://snomed.info/sct",
                "display": "Chronic kidney disease stage 2"
              }
            ]
          },
          {
            "coding": [
              {
                "code": "90781000119102",
                "system": "http://snomed.info/sct",
                "display": "Microalbuminuria due to type 2 diabetes mellitus"
              }
            ]
          },
          {
            "coding": [
              {
                "code": "127013003",
                "system": "http://snomed.info/sct",
                "display": "Disorder of kidney due to diabetes mellitus"
              }
            ]
          },
          {
            "coding": [
              {
                "code": "431855005",
                "system": "http://snomed.info/sct",
                "display": "Chronic kidney disease stage 1"
              }
            ]
          },
          {
            "coding": [
              {
                "code": "55822004",
                "system": "http://snomed.info/sct",
                "display": "Hyperlipidemia"
              }
            ]
          },
          {
            "coding": [
              {
                "code": "59621000",
                "system": "http://snomed.info/sct",
                "display": "Essential hypertension"
              }
            ]
          }
        ],
        "status": "active",
        "intent": "order",
        "code": {
          "coding": [
            {
              "code": "108252007",
              "system": "http://snomed.info/sct",
              "display": "Laboratory procedure"
            }
          ]
        },
        "subject": {
          "reference": "urn:uuid:c826ebbf-f9d1-484f-876a-0625097c09ea",
          "display": "Marthe Gallet"
        },
        "requester": {
          "reference": "urn:uuid:2ee18b00-bb6f-4055-8d58-a573901ca91e"
        }
      }
    },
    {
      "fullUrl": "urn:uuid:2ee18b00-bb6f-4055-8d58-a573901ca91e",
      "resource": {
        "resourceType": "PractitionerRole",
        "id": "2ee18b00-bb6f-4055-8d58-a573901ca91e",
        "meta": {
          "profile": [
            "http://hl7.eu/fhir/base/StructureDefinition/practitionerRole-eu"
          ]
        },
        "text": {
          "status": "generated",
          "div": "<div xmlns=\"http://www.w3.org/1999/xhtml\">Provider Role Id: 2ee18b00-bb6f-4055-8d58-a573901ca91e</div>"
        },
        "organization": {
          "reference": "urn:uuid:5338cf24-a062-4581-9672-57e6054a0398"
        }
      }
    },
    {
      "fullUrl": "urn:uuid:5338cf24-a062-4581-9672-57e6054a0398",
      "resource": {
        "resourceType": "Organization",
        "id": "5338cf24-a062-4581-9672-57e6054a0398",
        "meta": {
          "profile": [
            "http://hl7.eu/fhir/base/StructureDefinition/organization-eu"
          ]
        },
        "identifier": [
          {
            "assigner": {
              "display": "HL7 Europe"
            },
            "system": "urn:oid:2.16.840.1.113883.2.51.999",
            "value": "7a229a88-f1fc-418c-985f-e84cbba306a4"
          }
        ],
        "address": [
          {
            "line": [
              "Rue Larrey nan"
            ],
            "city": "Angers",
            "postalCode": "49100",
            "country": "France"
          }
        ],
        "text": {
          "status": "generated",
          "div": "<div xmlns=\"http://www.w3.org/1999/xhtml\">Provider Organization: CHU d&#039;Angers</div>"
        },
        "name": "CHU d&#039;Angers"
      }
    },
    {
      "fullUrl": "urn:uuid:96511b9b-a9d2-4f38-8af6-27e1c884c1ec",
      "resource": {
        "resourceType": "Specimen",
        "id": "96511b9b-a9d2-4f38-8af6-27e1c884c1ec",
        "meta": {
          "profile": [
            "http://hl7.eu/fhir/laboratory/StructureDefinition/Specimen-eu-lab"
          ]
        },
        "collection": {
          "collectedDateTime": "2023-10-19"
        },
        "text": {
          "status": "generated",
          "div": "<div xmlns=\"http://www.w3.org/1999/xhtml\"><table class=\"hl7__eu__lab__report\"><tr><th>Specimen</th><th>Collection Date</th></tr><tr><td>Acellular blood (serum or plasma) specimen</td><td><span class=\"nb\">19-Oct-2023</span></td></tr></table></div>"
        },
        "type": {
          "coding": [
            {
              "code": "122592007",
              "system": "http://snomed.info/sct",
              "display": "Acellular blood (serum or plasma) specimen"
            }
          ]
        }
      }
    },
    {
      "fullUrl": "urn:uuid:0e302807-7ad7-46d5-92bc-bcd4293f87fa",
      "resource": {
        "resourceType": "Specimen",
        "id": "0e302807-7ad7-46d5-92bc-bcd4293f87fa",
        "meta": {
          "profile": [
            "http://hl7.eu/fhir/laboratory/StructureDefinition/Specimen-eu-lab"
          ]
        },
        "collection": {
          "collectedDateTime": "2023-10-19"
        },
        "text": {
          "status": "generated",
          "div": "<div xmlns=\"http://www.w3.org/1999/xhtml\"><table class=\"hl7__eu__lab__report\"><tr><th>Specimen</th><th>Collection Date</th></tr><tr><td>Urine specimen</td><td><span class=\"nb\">19-Oct-2023</span></td></tr></table></div>"
        },
        "type": {
          "coding": [
            {
              "code": "122575003",
              "system": "http://snomed.info/sct",
              "display": "Urine specimen"
            }
          ]
        }
      }
    },
    {
      "fullUrl": "urn:uuid:8bc36509-910c-4c10-8e62-b596cb75ee0a",
      "resource": {
        "resourceType": "Observation",
        "id": "8bc36509-910c-4c10-8e62-b596cb75ee0a",
        "meta": {
          "profile": [
            "http://hl7.eu/fhir/laboratory/StructureDefinition/Observation-resultslab-eu-lab"
          ]
        },
        "performer": [
          {
            "display": "The Central European Lab"
          }
        ],
        "category": [
          {
            "coding": [
              {
                "system": "http://terminology.hl7.org/CodeSystem/observation-category",
                "code": "laboratory"
              }
            ]
          }
        ],
        "code": {
          "coding": [
            {
              "code": "2345-7",
              "system": "http://loinc.org",
              "display": "Glucose [Mass/volume] in Serum or Plasma"
            }
          ],
          "text": "Glucose [Mass/volume] in Serum or Plasma"
        },
        "valueQuantity": {
          "system": "http://unitsofmeasure.org",
          "value": 78.7,
          "unit": "mg/dL",
          "code": "mg/dL"
        },
        "referenceRange": [
          {
            "low": {
              "value": 70,
              "code": "mg/dL",
              "system": "http://unitsofmeasure.org"
            }
          },
          {
            "high": {
              "value": 140,
              "code": "mg/dL",
              "system": "http://unitsofmeasure.org"
            }
          }
        ],
        "text": {
          "status": "generated",
          "div": "<div xmlns=\"http://www.w3.org/1999/xhtml\"><table class=\"hl7__eu__lab__report\"><tr><th>Test</th><th>19-Oct-2023</th><th>Reference&#xA0;Range</th><th>Unit</th></tr><tr><td>Glucose [Mass/volume] in Serum or Plasma</td><td>78.7</td><td>70 - 140</td><td></td><td>mg/dL</td></tr></table></div>"
        },
        "status": "final",
        "subject": {
          "reference": "urn:uuid:c826ebbf-f9d1-484f-876a-0625097c09ea",
          "display": "Marthe Gallet"
        },
        "effectiveDateTime": "2023-10-19T19:05:43Z",
        "specimen": {
          "reference": "urn:uuid:96511b9b-a9d2-4f38-8af6-27e1c884c1ec"
        }
      }
    },
    {
      "fullUrl": "urn:uuid:0298835b-ce5d-4de5-8585-010ae00d29c3",
      "resource": {
        "resourceType": "Observation",
        "id": "0298835b-ce5d-4de5-8585-010ae00d29c3",
        "meta": {
          "profile": [
            "http://hl7.eu/fhir/laboratory/StructureDefinition/Observation-resultslab-eu-lab"
          ]
        },
        "performer": [
          {
            "display": "The Central European Lab"
          }
        ],
        "category": [
          {
            "coding": [
              {
                "system": "http://terminology.hl7.org/CodeSystem/observation-category",
                "code": "laboratory"
              }
            ]
          }
        ],
        "code": {
          "coding": [
            {
              "code": "3094-0",
              "system": "http://loinc.org",
              "display": "Urea nitrogen [Mass/volume] in Serum or Plasma"
            }
          ],
          "text": "Urea nitrogen [Mass/volume] in Serum or Plasma"
        },
        "valueQuantity": {
          "system": "http://unitsofmeasure.org",
          "value": 7.5,
          "unit": "mg/dL",
          "code": "mg/dL"
        },
        "referenceRange": [
          {
            "low": {
              "value": 7,
              "code": "mg/dL",
              "system": "http://unitsofmeasure.org"
            }
          },
          {
            "high": {
              "value": 50,
              "code": "mg/dL",
              "system": "http://unitsofmeasure.org"
            }
          }
        ],
        "text": {
          "status": "generated",
          "div": "<div xmlns=\"http://www.w3.org/1999/xhtml\"><table class=\"hl7__eu__lab__report\"><tr><th>Test</th><th>19-Oct-2023</th><th>Reference&#xA0;Range</th><th>Unit</th></tr><tr><td>Urea nitrogen [Mass/volume] in Serum or Plasma</td><td>7.5</td><td>7 - 50</td><td></td><td>mg/dL</td></tr></table></div>"
        },
        "status": "final",
        "subject": {
          "reference": "urn:uuid:c826ebbf-f9d1-484f-876a-0625097c09ea",
          "display": "Marthe Gallet"
        },
        "effectiveDateTime": "2023-10-19T19:05:43Z",
        "specimen": {
          "reference": "urn:uuid:96511b9b-a9d2-4f38-8af6-27e1c884c1ec"
        }
      }
    },
    {
      "fullUrl": "urn:uuid:32a39896-0df2-4a04-b6d0-c5d6803c4635",
      "resource": {
        "resourceType": "Observation",
        "id": "32a39896-0df2-4a04-b6d0-c5d6803c4635",
        "meta": {
          "profile": [
            "http://hl7.eu/fhir/laboratory/StructureDefinition/Observation-resultslab-eu-lab"
          ]
        },
        "performer": [
          {
            "display": "The Central European Lab"
          }
        ],
        "category": [
          {
            "coding": [
              {
                "system": "http://terminology.hl7.org/CodeSystem/observation-category",
                "code": "laboratory"
              }
            ]
          }
        ],
        "code": {
          "coding": [
            {
              "code": "2160-0",
              "system": "http://loinc.org",
              "display": "Creatinine [Mass/volume] in Serum or Plasma"
            }
          ],
          "text": "Creatinine [Mass/volume] in Serum or Plasma"
        },
        "valueQuantity": {
          "system": "http://unitsofmeasure.org",
          "value": 2.1,
          "unit": "mg/dL",
          "code": "mg/dL"
        },
        "referenceRange": [
          {
            "low": {
              "value": 0.6,
              "code": "mg/dL",
              "system": "http://unitsofmeasure.org"
            }
          },
          {
            "high": {
              "value": 1.1,
              "code": "mg/dL",
              "system": "http://unitsofmeasure.org"
            }
          }
        ],
        "interpretation": [
          {
            "coding": [
              {
                "code": "H",
                "system": "http://terminology.hl7.org/CodeSystem/v3-ObservationInterpretation",
                "display": "High"
              }
            ]
          }
        ],
        "text": {
          "status": "generated",
          "div": "<div xmlns=\"http://www.w3.org/1999/xhtml\"><table class=\"hl7__eu__lab__report\"><tr><th>Test</th><th>19-Oct-2023</th><th>Reference&#xA0;Range</th><th>Unit</th></tr><tr><td>Creatinine [Mass/volume] in Serum or Plasma</td><td>2.1</td><td>0.6 - 1.1</td><td>H</td><td>mg/dL</td></tr></table></div>"
        },
        "status": "final",
        "subject": {
          "reference": "urn:uuid:c826ebbf-f9d1-484f-876a-0625097c09ea",
          "display": "Marthe Gallet"
        },
        "effectiveDateTime": "2023-10-19T19:05:43Z",
        "specimen": {
          "reference": "urn:uuid:96511b9b-a9d2-4f38-8af6-27e1c884c1ec"
        }
      }
    },
    {
      "fullUrl": "urn:uuid:556430d3-540b-4b0c-9b55-d817d6fb6463",
      "resource": {
        "resourceType": "Observation",
        "id": "556430d3-540b-4b0c-9b55-d817d6fb6463",
        "meta": {
          "profile": [
            "http://hl7.eu/fhir/laboratory/StructureDefinition/Observation-resultslab-eu-lab"
          ]
        },
        "performer": [
          {
            "display": "The Central European Lab"
          }
        ],
        "category": [
          {
            "coding": [
              {
                "system": "http://terminology.hl7.org/CodeSystem/observation-category",
                "code": "laboratory"
              }
            ]
          }
        ],
        "code": {
          "coding": [
            {
              "code": "17861-6",
              "system": "http://loinc.org",
              "display": "Calcium [Mass/volume] in Serum or Plasma"
            }
          ],
          "text": "Calcium [Mass/volume] in Serum or Plasma"
        },
        "valueQuantity": {
          "system": "http://unitsofmeasure.org",
          "value": 9.5,
          "unit": "mg/dL",
          "code": "mg/dL"
        },
        "referenceRange": [
          {
            "low": {
              "value": 8.5,
              "code": "mg/dL",
              "system": "http://unitsofmeasure.org"
            }
          },
          {
            "high": {
              "value": 10.5,
              "code": "mg/dL",
              "system": "http://unitsofmeasure.org"
            }
          }
        ],
        "text": {
          "status": "generated",
          "div": "<div xmlns=\"http://www.w3.org/1999/xhtml\"><table class=\"hl7__eu__lab__report\"><tr><th>Test</th><th>19-Oct-2023</th><th>Reference&#xA0;Range</th><th>Unit</th></tr><tr><td>Calcium [Mass/volume] in Serum or Plasma</td><td>9.5</td><td>8.5 - 10.5</td><td></td><td>mg/dL</td></tr></table></div>"
        },
        "status": "final",
        "subject": {
          "reference": "urn:uuid:c826ebbf-f9d1-484f-876a-0625097c09ea",
          "display": "Marthe Gallet"
        },
        "effectiveDateTime": "2023-10-19T19:05:43Z",
        "specimen": {
          "reference": "urn:uuid:96511b9b-a9d2-4f38-8af6-27e1c884c1ec"
        }
      }
    },
    {
      "fullUrl": "urn:uuid:a68e1327-ca4b-4822-9d8a-616eb863654b",
      "resource": {
        "resourceType": "Observation",
        "id": "a68e1327-ca4b-4822-9d8a-616eb863654b",
        "meta": {
          "profile": [
            "http://hl7.eu/fhir/laboratory/StructureDefinition/Observation-resultslab-eu-lab"
          ]
        },
        "performer": [
          {
            "display": "The Central European Lab"
          }
        ],
        "category": [
          {
            "coding": [
              {
                "system": "http://terminology.hl7.org/CodeSystem/observation-category",
                "code": "laboratory"
              }
            ]
          }
        ],
        "code": {
          "coding": [
            {
              "code": "2951-2",
              "system": "http://loinc.org",
              "display": "Sodium [Moles/volume] in Serum or Plasma"
            }
          ],
          "text": "Sodium [Moles/volume] in Serum or Plasma"
        },
        "valueQuantity": {
          "system": "http://unitsofmeasure.org",
          "value": 140.1,
          "unit": "mmol/L",
          "code": "mmol/L"
        },
        "referenceRange": [
          {
            "low": {
              "value": 135,
              "code": "mmol/L",
              "system": "http://unitsofmeasure.org"
            }
          },
          {
            "high": {
              "value": 145,
              "code": "mmol/L",
              "system": "http://unitsofmeasure.org"
            }
          }
        ],
        "text": {
          "status": "generated",
          "div": "<div xmlns=\"http://www.w3.org/1999/xhtml\"><table class=\"hl7__eu__lab__report\"><tr><th>Test</th><th>19-Oct-2023</th><th>Reference&#xA0;Range</th><th>Unit</th></tr><tr><td>Sodium [Moles/volume] in Serum or Plasma</td><td>140.1</td><td>135 - 145</td><td></td><td>mmol/L</td></tr></table></div>"
        },
        "status": "final",
        "subject": {
          "reference": "urn:uuid:c826ebbf-f9d1-484f-876a-0625097c09ea",
          "display": "Marthe Gallet"
        },
        "effectiveDateTime": "2023-10-19T19:05:43Z",
        "specimen": {
          "reference": "urn:uuid:96511b9b-a9d2-4f38-8af6-27e1c884c1ec"
        }
      }
    },
    {
      "fullUrl": "urn:uuid:8a81696d-000c-4587-acfd-cb6efd4c9b22",
      "resource": {
        "resourceType": "Observation",
        "id": "8a81696d-000c-4587-acfd-cb6efd4c9b22",
        "meta": {
          "profile": [
            "http://hl7.eu/fhir/laboratory/StructureDefinition/Observation-resultslab-eu-lab"
          ]
        },
        "performer": [
          {
            "display": "The Central European Lab"
          }
        ],
        "category": [
          {
            "coding": [
              {
                "system": "http://terminology.hl7.org/CodeSystem/observation-category",
                "code": "laboratory"
              }
            ]
          }
        ],
        "code": {
          "coding": [
            {
              "code": "2823-3",
              "system": "http://loinc.org",
              "display": "Potassium [Moles/volume] in Serum or Plasma"
            }
          ],
          "text": "Potassium [Moles/volume] in Serum or Plasma"
        },
        "valueQuantity": {
          "system": "http://unitsofmeasure.org",
          "value": 4.3,
          "unit": "mmol/L",
          "code": "mmol/L"
        },
        "referenceRange": [
          {
            "low": {
              "value": 3.5,
              "code": "mmol/L",
              "system": "http://unitsofmeasure.org"
            }
          },
          {
            "high": {
              "value": 5.1,
              "code": "mmol/L",
              "system": "http://unitsofmeasure.org"
            }
          }
        ],
        "text": {
          "status": "generated",
          "div": "<div xmlns=\"http://www.w3.org/1999/xhtml\"><table class=\"hl7__eu__lab__report\"><tr><th>Test</th><th>19-Oct-2023</th><th>Reference&#xA0;Range</th><th>Unit</th></tr><tr><td>Potassium [Moles/volume] in Serum or Plasma</td><td>4.3</td><td>3.5 - 5.1</td><td></td><td>mmol/L</td></tr></table></div>"
        },
        "status": "final",
        "subject": {
          "reference": "urn:uuid:c826ebbf-f9d1-484f-876a-0625097c09ea",
          "display": "Marthe Gallet"
        },
        "effectiveDateTime": "2023-10-19T19:05:43Z",
        "specimen": {
          "reference": "urn:uuid:96511b9b-a9d2-4f38-8af6-27e1c884c1ec"
        }
      }
    },
    {
      "fullUrl": "urn:uuid:3459be99-9b36-4e86-ae47-5d4f960264c5",
      "resource": {
        "resourceType": "Observation",
        "id": "3459be99-9b36-4e86-ae47-5d4f960264c5",
        "meta": {
          "profile": [
            "http://hl7.eu/fhir/laboratory/StructureDefinition/Observation-resultslab-eu-lab"
          ]
        },
        "performer": [
          {
            "display": "The Central European Lab"
          }
        ],
        "category": [
          {
            "coding": [
              {
                "system": "http://terminology.hl7.org/CodeSystem/observation-category",
                "code": "laboratory"
              }
            ]
          }
        ],
        "code": {
          "coding": [
            {
              "code": "2075-0",
              "system": "http://loinc.org",
              "display": "Chloride [Moles/volume] in Serum or Plasma"
            }
          ],
          "text": "Chloride [Moles/volume] in Serum or Plasma"
        },
        "valueQuantity": {
          "system": "http://unitsofmeasure.org",
          "value": 105.4,
          "unit": "mmol/L",
          "code": "mmol/L"
        },
        "referenceRange": [
          {
            "low": {
              "value": 98,
              "code": "mmol/L",
              "system": "http://unitsofmeasure.org"
            }
          },
          {
            "high": {
              "value": 108,
              "code": "mmol/L",
              "system": "http://unitsofmeasure.org"
            }
          }
        ],
        "text": {
          "status": "generated",
          "div": "<div xmlns=\"http://www.w3.org/1999/xhtml\"><table class=\"hl7__eu__lab__report\"><tr><th>Test</th><th>19-Oct-2023</th><th>Reference&#xA0;Range</th><th>Unit</th></tr><tr><td>Chloride [Moles/volume] in Serum or Plasma</td><td>105.4</td><td>98 - 108</td><td></td><td>mmol/L</td></tr></table></div>"
        },
        "status": "final",
        "subject": {
          "reference": "urn:uuid:c826ebbf-f9d1-484f-876a-0625097c09ea",
          "display": "Marthe Gallet"
        },
        "effectiveDateTime": "2023-10-19T19:05:43Z",
        "specimen": {
          "reference": "urn:uuid:96511b9b-a9d2-4f38-8af6-27e1c884c1ec"
        }
      }
    },
    {
      "fullUrl": "urn:uuid:f8e0957e-5117-4fc6-8197-45003db98803",
      "resource": {
        "resourceType": "Observation",
        "id": "f8e0957e-5117-4fc6-8197-45003db98803",
        "meta": {
          "profile": [
            "http://hl7.eu/fhir/laboratory/StructureDefinition/Observation-resultslab-eu-lab"
          ]
        },
        "performer": [
          {
            "display": "The Central European Lab"
          }
        ],
        "category": [
          {
            "coding": [
              {
                "system": "http://terminology.hl7.org/CodeSystem/observation-category",
                "code": "laboratory"
              }
            ]
          }
        ],
        "code": {
          "coding": [
            {
              "code": "2028-9",
              "system": "http://loinc.org",
              "display": "Carbon dioxide, total [Moles/volume] in Serum or Plasma"
            }
          ],
          "text": "Carbon dioxide, total [Moles/volume] in Serum or Plasma"
        },
        "valueQuantity": {
          "system": "http://unitsofmeasure.org",
          "value": 28.5,
          "unit": "mmol/L",
          "code": "mmol/L"
        },
        "referenceRange": [
          {
            "low": {
              "value": 22,
              "code": "mmol/L",
              "system": "http://unitsofmeasure.org"
            }
          },
          {
            "high": {
              "value": 32,
              "code": "mmol/L",
              "system": "http://unitsofmeasure.org"
            }
          }
        ],
        "text": {
          "status": "generated",
          "div": "<div xmlns=\"http://www.w3.org/1999/xhtml\"><table class=\"hl7__eu__lab__report\"><tr><th>Test</th><th>19-Oct-2023</th><th>Reference&#xA0;Range</th><th>Unit</th></tr><tr><td>Carbon dioxide, total [Moles/volume] in Serum or Plasma</td><td>28.5</td><td>22 - 32</td><td></td><td>mmol/L</td></tr></table></div>"
        },
        "status": "final",
        "subject": {
          "reference": "urn:uuid:c826ebbf-f9d1-484f-876a-0625097c09ea",
          "display": "Marthe Gallet"
        },
        "effectiveDateTime": "2023-10-19T19:05:43Z",
        "specimen": {
          "reference": "urn:uuid:96511b9b-a9d2-4f38-8af6-27e1c884c1ec"
        }
      }
    },
    {
      "fullUrl": "urn:uuid:7ffe68d2-affc-436d-8cf1-e6f629e28007",
      "resource": {
        "resourceType": "Observation",
        "id": "7ffe68d2-affc-436d-8cf1-e6f629e28007",
        "meta": {
          "profile": [
            "http://hl7.eu/fhir/laboratory/StructureDefinition/Observation-resultslab-eu-lab"
          ]
        },
        "performer": [
          {
            "display": "The Central European Lab"
          }
        ],
        "category": [
          {
            "coding": [
              {
                "system": "http://terminology.hl7.org/CodeSystem/observation-category",
                "code": "laboratory"
              }
            ]
          }
        ],
        "code": {
          "coding": [
            {
              "code": "5767-9",
              "system": "http://loinc.org",
              "display": "Appearance of Urine"
            }
          ],
          "text": "Appearance of Urine"
        },
        "text": {
          "status": "generated",
          "div": "<div xmlns=\"http://www.w3.org/1999/xhtml\"><table class=\"hl7__eu__lab__report\"><tr><th>Test</th><th>19-Oct-2023</th><th>Reference&#xA0;Range</th><th>Unit</th></tr><tr><td>Appearance of Urine</td></tr></table></div>"
        },
        "status": "final",
        "subject": {
          "reference": "urn:uuid:c826ebbf-f9d1-484f-876a-0625097c09ea",
          "display": "Marthe Gallet"
        },
        "effectiveDateTime": "2023-10-19T19:05:43Z",
        "specimen": {
          "reference": "urn:uuid:0e302807-7ad7-46d5-92bc-bcd4293f87fa"
        }
      }
    },
    {
      "fullUrl": "urn:uuid:70774cb3-3a6e-4563-b03a-42641e4b9b01",
      "resource": {
        "resourceType": "Observation",
        "id": "70774cb3-3a6e-4563-b03a-42641e4b9b01",
        "meta": {
          "profile": [
            "http://hl7.eu/fhir/laboratory/StructureDefinition/Observation-resultslab-eu-lab"
          ]
        },
        "performer": [
          {
            "display": "The Central European Lab"
          }
        ],
        "category": [
          {
            "coding": [
              {
                "system": "http://terminology.hl7.org/CodeSystem/observation-category",
                "code": "laboratory"
              }
            ]
          }
        ],
        "code": {
          "coding": [
            {
              "code": "34533-0",
              "system": "http://loinc.org",
              "display": "Odor of Urine"
            }
          ],
          "text": "Odor of Urine"
        },
        "text": {
          "status": "generated",
          "div": "<div xmlns=\"http://www.w3.org/1999/xhtml\"><table class=\"hl7__eu__lab__report\"><tr><th>Test</th><th>19-Oct-2023</th><th>Reference&#xA0;Range</th><th>Unit</th></tr><tr><td>Odor of Urine</td></tr></table></div>"
        },
        "status": "final",
        "subject": {
          "reference": "urn:uuid:c826ebbf-f9d1-484f-876a-0625097c09ea",
          "display": "Marthe Gallet"
        },
        "effectiveDateTime": "2023-10-19T19:05:43Z",
        "specimen": {
          "reference": "urn:uuid:0e302807-7ad7-46d5-92bc-bcd4293f87fa"
        }
      }
    },
    {
      "fullUrl": "urn:uuid:b231d41c-fa36-495c-a6e5-480fbbe3d7c9",
      "resource": {
        "resourceType": "Observation",
        "id": "b231d41c-fa36-495c-a6e5-480fbbe3d7c9",
        "meta": {
          "profile": [
            "http://hl7.eu/fhir/laboratory/StructureDefinition/Observation-resultslab-eu-lab"
          ]
        },
        "performer": [
          {
            "display": "The Central European Lab"
          }
        ],
        "category": [
          {
            "coding": [
              {
                "system": "http://terminology.hl7.org/CodeSystem/observation-category",
                "code": "laboratory"
              }
            ]
          }
        ],
        "code": {
          "coding": [
            {
              "code": "32167-9",
              "system": "http://loinc.org",
              "display": "Clarity of Urine"
            }
          ],
          "text": "Clarity of Urine"
        },
        "text": {
          "status": "generated",
          "div": "<div xmlns=\"http://www.w3.org/1999/xhtml\"><table class=\"hl7__eu__lab__report\"><tr><th>Test</th><th>19-Oct-2023</th><th>Reference&#xA0;Range</th><th>Unit</th></tr><tr><td>Clarity of Urine</td></tr></table></div>"
        },
        "status": "final",
        "subject": {
          "reference": "urn:uuid:c826ebbf-f9d1-484f-876a-0625097c09ea",
          "display": "Marthe Gallet"
        },
        "effectiveDateTime": "2023-10-19T19:05:43Z",
        "specimen": {
          "reference": "urn:uuid:0e302807-7ad7-46d5-92bc-bcd4293f87fa"
        }
      }
    },
    {
      "fullUrl": "urn:uuid:2b890cd6-db4e-4145-8a2b-64dd2b6e9e3c",
      "resource": {
        "resourceType": "Observation",
        "id": "2b890cd6-db4e-4145-8a2b-64dd2b6e9e3c",
        "meta": {
          "profile": [
            "http://hl7.eu/fhir/laboratory/StructureDefinition/Observation-resultslab-eu-lab"
          ]
        },
        "performer": [
          {
            "display": "The Central European Lab"
          }
        ],
        "category": [
          {
            "coding": [
              {
                "system": "http://terminology.hl7.org/CodeSystem/observation-category",
                "code": "laboratory"
              }
            ]
          }
        ],
        "code": {
          "coding": [
            {
              "code": "5778-6",
              "system": "http://loinc.org",
              "display": "Color of Urine"
            }
          ],
          "text": "Color of Urine"
        },
        "text": {
          "status": "generated",
          "div": "<div xmlns=\"http://www.w3.org/1999/xhtml\"><table class=\"hl7__eu__lab__report\"><tr><th>Test</th><th>19-Oct-2023</th><th>Reference&#xA0;Range</th><th>Unit</th></tr><tr><td>Color of Urine</td></tr></table></div>"
        },
        "status": "final",
        "subject": {
          "reference": "urn:uuid:c826ebbf-f9d1-484f-876a-0625097c09ea",
          "display": "Marthe Gallet"
        },
        "effectiveDateTime": "2023-10-19T19:05:43Z",
        "specimen": {
          "reference": "urn:uuid:0e302807-7ad7-46d5-92bc-bcd4293f87fa"
        }
      }
    },
    {
      "fullUrl": "urn:uuid:48b6e646-9b59-4bec-944f-56d81f3521de",
      "resource": {
        "resourceType": "Observation",
        "id": "48b6e646-9b59-4bec-944f-56d81f3521de",
        "meta": {
          "profile": [
            "http://hl7.eu/fhir/laboratory/StructureDefinition/Observation-resultslab-eu-lab"
          ]
        },
        "performer": [
          {
            "display": "The Central European Lab"
          }
        ],
        "category": [
          {
            "coding": [
              {
                "system": "http://terminology.hl7.org/CodeSystem/observation-category",
                "code": "laboratory"
              }
            ]
          }
        ],
        "code": {
          "coding": [
            {
              "code": "5792-7",
              "system": "http://loinc.org",
              "display": "Glucose [Mass/volume] in Urine by Test strip"
            }
          ],
          "text": "Glucose [Mass/volume] in Urine by Test strip"
        },
        "valueQuantity": {
          "system": "http://unitsofmeasure.org",
          "value": 1.7,
          "unit": "mg/dL",
          "code": "mg/dL"
        },
        "referenceRange": [
          {
            "low": {
              "value": 0.8,
              "code": "mg/dL",
              "system": "http://unitsofmeasure.org"
            }
          },
          {
            "high": {
              "value": 0,
              "code": "mg/dL",
              "system": "http://unitsofmeasure.org"
            }
          }
        ],
        "interpretation": [
          {
            "coding": [
              {
                "code": "H",
                "system": "http://terminology.hl7.org/CodeSystem/v3-ObservationInterpretation",
                "display": "High"
              }
            ]
          }
        ],
        "text": {
          "status": "generated",
          "div": "<div xmlns=\"http://www.w3.org/1999/xhtml\"><table class=\"hl7__eu__lab__report\"><tr><th>Test</th><th>19-Oct-2023</th><th>Reference&#xA0;Range</th><th>Unit</th></tr><tr><td>Glucose [Mass/volume] in Urine by Test strip</td><td>1.7</td><td>0.8 - 0</td><td>H</td><td>mg/dL</td></tr></table></div>"
        },
        "status": "final",
        "subject": {
          "reference": "urn:uuid:c826ebbf-f9d1-484f-876a-0625097c09ea",
          "display": "Marthe Gallet"
        },
        "effectiveDateTime": "2023-10-19T19:05:43Z",
        "specimen": {
          "reference": "urn:uuid:0e302807-7ad7-46d5-92bc-bcd4293f87fa"
        }
      }
    },
    {
      "fullUrl": "urn:uuid:39ff3188-b59c-479a-bb98-837c5a41c28a",
      "resource": {
        "resourceType": "Observation",
        "id": "39ff3188-b59c-479a-bb98-837c5a41c28a",
        "meta": {
          "profile": [
            "http://hl7.eu/fhir/laboratory/StructureDefinition/Observation-resultslab-eu-lab"
          ]
        },
        "performer": [
          {
            "display": "The Central European Lab"
          }
        ],
        "category": [
          {
            "coding": [
              {
                "system": "http://terminology.hl7.org/CodeSystem/observation-category",
                "code": "laboratory"
              }
            ]
          }
        ],
        "code": {
          "coding": [
            {
              "code": "25428-4",
              "system": "http://loinc.org",
              "display": "Glucose [Presence] in Urine by Test strip"
            }
          ],
          "text": "Glucose [Presence] in Urine by Test strip"
        },
        "text": {
          "status": "generated",
          "div": "<div xmlns=\"http://www.w3.org/1999/xhtml\"><table class=\"hl7__eu__lab__report\"><tr><th>Test</th><th>19-Oct-2023</th><th>Reference&#xA0;Range</th><th>Unit</th></tr><tr><td>Glucose [Presence] in Urine by Test strip</td></tr></table></div>"
        },
        "status": "final",
        "subject": {
          "reference": "urn:uuid:c826ebbf-f9d1-484f-876a-0625097c09ea",
          "display": "Marthe Gallet"
        },
        "effectiveDateTime": "2023-10-19T19:05:43Z",
        "specimen": {
          "reference": "urn:uuid:0e302807-7ad7-46d5-92bc-bcd4293f87fa"
        }
      }
    },
    {
      "fullUrl": "urn:uuid:bacac376-507d-4062-afd7-fc2b95f95f24",
      "resource": {
        "resourceType": "Observation",
        "id": "bacac376-507d-4062-afd7-fc2b95f95f24",
        "meta": {
          "profile": [
            "http://hl7.eu/fhir/laboratory/StructureDefinition/Observation-resultslab-eu-lab"
          ]
        },
        "performer": [
          {
            "display": "The Central European Lab"
          }
        ],
        "category": [
          {
            "coding": [
              {
                "system": "http://terminology.hl7.org/CodeSystem/observation-category",
                "code": "laboratory"
              }
            ]
          }
        ],
        "code": {
          "coding": [
            {
              "code": "20505-4",
              "system": "http://loinc.org",
              "display": "Bilirubin.total [Mass/volume] in Urine by Test strip"
            }
          ],
          "text": "Bilirubin.total [Mass/volume] in Urine by Test strip"
        },
        "valueQuantity": {
          "system": "http://unitsofmeasure.org",
          "value": 0.3,
          "unit": "mg/dL",
          "code": "mg/dL"
        },
        "referenceRange": [
          {
            "low": {
              "value": 0,
              "code": "mg/dL",
              "system": "http://unitsofmeasure.org"
            }
          },
          {
            "high": {
              "value": 1,
              "code": "mg/dL",
              "system": "http://unitsofmeasure.org"
            }
          }
        ],
        "text": {
          "status": "generated",
          "div": "<div xmlns=\"http://www.w3.org/1999/xhtml\"><table class=\"hl7__eu__lab__report\"><tr><th>Test</th><th>19-Oct-2023</th><th>Reference&#xA0;Range</th><th>Unit</th></tr><tr><td>Bilirubin.total [Mass/volume] in Urine by Test strip</td><td>0.3</td><td>0 - 1</td><td></td><td>mg/dL</td></tr></table></div>"
        },
        "status": "final",
        "subject": {
          "reference": "urn:uuid:c826ebbf-f9d1-484f-876a-0625097c09ea",
          "display": "Marthe Gallet"
        },
        "effectiveDateTime": "2023-10-19T19:05:43Z",
        "specimen": {
          "reference": "urn:uuid:0e302807-7ad7-46d5-92bc-bcd4293f87fa"
        }
      }
    },
    {
      "fullUrl": "urn:uuid:f6ef242d-13e4-4e09-b3b3-c630efc53769",
      "resource": {
        "resourceType": "Observation",
        "id": "f6ef242d-13e4-4e09-b3b3-c630efc53769",
        "meta": {
          "profile": [
            "http://hl7.eu/fhir/laboratory/StructureDefinition/Observation-resultslab-eu-lab"
          ]
        },
        "performer": [
          {
            "display": "The Central European Lab"
          }
        ],
        "category": [
          {
            "coding": [
              {
                "system": "http://terminology.hl7.org/CodeSystem/observation-category",
                "code": "laboratory"
              }
            ]
          }
        ],
        "code": {
          "coding": [
            {
              "code": "5770-3",
              "system": "http://loinc.org",
              "display": "Bilirubin.total [Presence] in Urine by Test strip"
            }
          ],
          "text": "Bilirubin.total [Presence] in Urine by Test strip"
        },
        "text": {
          "status": "generated",
          "div": "<div xmlns=\"http://www.w3.org/1999/xhtml\"><table class=\"hl7__eu__lab__report\"><tr><th>Test</th><th>19-Oct-2023</th><th>Reference&#xA0;Range</th><th>Unit</th></tr><tr><td>Bilirubin.total [Presence] in Urine by Test strip</td></tr></table></div>"
        },
        "status": "final",
        "subject": {
          "reference": "urn:uuid:c826ebbf-f9d1-484f-876a-0625097c09ea",
          "display": "Marthe Gallet"
        },
        "effectiveDateTime": "2023-10-19T19:05:43Z",
        "specimen": {
          "reference": "urn:uuid:0e302807-7ad7-46d5-92bc-bcd4293f87fa"
        }
      }
    },
    {
      "fullUrl": "urn:uuid:ba529bfa-2a40-40c0-8a44-aa6862f14cac",
      "resource": {
        "resourceType": "Observation",
        "id": "ba529bfa-2a40-40c0-8a44-aa6862f14cac",
        "meta": {
          "profile": [
            "http://hl7.eu/fhir/laboratory/StructureDefinition/Observation-resultslab-eu-lab"
          ]
        },
        "performer": [
          {
            "display": "The Central European Lab"
          }
        ],
        "category": [
          {
            "coding": [
              {
                "system": "http://terminology.hl7.org/CodeSystem/observation-category",
                "code": "laboratory"
              }
            ]
          }
        ],
        "code": {
          "coding": [
            {
              "code": "5797-6",
              "system": "http://loinc.org",
              "display": "Ketones [Mass/volume] in Urine by Test strip"
            }
          ],
          "text": "Ketones [Mass/volume] in Urine by Test strip"
        },
        "valueQuantity": {
          "system": "http://unitsofmeasure.org",
          "value": 15.1,
          "unit": "mg/dL",
          "code": "mg/dL"
        },
        "referenceRange": [
          {
            "low": {
              "value": 0,
              "code": "mg/dL",
              "system": "http://unitsofmeasure.org"
            }
          },
          {
            "high": {
              "value": 20,
              "code": "mg/dL",
              "system": "http://unitsofmeasure.org"
            }
          }
        ],
        "text": {
          "status": "generated",
          "div": "<div xmlns=\"http://www.w3.org/1999/xhtml\"><table class=\"hl7__eu__lab__report\"><tr><th>Test</th><th>19-Oct-2023</th><th>Reference&#xA0;Range</th><th>Unit</th></tr><tr><td>Ketones [Mass/volume] in Urine by Test strip</td><td>15.1</td><td>0 - 20</td><td></td><td>mg/dL</td></tr></table></div>"
        },
        "status": "final",
        "subject": {
          "reference": "urn:uuid:c826ebbf-f9d1-484f-876a-0625097c09ea",
          "display": "Marthe Gallet"
        },
        "effectiveDateTime": "2023-10-19T19:05:43Z",
        "specimen": {
          "reference": "urn:uuid:0e302807-7ad7-46d5-92bc-bcd4293f87fa"
        }
      }
    },
    {
      "fullUrl": "urn:uuid:ca0c2f1d-edaf-4c52-af24-6959e002db5d",
      "resource": {
        "resourceType": "Observation",
        "id": "ca0c2f1d-edaf-4c52-af24-6959e002db5d",
        "meta": {
          "profile": [
            "http://hl7.eu/fhir/laboratory/StructureDefinition/Observation-resultslab-eu-lab"
          ]
        },
        "performer": [
          {
            "display": "The Central European Lab"
          }
        ],
        "category": [
          {
            "coding": [
              {
                "system": "http://terminology.hl7.org/CodeSystem/observation-category",
                "code": "laboratory"
              }
            ]
          }
        ],
        "code": {
          "coding": [
            {
              "code": "2514-8",
              "system": "http://loinc.org",
              "display": "Ketones [Presence] in Urine by Test strip"
            }
          ],
          "text": "Ketones [Presence] in Urine by Test strip"
        },
        "text": {
          "status": "generated",
          "div": "<div xmlns=\"http://www.w3.org/1999/xhtml\"><table class=\"hl7__eu__lab__report\"><tr><th>Test</th><th>19-Oct-2023</th><th>Reference&#xA0;Range</th><th>Unit</th></tr><tr><td>Ketones [Presence] in Urine by Test strip</td></tr></table></div>"
        },
        "status": "final",
        "subject": {
          "reference": "urn:uuid:c826ebbf-f9d1-484f-876a-0625097c09ea",
          "display": "Marthe Gallet"
        },
        "effectiveDateTime": "2023-10-19T19:05:43Z",
        "specimen": {
          "reference": "urn:uuid:0e302807-7ad7-46d5-92bc-bcd4293f87fa"
        }
      }
    },
    {
      "fullUrl": "urn:uuid:68170e67-1dcb-435c-a9fe-075b47ceb24e",
      "resource": {
        "resourceType": "Observation",
        "id": "68170e67-1dcb-435c-a9fe-075b47ceb24e",
        "meta": {
          "profile": [
            "http://hl7.eu/fhir/laboratory/StructureDefinition/Observation-resultslab-eu-lab"
          ]
        },
        "performer": [
          {
            "display": "The Central European Lab"
          }
        ],
        "category": [
          {
            "coding": [
              {
                "system": "http://terminology.hl7.org/CodeSystem/observation-category",
                "code": "laboratory"
              }
            ]
          }
        ],
        "code": {
          "coding": [
            {
              "code": "5811-5",
              "system": "http://loinc.org",
              "display": "Specific gravity of Urine by Test strip"
            }
          ],
          "text": "Specific gravity of Urine by Test strip"
        },
        "valueQuantity": {
          "system": "http://unitsofmeasure.org",
          "value": 1,
          "unit": "{nominal}",
          "code": "{nominal}"
        },
        "referenceRange": [
          {
            "low": {
              "value": 1.01,
              "code": "g/mL",
              "system": "http://unitsofmeasure.org"
            }
          },
          {
            "high": {
              "value": 1.03,
              "code": "g/mL",
              "system": "http://unitsofmeasure.org"
            }
          }
        ],
        "interpretation": [
          {
            "coding": [
              {
                "code": "L",
                "system": "http://terminology.hl7.org/CodeSystem/v3-ObservationInterpretation",
                "display": "Low"
              }
            ]
          }
        ],
        "text": {
          "status": "generated",
          "div": "<div xmlns=\"http://www.w3.org/1999/xhtml\"><table class=\"hl7__eu__lab__report\"><tr><th>Test</th><th>19-Oct-2023</th><th>Reference&#xA0;Range</th><th>Unit</th></tr><tr><td>Specific gravity of Urine by Test strip</td><td>1.0</td><td>1.01 - 1.03</td><td>L</td><td>{nominal}</td></tr></table></div>"
        },
        "status": "final",
        "subject": {
          "reference": "urn:uuid:c826ebbf-f9d1-484f-876a-0625097c09ea",
          "display": "Marthe Gallet"
        },
        "effectiveDateTime": "2023-10-19T19:05:43Z",
        "specimen": {
          "reference": "urn:uuid:0e302807-7ad7-46d5-92bc-bcd4293f87fa"
        }
      }
    },
    {
      "fullUrl": "urn:uuid:5509f14a-3927-4c3a-a153-a1217dbc9687",
      "resource": {
        "resourceType": "Observation",
        "id": "5509f14a-3927-4c3a-a153-a1217dbc9687",
        "meta": {
          "profile": [
            "http://hl7.eu/fhir/laboratory/StructureDefinition/Observation-resultslab-eu-lab"
          ]
        },
        "performer": [
          {
            "display": "The Central European Lab"
          }
        ],
        "category": [
          {
            "coding": [
              {
                "system": "http://terminology.hl7.org/CodeSystem/observation-category",
                "code": "laboratory"
              }
            ]
          }
        ],
        "code": {
          "coding": [
            {
              "code": "5803-2",
              "system": "http://loinc.org",
              "display": "pH of Urine by Test strip"
            }
          ],
          "text": "pH of Urine by Test strip"
        },
        "valueQuantity": {
          "system": "http://unitsofmeasure.org",
          "value": 6.6,
          "unit": "pH",
          "code": "pH"
        },
        "referenceRange": [
          {
            "low": {
              "value": 4.6,
              "code": "pH",
              "system": "http://unitsofmeasure.org"
            }
          },
          {
            "high": {
              "value": 7,
              "code": "pH",
              "system": "http://unitsofmeasure.org"
            }
          }
        ],
        "text": {
          "status": "generated",
          "div": "<div xmlns=\"http://www.w3.org/1999/xhtml\"><table class=\"hl7__eu__lab__report\"><tr><th>Test</th><th>19-Oct-2023</th><th>Reference&#xA0;Range</th><th>Unit</th></tr><tr><td>pH of Urine by Test strip</td><td>6.6</td><td>4.6 - 7</td><td></td><td>pH</td></tr></table></div>"
        },
        "status": "final",
        "subject": {
          "reference": "urn:uuid:c826ebbf-f9d1-484f-876a-0625097c09ea",
          "display": "Marthe Gallet"
        },
        "effectiveDateTime": "2023-10-19T19:05:43Z",
        "specimen": {
          "reference": "urn:uuid:0e302807-7ad7-46d5-92bc-bcd4293f87fa"
        }
      }
    },
    {
      "fullUrl": "urn:uuid:b7e24465-d7c9-4e8e-be05-0e24660f964f",
      "resource": {
        "resourceType": "Observation",
        "id": "b7e24465-d7c9-4e8e-be05-0e24660f964f",
        "meta": {
          "profile": [
            "http://hl7.eu/fhir/laboratory/StructureDefinition/Observation-resultslab-eu-lab"
          ]
        },
        "performer": [
          {
            "display": "The Central European Lab"
          }
        ],
        "category": [
          {
            "coding": [
              {
                "system": "http://terminology.hl7.org/CodeSystem/observation-category",
                "code": "laboratory"
              }
            ]
          }
        ],
        "code": {
          "coding": [
            {
              "code": "5804-0",
              "system": "http://loinc.org",
              "display": "Protein [Mass/volume] in Urine by Test strip"
            }
          ],
          "text": "Protein [Mass/volume] in Urine by Test strip"
        },
        "valueQuantity": {
          "system": "http://unitsofmeasure.org",
          "value": 209.6,
          "unit": "mg/dL",
          "code": "mg/dL"
        },
        "referenceRange": [
          {
            "low": {
              "value": 0,
              "code": "mg/dL",
              "system": "http://unitsofmeasure.org"
            }
          },
          {
            "high": {
              "value": 15,
              "code": "mg/dL",
              "system": "http://unitsofmeasure.org"
            }
          }
        ],
        "interpretation": [
          {
            "coding": [
              {
                "code": "H",
                "system": "http://terminology.hl7.org/CodeSystem/v3-ObservationInterpretation",
                "display": "High"
              }
            ]
          }
        ],
        "text": {
          "status": "generated",
          "div": "<div xmlns=\"http://www.w3.org/1999/xhtml\"><table class=\"hl7__eu__lab__report\"><tr><th>Test</th><th>19-Oct-2023</th><th>Reference&#xA0;Range</th><th>Unit</th></tr><tr><td>Protein [Mass/volume] in Urine by Test strip</td><td>209.6</td><td>0 - 15</td><td>H</td><td>mg/dL</td></tr></table></div>"
        },
        "status": "final",
        "subject": {
          "reference": "urn:uuid:c826ebbf-f9d1-484f-876a-0625097c09ea",
          "display": "Marthe Gallet"
        },
        "effectiveDateTime": "2023-10-19T19:05:43Z",
        "specimen": {
          "reference": "urn:uuid:0e302807-7ad7-46d5-92bc-bcd4293f87fa"
        }
      }
    },
    {
      "fullUrl": "urn:uuid:079b15d7-127a-4124-a25b-d83fcfd504d7",
      "resource": {
        "resourceType": "Observation",
        "id": "079b15d7-127a-4124-a25b-d83fcfd504d7",
        "meta": {
          "profile": [
            "http://hl7.eu/fhir/laboratory/StructureDefinition/Observation-resultslab-eu-lab"
          ]
        },
        "performer": [
          {
            "display": "The Central European Lab"
          }
        ],
        "category": [
          {
            "coding": [
              {
                "system": "http://terminology.hl7.org/CodeSystem/observation-category",
                "code": "laboratory"
              }
            ]
          }
        ],
        "code": {
          "coding": [
            {
              "code": "20454-5",
              "system": "http://loinc.org",
              "display": "Protein [Presence] in Urine by Test strip"
            }
          ],
          "text": "Protein [Presence] in Urine by Test strip"
        },
        "text": {
          "status": "generated",
          "div": "<div xmlns=\"http://www.w3.org/1999/xhtml\"><table class=\"hl7__eu__lab__report\"><tr><th>Test</th><th>19-Oct-2023</th><th>Reference&#xA0;Range</th><th>Unit</th></tr><tr><td>Protein [Presence] in Urine by Test strip</td></tr></table></div>"
        },
        "status": "final",
        "subject": {
          "reference": "urn:uuid:c826ebbf-f9d1-484f-876a-0625097c09ea",
          "display": "Marthe Gallet"
        },
        "effectiveDateTime": "2023-10-19T19:05:43Z",
        "specimen": {
          "reference": "urn:uuid:0e302807-7ad7-46d5-92bc-bcd4293f87fa"
        }
      }
    },
    {
      "fullUrl": "urn:uuid:dda258b3-1f5c-4ced-beb3-97f68407462c",
      "resource": {
        "resourceType": "Observation",
        "id": "dda258b3-1f5c-4ced-beb3-97f68407462c",
        "meta": {
          "profile": [
            "http://hl7.eu/fhir/laboratory/StructureDefinition/Observation-resultslab-eu-lab"
          ]
        },
        "performer": [
          {
            "display": "The Central European Lab"
          }
        ],
        "category": [
          {
            "coding": [
              {
                "system": "http://terminology.hl7.org/CodeSystem/observation-category",
                "code": "laboratory"
              }
            ]
          }
        ],
        "code": {
          "coding": [
            {
              "code": "5802-4",
              "system": "http://loinc.org",
              "display": "Nitrite [Presence] in Urine by Test strip"
            }
          ],
          "text": "Nitrite [Presence] in Urine by Test strip"
        },
        "text": {
          "status": "generated",
          "div": "<div xmlns=\"http://www.w3.org/1999/xhtml\"><table class=\"hl7__eu__lab__report\"><tr><th>Test</th><th>19-Oct-2023</th><th>Reference&#xA0;Range</th><th>Unit</th></tr><tr><td>Nitrite [Presence] in Urine by Test strip</td></tr></table></div>"
        },
        "status": "final",
        "subject": {
          "reference": "urn:uuid:c826ebbf-f9d1-484f-876a-0625097c09ea",
          "display": "Marthe Gallet"
        },
        "effectiveDateTime": "2023-10-19T19:05:43Z",
        "specimen": {
          "reference": "urn:uuid:0e302807-7ad7-46d5-92bc-bcd4293f87fa"
        }
      }
    },
    {
      "fullUrl": "urn:uuid:4398af05-6ddc-4a8f-85e6-cb3a55e31c3a",
      "resource": {
        "resourceType": "Observation",
        "id": "4398af05-6ddc-4a8f-85e6-cb3a55e31c3a",
        "meta": {
          "profile": [
            "http://hl7.eu/fhir/laboratory/StructureDefinition/Observation-resultslab-eu-lab"
          ]
        },
        "performer": [
          {
            "display": "The Central European Lab"
          }
        ],
        "category": [
          {
            "coding": [
              {
                "system": "http://terminology.hl7.org/CodeSystem/observation-category",
                "code": "laboratory"
              }
            ]
          }
        ],
        "code": {
          "coding": [
            {
              "code": "5794-3",
              "system": "http://loinc.org",
              "display": "Hemoglobin [Presence] in Urine by Test strip"
            }
          ],
          "text": "Hemoglobin [Presence] in Urine by Test strip"
        },
        "text": {
          "status": "generated",
          "div": "<div xmlns=\"http://www.w3.org/1999/xhtml\"><table class=\"hl7__eu__lab__report\"><tr><th>Test</th><th>19-Oct-2023</th><th>Reference&#xA0;Range</th><th>Unit</th></tr><tr><td>Hemoglobin [Presence] in Urine by Test strip</td></tr></table></div>"
        },
        "status": "final",
        "subject": {
          "reference": "urn:uuid:c826ebbf-f9d1-484f-876a-0625097c09ea",
          "display": "Marthe Gallet"
        },
        "effectiveDateTime": "2023-10-19T19:05:43Z",
        "specimen": {
          "reference": "urn:uuid:0e302807-7ad7-46d5-92bc-bcd4293f87fa"
        }
      }
    },
    {
      "fullUrl": "urn:uuid:626c14df-140f-42e9-b299-b9f0f23280fb",
      "resource": {
        "resourceType": "Observation",
        "id": "626c14df-140f-42e9-b299-b9f0f23280fb",
        "meta": {
          "profile": [
            "http://hl7.eu/fhir/laboratory/StructureDefinition/Observation-resultslab-eu-lab"
          ]
        },
        "performer": [
          {
            "display": "The Central European Lab"
          }
        ],
        "category": [
          {
            "coding": [
              {
                "system": "http://terminology.hl7.org/CodeSystem/observation-category",
                "code": "laboratory"
              }
            ]
          }
        ],
        "code": {
          "coding": [
            {
              "code": "5799-2",
              "system": "http://loinc.org",
              "display": "Leukocyte esterase [Presence] in Urine by Test strip"
            }
          ],
          "text": "Leukocyte esterase [Presence] in Urine by Test strip"
        },
        "text": {
          "status": "generated",
          "div": "<div xmlns=\"http://www.w3.org/1999/xhtml\"><table class=\"hl7__eu__lab__report\"><tr><th>Test</th><th>19-Oct-2023</th><th>Reference&#xA0;Range</th><th>Unit</th></tr><tr><td>Leukocyte esterase [Presence] in Urine by Test strip</td></tr></table></div>"
        },
        "status": "final",
        "subject": {
          "reference": "urn:uuid:c826ebbf-f9d1-484f-876a-0625097c09ea",
          "display": "Marthe Gallet"
        },
        "effectiveDateTime": "2023-10-19T19:05:43Z",
        "specimen": {
          "reference": "urn:uuid:0e302807-7ad7-46d5-92bc-bcd4293f87fa"
        }
      }
    },
    {
      "fullUrl": "urn:uuid:91cb1b30-fb81-4413-993b-c7754cf993d5",
      "resource": {
        "resourceType": "Device",
        "id": "91cb1b30-fb81-4413-993b-c7754cf993d5",
        "deviceName": [
          {
            "name": "SYNDERAI Synthetic Generator",
            "type": "manufacturer-name"
          }
        ],
        "version": [
          {
            "value": "5.0"
          }
        ],
        "text": {
          "status": "generated",
          "div": "<div xmlns=\"http://www.w3.org/1999/xhtml\">SYNDERAI Synthetic Generator v5.0</div>"
        },
        "status": "active\"",
        "distinctIdentifier": "synderai-generator-50",
        "manufacturer": "SYNDERAI Project"
      }
    },
    {
      "fullUrl": "urn:uuid:b4d18b1d-c0b6-46cb-bf74-fee337b2ed14",
      "resource": {
        "resourceType": "Provenance",
        "id": "b4d18b1d-c0b6-46cb-bf74-fee337b2ed14",
        "target": [
          {
            "reference": "Patient/c826ebbf-f9d1-484f-876a-0625097c09ea"
          },
          {
            "reference": "Bundle/df21fcbb-3253-4c46-a2d5-3f50fb75213d"
          },
          {
            "reference": "Composition/c3b72972-c8cc-4998-97c3-42394fc66489"
          },
          {
            "reference": "PractitionerRole/af3f26f1-4946-449e-89fe-26562ab7440c"
          },
          {
            "reference": "Practitioner/1e510052-5d81-4b70-9f73-e8b815100ded"
          },
          {
            "reference": "PractitionerRole/2ee18b00-bb6f-4055-8d58-a573901ca91e"
          },
          {
            "reference": "Organization/5338cf24-a062-4581-9672-57e6054a0398"
          }
        ],
        "activity": {
          "text": "Synthetic Example Data Generation"
        },
        "policy": [
          "https://synderai.net/synderai-synthetic-data-policy"
        ],
        "agent": [
          {
            "type": {
              "text": "author"
            },
            "who": {
              "reference": "Device/91cb1b30-fb81-4413-993b-c7754cf993d5"
            }
          }
        ],
        "reason": [
          {
            "text": "Interoperability Testing and Training (non-clinical use)"
          }
        ],
        "text": {
          "status": "generated",
          "div": "<div xmlns=\"http://www.w3.org/1999/xhtml\">Provenance for SYNDERAI Synthetic Example Data Resource</div>"
        },
        "recorded": "2023-10-19T21:05:43Z"
      }
    },
    {
      "fullUrl": "urn:uuid:af3f26f1-4946-449e-89fe-26562ab7440c",
      "resource": {
        "resourceType": "PractitionerRole",
        "id": "af3f26f1-4946-449e-89fe-26562ab7440c",
        "meta": {
          "profile": [
            "http://hl7.eu/fhir/base/StructureDefinition/practitionerRole-eu"
          ]
        },
        "text": {
          "status": "generated",
          "div": "<div xmlns=\"http://www.w3.org/1999/xhtml\">Laboratory Role Id: af3f26f1-4946-449e-89fe-26562ab7440c</div>"
        },
        "practitioner": {
          "reference": "urn:uuid:1e510052-5d81-4b70-9f73-e8b815100ded"
        }
      }
    },
    {
      "fullUrl": "urn:uuid:1e510052-5d81-4b70-9f73-e8b815100ded",
      "resource": {
        "resourceType": "Practitioner",
        "id": "1e510052-5d81-4b70-9f73-e8b815100ded",
        "meta": {
          "profile": [
            "http://hl7.eu/fhir/base/StructureDefinition/practitioner-eu"
          ]
        },
        "identifier": [
          {
            "assigner": {
              "display": "HL7 Europe"
            },
            "system": "urn:oid:2.16.840.1.113883.2.51.999",
            "value": "5444e703-7997-416d-8e3d-183e4767a2cf"
          }
        ],
        "name": [
          {
            "prefix": [
              "dr"
            ],
            "given": [
              "Ex"
            ],
            "family": "Ample"
          }
        ],
        "address": [
          {
            "line": [
              "Laboratoire Central Europenne",
              "Boulevard du Jardin Botanique 32"
            ],
            "postalCode": "1000",
            "city": "Brussels",
            "country": "Belgium"
          }
        ],
        "text": {
          "status": "generated",
          "div": "<div xmlns=\"http://www.w3.org/1999/xhtml\">Laboratory: Laboratoire Central Europenne, 1000 Brussels, Belgium</div>"
        }
      }
    }
  ],
  "type": "document",
  "timestamp": "2023-10-19T21:05:43Z"
}
