{
  "resourceType": "Bundle",
  "id": "86b3cacc-2bda-4619-a7b0-1df04f3d090a",
  "meta": {
    "profile": [
      "http://hl7.eu/fhir/laboratory/StructureDefinition/Bundle-eu-lab"
    ]
  },
  "identifier": {
    "assigner": {
      "display": "HL7 Europe"
    },
    "system": "urn:oid:2.16.840.1.113883.2.51.999",
    "value": "6735060c-c643-46a8-b2ec-af455c821c41"
  },
  "entry": [
    {
      "fullUrl": "urn:uuid:71529a92-d60f-43a6-bbb5-1242f4770ac7",
      "resource": {
        "resourceType": "Composition",
        "id": "71529a92-d60f-43a6-bbb5-1242f4770ac7",
        "meta": {
          "profile": [
            "http://hl7.eu/fhir/laboratory/StructureDefinition/Composition-eu-lab"
          ]
        },
        "identifier": {
          "assigner": {
            "display": "HL7 Europe"
          },
          "system": "urn:oid:2.16.840.1.113883.2.51.999",
          "value": "44073faa-da76-4a6e-89f2-947885eff416"
        },
        "author": [
          {
            "reference": "urn:uuid:33b0ad16-313e-4d20-812d-040358becc88"
          }
        ],
        "category": [
          {
            "coding": [
              {
                "code": "26436-6",
                "system": "http://loinc.org",
                "display": "Laboratory studies (set)"
              }
            ]
          }
        ],
        "type": {
          "coding": [
            {
              "code": "11502-2",
              "system": "http://loinc.org",
              "display": "Laboratory report"
            }
          ],
          "text": "Laboratory Report"
        },
        "section": [
          {
            "code": {
              "coding": [
                {
                  "code": "26436-6",
                  "system": "http://loinc.org",
                  "display": "Laboratory studies (set)"
                }
              ],
              "text": "Laboratory studies"
            },
            "section": [
              {
                "code": {
                  "coding": [
                    {
                      "code": "$18719-5",
                      "system": "http://loinc.org",
                      "display": "Chemistry studies (set)"
                    }
                  ],
                  "text": "Chemistry"
                },
                "entry": [
                  {
                    "reference": "urn:uuid:c6de0024-46db-4508-9dfe-a0c025ffc5cb"
                  },
                  {
                    "reference": "urn:uuid:22a0a0a5-f03a-45af-9cec-d97b718e2568"
                  },
                  {
                    "reference": "urn:uuid:e7e847ae-ee68-4230-a984-0fda2047857f"
                  },
                  {
                    "reference": "urn:uuid:c4482161-ee23-48db-9b07-eab60b3ca89a"
                  },
                  {
                    "reference": "urn:uuid:d297f88b-7de7-49d6-81bf-023b2c960d1a"
                  },
                  {
                    "reference": "urn:uuid:41716244-9d5b-4c34-b530-b89ffe01d7fa"
                  },
                  {
                    "reference": "urn:uuid:6d05c815-b6ec-4e4d-bdc9-588d99cbc030"
                  },
                  {
                    "reference": "urn:uuid:dffc2db4-1138-4d16-8f49-f709305a2cb1"
                  },
                  {
                    "reference": "urn:uuid:1cf069dc-a9a7-4e9d-bc9b-6e0b514dcc0e"
                  },
                  {
                    "reference": "urn:uuid:14b731a0-2384-488f-b699-6cdb213425b1"
                  },
                  {
                    "reference": "urn:uuid:5754cac9-7835-44ab-a439-b6a9df800925"
                  },
                  {
                    "reference": "urn:uuid:5e3c4449-0357-4968-9892-eb6e4fd946aa"
                  },
                  {
                    "reference": "urn:uuid:12b382f1-f875-446f-8d53-6c9c64511931"
                  },
                  {
                    "reference": "urn:uuid:f4aab73e-de93-4b93-89d0-7e620802aefb"
                  },
                  {
                    "reference": "urn:uuid:8009fcf9-d688-4b2e-9690-c20bf70ed08c"
                  },
                  {
                    "reference": "urn:uuid:20f4a9f6-06c1-4039-9d69-97b1d2130757"
                  },
                  {
                    "reference": "urn:uuid:01e91968-32ea-443b-a77a-e77bcdf25198"
                  },
                  {
                    "reference": "urn:uuid:e6f3c614-73dd-4d53-8e65-912e3c99d712"
                  },
                  {
                    "reference": "urn:uuid:771c3a3d-d39e-4e80-9e81-78026f6a4a1b"
                  },
                  {
                    "reference": "urn:uuid:7801c51f-88bd-43f8-90f1-87d920da77ad"
                  },
                  {
                    "reference": "urn:uuid:a94aeae9-ddb9-4bde-a6ef-2b81107e4f53"
                  },
                  {
                    "reference": "urn:uuid:01ec7c6c-9a76-45b5-b188-6555669c8366"
                  }
                ],
                "text": {
                  "status": "generated",
                  "div": "<div xmlns=\"http://www.w3.org/1999/xhtml\"><h3>Chemistry</h3><table class=\"hl7__eu__lab__report\"><thead><tr><th>Test</th><th>11-DEC-2023</th><th>Reference&#xA0;Range</th><th>Unit</th></tr></thead><tbody><tr><td>Glucose [Mass/volume] in Serum or Plasma</td><td>92.9</td><td>70 - 99</td><td>mg/dL</td></tr><tr><td>Urea nitrogen [Mass/volume] in Serum or Plasma</td><td>15.0</td><td>7 - 50</td><td>mg/dL</td></tr><tr><td>Creatinine [Mass/volume] in Serum or Plasma</td><td><strong>2.0 H</strong></td><td>0.6 - 1.1</td><td>mg/dL</td></tr><tr><td>Calcium [Mass/volume] in Serum or Plasma</td><td>8.7</td><td>8.6 - 10.4</td><td>mg/dL</td></tr><tr><td>Sodium [Moles/volume] in Serum or Plasma</td><td>140.8</td><td>135 - 145</td><td>mmol/L</td></tr><tr><td>Potassium [Moles/volume] in Serum or Plasma</td><td>4.0</td><td>3.5 - 5.1</td><td>mmol/L</td></tr><tr><td>Chloride [Moles/volume] in Serum or Plasma</td><td>103.8</td><td>98 - 108</td><td>mmol/L</td></tr><tr><td>Carbon dioxide, total [Moles/volume] in Serum or Plasma</td><td><strong>21.3 L</strong></td><td>22 - 32</td><td>mmol/L</td></tr><tr><td>Ketones [Presence] in Urine by Test strip</td><td>Urine ketone test = ++</td><td></td><td></td></tr><tr><td>Hemoglobin A1c/Hemoglobin.total in Blood</td><td>4.0</td><td>4 - 6.4</td><td>%</td></tr><tr><td>Glucose [Mass/volume] in Blood</td><td>92.9</td><td>70 - 100</td><td>mg/dL</td></tr><tr><td>Urea nitrogen [Mass/volume] in Blood</td><td>15.0</td><td>7 - 43</td><td>mg/dL</td></tr><tr><td>Creatinine [Mass/volume] in Blood</td><td><strong>2.8 H</strong></td><td>0.6 - 1.1</td><td>mg/dL</td></tr><tr><td>Calcium [Mass/volume] in Blood</td><td>8.7</td><td>8.5 - 10.5</td><td>mg/dL</td></tr><tr><td>Sodium [Moles/volume] in Blood</td><td>140.8</td><td>135 - 145</td><td>mmol/L</td></tr><tr><td>Potassium [Moles/volume] in Blood</td><td>4.0</td><td>3.5 - 5.1</td><td>mmol/L</td></tr><tr><td>Chloride [Moles/volume] in Blood</td><td>103.8</td><td>98 - 108</td><td>mmol/L</td></tr><tr><td>Carbon dioxide, total [Moles/volume] in Blood</td><td><strong>21.3 L</strong></td><td>22 - 29</td><td>mmol/L</td></tr><tr><td>Cholesterol [Mass/volume] in Serum or Plasma</td><td><strong>277.9 H</strong></td><td>125 - 239</td><td>mg/dL</td></tr><tr><td>Triglyceride [Mass/volume] in Serum or Plasma</td><td>135.0</td><td></td><td>mg/dL</td></tr><tr><td>Cholesterol in LDL [Mass/volume] in Serum or Plasma by Direct assay</td><td><strong>205.3 H</strong></td><td>0 - 130</td><td>mg/dL</td></tr><tr><td>Cholesterol in HDL [Mass/volume] in Serum or Plasma</td><td><strong>45.7 L</strong></td><td>50 - 100</td><td>mg/dL</td></tr></tbody></table></div>"
                },
                "title": "Chemistry"
              },
              {
                "code": {
                  "coding": [
                    {
                      "code": "$18729-4",
                      "system": "http://loinc.org",
                      "display": "Urinalysis studies (set)"
                    }
                  ],
                  "text": "Urinalysis"
                },
                "entry": [
                  {
                    "reference": "urn:uuid:4796e625-d534-4340-b7ee-b376399c392f"
                  },
                  {
                    "reference": "urn:uuid:c5f886cf-c66e-46fa-b42e-cf02eee22448"
                  },
                  {
                    "reference": "urn:uuid:94c0362f-324b-47c1-98f1-9247ac2897ba"
                  },
                  {
                    "reference": "urn:uuid:5525ba42-3e03-42bc-9e32-f2b54b25ab8f"
                  },
                  {
                    "reference": "urn:uuid:eb910597-da30-4ef7-87cb-272fec3f7376"
                  },
                  {
                    "reference": "urn:uuid:57924ac0-40ec-42ca-a5e9-f6b81f6d4b75"
                  },
                  {
                    "reference": "urn:uuid:76404e96-984e-4bde-935d-6293c78d1585"
                  },
                  {
                    "reference": "urn:uuid:b6ea4b3c-f77e-461e-932c-5173b12277b7"
                  },
                  {
                    "reference": "urn:uuid:b386d3d5-9d27-440a-a302-6452a3317aad"
                  },
                  {
                    "reference": "urn:uuid:27ead139-3e8e-4a51-9d0f-eedf22b92c2f"
                  },
                  {
                    "reference": "urn:uuid:dea88cb6-3af7-4c12-9f12-accd6569259b"
                  },
                  {
                    "reference": "urn:uuid:b4842323-2f17-41ff-a0e5-c321a744d19a"
                  }
                ],
                "text": {
                  "status": "generated",
                  "div": "<div xmlns=\"http://www.w3.org/1999/xhtml\"><h3>Urinalysis</h3><table class=\"hl7__eu__lab__report\"><thead><tr><th>Test</th><th>11-DEC-2023</th><th>Reference&#xA0;Range</th><th>Unit</th></tr></thead><tbody><tr><td>Glucose [Mass/volume] in Urine by Test strip</td><td><strong>2.3 H</strong></td><td>0.8 - 0</td><td>mg/dL</td></tr><tr><td>Glucose [Presence] in Urine by Test strip</td><td>++</td><td></td><td></td></tr><tr><td>Bilirubin.total [Mass/volume] in Urine by Test strip</td><td>0.8</td><td>0 - 1</td><td>mg/dL</td></tr><tr><td>Bilirubin.total [Presence] in Urine by Test strip</td><td>Finding of bilirubin in urine</td><td></td><td></td></tr><tr><td>Ketones [Mass/volume] in Urine by Test strip</td><td><strong>20.0 H</strong></td><td>0 - 4</td><td>mg/dL</td></tr><tr><td>Specific gravity of Urine by Test strip</td><td><strong>1.0 L</strong></td><td>1.005 - 1.03</td><td>{nominal}</td></tr><tr><td>pH of Urine by Test strip</td><td>6.2</td><td>4.6 - 7</td><td>pH</td></tr><tr><td>Protein [Mass/volume] in Urine by Test strip</td><td><strong>372.6 H</strong></td><td>0 - 14</td><td>mg/dL</td></tr><tr><td>Protein [Presence] in Urine by Test strip</td><td>Urine protein test = ++</td><td></td><td></td></tr><tr><td>Nitrite [Presence] in Urine by Test strip</td><td>Urine nitrite negative</td><td></td><td></td></tr><tr><td>Hemoglobin [Presence] in Urine by Test strip</td><td>Urine blood test = negative</td><td></td><td></td></tr><tr><td>Leukocyte esterase [Presence] in Urine by Test strip</td><td>Urine leukocyte test negative</td><td></td><td></td></tr></tbody></table></div>"
                },
                "title": "Urinalysis"
              },
              {
                "code": {
                  "coding": [
                    {
                      "code": "$LP7846-1",
                      "system": "http://loinc.org",
                      "display": "Specimen information"
                    }
                  ],
                  "text": "Specimen information"
                },
                "entry": [
                  {
                    "reference": "urn:uuid:26d9655b-76fb-4e77-8e14-0204fc50b268"
                  },
                  {
                    "reference": "urn:uuid:7877a631-f8ce-407c-87da-18fb36915e36"
                  },
                  {
                    "reference": "urn:uuid:08359dc6-602f-40e0-a5d7-bc9a77c2db95"
                  },
                  {
                    "reference": "urn:uuid:b5580096-9afa-4467-bd90-dbed3a429a28"
                  }
                ],
                "text": {
                  "status": "generated",
                  "div": "<div xmlns=\"http://www.w3.org/1999/xhtml\"><h3>Specimen information</h3><table class=\"hl7__eu__lab__report\"><thead><tr><th>Test</th><th>11-DEC-2023</th><th>Specimen</th><th></th></tr></thead><tbody><tr><td>Appearance of Urine</td><td>Cloudy urine</td><td>Urine</td><td></td></tr><tr><td>Odor of Urine</td><td>Urine smell ammoniacal</td><td>Urine</td><td></td></tr><tr><td>Clarity of Urine</td><td>Translucent</td><td>Urine</td><td></td></tr><tr><td>Color of Urine</td><td>Brown color</td><td>Urine</td><td></td></tr></tbody></table></div>"
                },
                "title": "Specimen information"
              }
            ],
            "title": "Laboratory Report"
          },
          {
            "text": {
              "status": "generated",
              "div": "<div xmlns=\"http://www.w3.org/1999/xhtml\"><h3>Annotation</h3><table class=\"hl7__eu__lab__report\"><tr><th>Conclusion and Recommendations based on this report and previous findings known to us</th></tr><tr><td>The patient shows elevated creatinine, proteinuria, and low urine specific gravity, suggesting impaired renal function, possibly chronic kidney disease. Urine is cloudy, brown, with ketonuria and glucosuria, but blood glucose and HbA1c are normal, indicating possible renal glycosuria and ketosis not due to diabetes. Lipid profile shows hypercholesterolemia and high LDL. Mild metabolic acidosis is suggested by low CO₂. Recommend nephrology evaluation and further assessment for underlying renal pathology and cardiovascular risk management.</td></tr></table></div>"
            },
            "code": {
              "coding": [
                {
                  "system": "http://loinc.org",
                  "code": "48767-8",
                  "display": "Annotation comment"
                }
              ]
            },
            "title": "Annotation comment"
          }
        ],
        "status": "final",
        "subject": {
          "reference": "urn:uuid:2cb8b2a8-c0a7-4ac7-ae88-67ffad52f545",
          "display": "Meaghan Neary"
        },
        "date": "2023-12-11T23:11:04Z",
        "title": "Laboratory Report",
        "confidentiality": "N"
      }
    },
    {
      "fullUrl": "urn:uuid:a9dcfd17-9137-46e9-8589-3511f3eaa4ae",
      "resource": {
        "resourceType": "DiagnosticReport",
        "id": "a9dcfd17-9137-46e9-8589-3511f3eaa4ae",
        "meta": {
          "profile": [
            "http://hl7.eu/fhir/laboratory/StructureDefinition/DiagnosticReport-eu-lab"
          ]
        },
        "identifier": [
          {
            "assigner": {
              "display": "HL7 Europe"
            },
            "system": "urn:oid:2.16.840.1.113883.2.51.999",
            "value": "a697ee24-1a29-4658-81a7-cf1c391f9e6c"
          }
        ],
        "extension": [
          {
            "url": "http://hl7.org/fhir/5.0/StructureDefinition/extension-DiagnosticReport.composition",
            "valueReference": {
              "reference": "urn:uuid:44073faa-da76-4a6e-89f2-947885eff416"
            }
          }
        ],
        "category": [
          {
            "coding": [
              {
                "code": "26436-6",
                "system": "http://loinc.org",
                "display": "Laboratory studies (set)"
              }
            ]
          }
        ],
        "specimen": [
          {
            "reference": "urn:uuid:9d118903-e763-47ab-89d4-2a5fb65f469f"
          },
          {
            "reference": "urn:uuid:6becc81b-6525-4747-bb89-301ed913ca8a"
          },
          {
            "reference": "urn:uuid:01a32ca0-a1c1-4a7d-89d5-818fd8f1d4c5"
          }
        ],
        "result": [
          {
            "reference": "urn:uuid:c6de0024-46db-4508-9dfe-a0c025ffc5cb"
          },
          {
            "reference": "urn:uuid:22a0a0a5-f03a-45af-9cec-d97b718e2568"
          },
          {
            "reference": "urn:uuid:e7e847ae-ee68-4230-a984-0fda2047857f"
          },
          {
            "reference": "urn:uuid:c4482161-ee23-48db-9b07-eab60b3ca89a"
          },
          {
            "reference": "urn:uuid:d297f88b-7de7-49d6-81bf-023b2c960d1a"
          },
          {
            "reference": "urn:uuid:41716244-9d5b-4c34-b530-b89ffe01d7fa"
          },
          {
            "reference": "urn:uuid:6d05c815-b6ec-4e4d-bdc9-588d99cbc030"
          },
          {
            "reference": "urn:uuid:dffc2db4-1138-4d16-8f49-f709305a2cb1"
          },
          {
            "reference": "urn:uuid:26d9655b-76fb-4e77-8e14-0204fc50b268"
          },
          {
            "reference": "urn:uuid:7877a631-f8ce-407c-87da-18fb36915e36"
          },
          {
            "reference": "urn:uuid:08359dc6-602f-40e0-a5d7-bc9a77c2db95"
          },
          {
            "reference": "urn:uuid:b5580096-9afa-4467-bd90-dbed3a429a28"
          },
          {
            "reference": "urn:uuid:4796e625-d534-4340-b7ee-b376399c392f"
          },
          {
            "reference": "urn:uuid:c5f886cf-c66e-46fa-b42e-cf02eee22448"
          },
          {
            "reference": "urn:uuid:94c0362f-324b-47c1-98f1-9247ac2897ba"
          },
          {
            "reference": "urn:uuid:5525ba42-3e03-42bc-9e32-f2b54b25ab8f"
          },
          {
            "reference": "urn:uuid:eb910597-da30-4ef7-87cb-272fec3f7376"
          },
          {
            "reference": "urn:uuid:1cf069dc-a9a7-4e9d-bc9b-6e0b514dcc0e"
          },
          {
            "reference": "urn:uuid:57924ac0-40ec-42ca-a5e9-f6b81f6d4b75"
          },
          {
            "reference": "urn:uuid:76404e96-984e-4bde-935d-6293c78d1585"
          },
          {
            "reference": "urn:uuid:b6ea4b3c-f77e-461e-932c-5173b12277b7"
          },
          {
            "reference": "urn:uuid:b386d3d5-9d27-440a-a302-6452a3317aad"
          },
          {
            "reference": "urn:uuid:27ead139-3e8e-4a51-9d0f-eedf22b92c2f"
          },
          {
            "reference": "urn:uuid:dea88cb6-3af7-4c12-9f12-accd6569259b"
          },
          {
            "reference": "urn:uuid:b4842323-2f17-41ff-a0e5-c321a744d19a"
          },
          {
            "reference": "urn:uuid:14b731a0-2384-488f-b699-6cdb213425b1"
          },
          {
            "reference": "urn:uuid:5754cac9-7835-44ab-a439-b6a9df800925"
          },
          {
            "reference": "urn:uuid:5e3c4449-0357-4968-9892-eb6e4fd946aa"
          },
          {
            "reference": "urn:uuid:12b382f1-f875-446f-8d53-6c9c64511931"
          },
          {
            "reference": "urn:uuid:f4aab73e-de93-4b93-89d0-7e620802aefb"
          },
          {
            "reference": "urn:uuid:8009fcf9-d688-4b2e-9690-c20bf70ed08c"
          },
          {
            "reference": "urn:uuid:20f4a9f6-06c1-4039-9d69-97b1d2130757"
          },
          {
            "reference": "urn:uuid:01e91968-32ea-443b-a77a-e77bcdf25198"
          },
          {
            "reference": "urn:uuid:e6f3c614-73dd-4d53-8e65-912e3c99d712"
          },
          {
            "reference": "urn:uuid:771c3a3d-d39e-4e80-9e81-78026f6a4a1b"
          },
          {
            "reference": "urn:uuid:7801c51f-88bd-43f8-90f1-87d920da77ad"
          },
          {
            "reference": "urn:uuid:a94aeae9-ddb9-4bde-a6ef-2b81107e4f53"
          },
          {
            "reference": "urn:uuid:01ec7c6c-9a76-45b5-b188-6555669c8366"
          }
        ],
        "status": "registered",
        "code": {
          "coding": [
            {
              "code": "11502-2",
              "system": "http://loinc.org",
              "display": "Laboratory report"
            }
          ]
        },
        "subject": {
          "reference": "urn:uuid:2cb8b2a8-c0a7-4ac7-ae88-67ffad52f545",
          "display": "Meaghan Neary"
        }
      }
    },
    {
      "fullUrl": "urn:uuid:2cb8b2a8-c0a7-4ac7-ae88-67ffad52f545",
      "resource": {
        "resourceType": "Patient",
        "id": "2cb8b2a8-c0a7-4ac7-ae88-67ffad52f545",
        "meta": {
          "security": [
            {
              "system": "http://terminology.hl7.org/CodeSystem/v3-ActReason",
              "code": "HTEST"
            },
            {
              "system": "http://terminology.hl7.org/CodeSystem/v3-ActReason",
              "code": "TRAIN"
            }
          ],
          "tag": [
            {
              "system": "https://synderai.net/fhir/CodeSystem/tags",
              "code": "synthetic",
              "display": "SYNDERAI Synthetic data"
            }
          ],
          "profile": [
            "http://hl7.eu/fhir/base/StructureDefinition/patient-eu-core"
          ]
        },
        "identifier": [
          {
            "type": {
              "coding": [
                {
                  "code": "PT",
                  "system": "http://terminology.hl7.org/CodeSystem/v2-0203"
                }
              ]
            },
            "system": "http://ec.europa.eu/identifier/eci",
            "value": "1586-567257-8"
          },
          {
            "type": {
              "coding": [
                {
                  "code": "MR",
                  "system": "http://terminology.hl7.org/CodeSystem/v2-0203"
                }
              ]
            },
            "system": "http://local.setting.eu/identifier",
            "value": "443e6379-f231-b364-3ccb-644740a1aa2a"
          }
        ],
        "name": [
          {
            "family": "Neary"
          },
          {
            "given": [
              "Meaghan"
            ]
          },
          {
            "text": "Meaghan Neary"
          }
        ],
        "address": [
          {
            "line": [
              "64 Linskey Street"
            ],
            "use": "home",
            "type": "physical",
            "postalCode": "D02",
            "city": "Dublin",
            "country": "Ireland"
          }
        ],
        "telecom": [
          {
            "system": "phone",
            "value": "001-967-573-0911x465"
          }
        ],
        "extension": [
          {
            "url": "http://hl7.org/fhir/StructureDefinition/patient-nationality",
            "valueCodeableConcept": {
              "coding": [
                {
                  "code": "IE",
                  "system": "http://hl7.org/fhir/ValueSet/country"
                }
              ]
            }
          }
        ],
        "text": {
          "status": "generated",
          "div": "<div xmlns=\"http://www.w3.org/1999/xhtml\"><table class=\"hl7__ips\"><tr><td>Meaghan Neary</td><td>female</td><td>19-Dec-1960</td></tr></table></div>"
        },
        "gender": "female",
        "birthDate": "1960-12-19"
      }
    },
    {
      "fullUrl": "urn:uuid:a161985e-0ca3-4e78-8b84-4d162f69d9e1",
      "resource": {
        "resourceType": "ServiceRequest",
        "id": "a161985e-0ca3-4e78-8b84-4d162f69d9e1",
        "meta": {
          "profile": [
            "http://hl7.eu/fhir/laboratory/StructureDefinition/ServiceRequest-eu-lab"
          ]
        },
        "identifier": [
          {
            "system": "http://example.org",
            "value": "ab8e6f95-819b-47da-bbb3-c76f8c5cb31c"
          }
        ],
        "specimen": [
          {
            "reference": "urn:uuid:9d118903-e763-47ab-89d4-2a5fb65f469f"
          },
          {
            "reference": "urn:uuid:6becc81b-6525-4747-bb89-301ed913ca8a"
          },
          {
            "reference": "urn:uuid:01a32ca0-a1c1-4a7d-89d5-818fd8f1d4c5"
          }
        ],
        "reasonCode": [
          {
            "coding": [
              {
                "code": "55822004",
                "system": "http://snomed.info/sct",
                "display": "Hyperlipidemia"
              }
            ]
          },
          {
            "coding": [
              {
                "code": "433144002",
                "system": "http://snomed.info/sct",
                "display": "Chronic kidney disease stage 3"
              }
            ]
          },
          {
            "coding": [
              {
                "code": "157141000119108",
                "system": "http://snomed.info/sct",
                "display": "Proteinuria due to type 2 diabetes mellitus"
              }
            ]
          },
          {
            "coding": [
              {
                "code": "431856006",
                "system": "http://snomed.info/sct",
                "display": "Chronic kidney disease stage 2"
              }
            ]
          },
          {
            "coding": [
              {
                "code": "90781000119102",
                "system": "http://snomed.info/sct",
                "display": "Microalbuminuria due to type 2 diabetes mellitus"
              }
            ]
          },
          {
            "coding": [
              {
                "code": "127013003",
                "system": "http://snomed.info/sct",
                "display": "Disorder of kidney due to diabetes mellitus"
              }
            ]
          },
          {
            "coding": [
              {
                "code": "431855005",
                "system": "http://snomed.info/sct",
                "display": "Chronic kidney disease stage 1"
              }
            ]
          },
          {
            "coding": [
              {
                "code": "237602007",
                "system": "http://snomed.info/sct",
                "display": "Metabolic syndrome X"
              }
            ]
          },
          {
            "coding": [
              {
                "code": "271737000",
                "system": "http://snomed.info/sct",
                "display": "Anemia"
              }
            ]
          },
          {
            "coding": [
              {
                "code": "15777000",
                "system": "http://snomed.info/sct",
                "display": "Prediabetes"
              }
            ]
          },
          {
            "coding": [
              {
                "code": "59621000",
                "system": "http://snomed.info/sct",
                "display": "Essential hypertension"
              }
            ]
          }
        ],
        "status": "active",
        "intent": "order",
        "code": {
          "coding": [
            {
              "code": "108252007",
              "system": "http://snomed.info/sct",
              "display": "Laboratory procedure"
            }
          ]
        },
        "subject": {
          "reference": "urn:uuid:2cb8b2a8-c0a7-4ac7-ae88-67ffad52f545",
          "display": "Meaghan Neary"
        },
        "requester": {
          "reference": "urn:uuid:d11925a0-2e90-48d3-b82a-8ad403786a07"
        }
      }
    },
    {
      "fullUrl": "urn:uuid:d11925a0-2e90-48d3-b82a-8ad403786a07",
      "resource": {
        "resourceType": "PractitionerRole",
        "id": "d11925a0-2e90-48d3-b82a-8ad403786a07",
        "meta": {
          "profile": [
            "http://hl7.eu/fhir/base/StructureDefinition/practitionerRole-eu"
          ]
        },
        "text": {
          "status": "generated",
          "div": "<div xmlns=\"http://www.w3.org/1999/xhtml\">Provider Role Id: d11925a0-2e90-48d3-b82a-8ad403786a07</div>"
        },
        "organization": {
          "reference": "urn:uuid:d3d0b9d6-8491-4e2c-bd81-c27eef12ce94"
        }
      }
    },
    {
      "fullUrl": "urn:uuid:d3d0b9d6-8491-4e2c-bd81-c27eef12ce94",
      "resource": {
        "resourceType": "Organization",
        "id": "d3d0b9d6-8491-4e2c-bd81-c27eef12ce94",
        "meta": {
          "profile": [
            "http://hl7.eu/fhir/base/StructureDefinition/organization-eu"
          ]
        },
        "identifier": [
          {
            "assigner": {
              "display": "HL7 Europe"
            },
            "system": "urn:oid:2.16.840.1.113883.2.51.999",
            "value": "d9af9070-2988-45b4-862a-b17f17999684"
          }
        ],
        "address": [
          {
            "line": [
              "Parnell Square West nan"
            ],
            "city": "Dublin",
            "postalCode": "D01",
            "country": "Ireland"
          }
        ],
        "text": {
          "status": "generated",
          "div": "<div xmlns=\"http://www.w3.org/1999/xhtml\">Provider Organization: Rotunda Hospital</div>"
        },
        "name": "Rotunda Hospital"
      }
    },
    {
      "fullUrl": "urn:uuid:9d118903-e763-47ab-89d4-2a5fb65f469f",
      "resource": {
        "resourceType": "Specimen",
        "id": "9d118903-e763-47ab-89d4-2a5fb65f469f",
        "meta": {
          "profile": [
            "http://hl7.eu/fhir/laboratory/StructureDefinition/Specimen-eu-lab"
          ]
        },
        "collection": {
          "collectedDateTime": "2023-12-11"
        },
        "text": {
          "status": "generated",
          "div": "<div xmlns=\"http://www.w3.org/1999/xhtml\"><table class=\"hl7__eu__lab__report\"><tr><th>Specimen</th><th>Collection Date</th></tr><tr><td>Acellular blood (serum or plasma) specimen</td><td><span class=\"nb\">11-Dec-2023</span></td></tr></table></div>"
        },
        "type": {
          "coding": [
            {
              "code": "122592007",
              "system": "http://snomed.info/sct",
              "display": "Acellular blood (serum or plasma) specimen"
            }
          ]
        }
      }
    },
    {
      "fullUrl": "urn:uuid:6becc81b-6525-4747-bb89-301ed913ca8a",
      "resource": {
        "resourceType": "Specimen",
        "id": "6becc81b-6525-4747-bb89-301ed913ca8a",
        "meta": {
          "profile": [
            "http://hl7.eu/fhir/laboratory/StructureDefinition/Specimen-eu-lab"
          ]
        },
        "collection": {
          "collectedDateTime": "2023-12-11"
        },
        "text": {
          "status": "generated",
          "div": "<div xmlns=\"http://www.w3.org/1999/xhtml\"><table class=\"hl7__eu__lab__report\"><tr><th>Specimen</th><th>Collection Date</th></tr><tr><td>Urine specimen</td><td><span class=\"nb\">11-Dec-2023</span></td></tr></table></div>"
        },
        "type": {
          "coding": [
            {
              "code": "122575003",
              "system": "http://snomed.info/sct",
              "display": "Urine specimen"
            }
          ]
        }
      }
    },
    {
      "fullUrl": "urn:uuid:01a32ca0-a1c1-4a7d-89d5-818fd8f1d4c5",
      "resource": {
        "resourceType": "Specimen",
        "id": "01a32ca0-a1c1-4a7d-89d5-818fd8f1d4c5",
        "meta": {
          "profile": [
            "http://hl7.eu/fhir/laboratory/StructureDefinition/Specimen-eu-lab"
          ]
        },
        "collection": {
          "collectedDateTime": "2023-12-11"
        },
        "text": {
          "status": "generated",
          "div": "<div xmlns=\"http://www.w3.org/1999/xhtml\"><table class=\"hl7__eu__lab__report\"><tr><th>Specimen</th><th>Collection Date</th></tr><tr><td>Whole blood specimen (specimen)</td><td><span class=\"nb\">11-Dec-2023</span></td></tr></table></div>"
        },
        "type": {
          "coding": [
            {
              "code": "258580003",
              "system": "http://snomed.info/sct",
              "display": "Whole blood specimen (specimen)"
            }
          ]
        }
      }
    },
    {
      "fullUrl": "urn:uuid:c6de0024-46db-4508-9dfe-a0c025ffc5cb",
      "resource": {
        "resourceType": "Observation",
        "id": "c6de0024-46db-4508-9dfe-a0c025ffc5cb",
        "meta": {
          "profile": [
            "http://hl7.eu/fhir/laboratory/StructureDefinition/Observation-resultslab-eu-lab"
          ]
        },
        "performer": [
          {
            "display": "The Central European Lab"
          }
        ],
        "category": [
          {
            "coding": [
              {
                "system": "http://terminology.hl7.org/CodeSystem/observation-category",
                "code": "laboratory"
              }
            ]
          }
        ],
        "code": {
          "coding": [
            {
              "code": "2345-7",
              "system": "http://loinc.org",
              "display": "Glucose [Mass/volume] in Serum or Plasma"
            }
          ],
          "text": "Glucose [Mass/volume] in Serum or Plasma"
        },
        "valueQuantity": {
          "system": "http://unitsofmeasure.org",
          "value": 92.9,
          "unit": "mg/dL",
          "code": "mg/dL"
        },
        "referenceRange": [
          {
            "low": {
              "value": 70,
              "code": "mg/dL",
              "system": "http://unitsofmeasure.org"
            }
          },
          {
            "high": {
              "value": 99,
              "code": "mg/dL",
              "system": "http://unitsofmeasure.org"
            }
          }
        ],
        "text": {
          "status": "generated",
          "div": "<div xmlns=\"http://www.w3.org/1999/xhtml\"><table class=\"hl7__eu__lab__report\"><tr><th>Test</th><th>11-Dec-2023</th><th>Reference&#xA0;Range</th><th>Unit</th></tr><tr><td>Glucose [Mass/volume] in Serum or Plasma</td><td>92.9</td><td>70 - 99</td><td></td><td>mg/dL</td></tr></table></div>"
        },
        "status": "final",
        "subject": {
          "reference": "urn:uuid:2cb8b2a8-c0a7-4ac7-ae88-67ffad52f545",
          "display": "Meaghan Neary"
        },
        "effectiveDateTime": "2023-12-11T22:11:04Z",
        "specimen": {
          "reference": "urn:uuid:9d118903-e763-47ab-89d4-2a5fb65f469f"
        }
      }
    },
    {
      "fullUrl": "urn:uuid:22a0a0a5-f03a-45af-9cec-d97b718e2568",
      "resource": {
        "resourceType": "Observation",
        "id": "22a0a0a5-f03a-45af-9cec-d97b718e2568",
        "meta": {
          "profile": [
            "http://hl7.eu/fhir/laboratory/StructureDefinition/Observation-resultslab-eu-lab"
          ]
        },
        "performer": [
          {
            "display": "The Central European Lab"
          }
        ],
        "category": [
          {
            "coding": [
              {
                "system": "http://terminology.hl7.org/CodeSystem/observation-category",
                "code": "laboratory"
              }
            ]
          }
        ],
        "code": {
          "coding": [
            {
              "code": "3094-0",
              "system": "http://loinc.org",
              "display": "Urea nitrogen [Mass/volume] in Serum or Plasma"
            }
          ],
          "text": "Urea nitrogen [Mass/volume] in Serum or Plasma"
        },
        "valueQuantity": {
          "system": "http://unitsofmeasure.org",
          "value": 15,
          "unit": "mg/dL",
          "code": "mg/dL"
        },
        "referenceRange": [
          {
            "low": {
              "value": 7,
              "code": "mg/dL",
              "system": "http://unitsofmeasure.org"
            }
          },
          {
            "high": {
              "value": 50,
              "code": "mg/dL",
              "system": "http://unitsofmeasure.org"
            }
          }
        ],
        "text": {
          "status": "generated",
          "div": "<div xmlns=\"http://www.w3.org/1999/xhtml\"><table class=\"hl7__eu__lab__report\"><tr><th>Test</th><th>11-Dec-2023</th><th>Reference&#xA0;Range</th><th>Unit</th></tr><tr><td>Urea nitrogen [Mass/volume] in Serum or Plasma</td><td>15.0</td><td>7 - 50</td><td></td><td>mg/dL</td></tr></table></div>"
        },
        "status": "final",
        "subject": {
          "reference": "urn:uuid:2cb8b2a8-c0a7-4ac7-ae88-67ffad52f545",
          "display": "Meaghan Neary"
        },
        "effectiveDateTime": "2023-12-11T22:11:04Z",
        "specimen": {
          "reference": "urn:uuid:9d118903-e763-47ab-89d4-2a5fb65f469f"
        }
      }
    },
    {
      "fullUrl": "urn:uuid:e7e847ae-ee68-4230-a984-0fda2047857f",
      "resource": {
        "resourceType": "Observation",
        "id": "e7e847ae-ee68-4230-a984-0fda2047857f",
        "meta": {
          "profile": [
            "http://hl7.eu/fhir/laboratory/StructureDefinition/Observation-resultslab-eu-lab"
          ]
        },
        "performer": [
          {
            "display": "The Central European Lab"
          }
        ],
        "category": [
          {
            "coding": [
              {
                "system": "http://terminology.hl7.org/CodeSystem/observation-category",
                "code": "laboratory"
              }
            ]
          }
        ],
        "code": {
          "coding": [
            {
              "code": "2160-0",
              "system": "http://loinc.org",
              "display": "Creatinine [Mass/volume] in Serum or Plasma"
            }
          ],
          "text": "Creatinine [Mass/volume] in Serum or Plasma"
        },
        "valueQuantity": {
          "system": "http://unitsofmeasure.org",
          "value": 2,
          "unit": "mg/dL",
          "code": "mg/dL"
        },
        "referenceRange": [
          {
            "low": {
              "value": 0.6,
              "code": "mg/dL",
              "system": "http://unitsofmeasure.org"
            }
          },
          {
            "high": {
              "value": 1.1,
              "code": "mg/dL",
              "system": "http://unitsofmeasure.org"
            }
          }
        ],
        "interpretation": [
          {
            "coding": [
              {
                "code": "H",
                "system": "http://terminology.hl7.org/CodeSystem/v3-ObservationInterpretation",
                "display": "High"
              }
            ]
          }
        ],
        "text": {
          "status": "generated",
          "div": "<div xmlns=\"http://www.w3.org/1999/xhtml\"><table class=\"hl7__eu__lab__report\"><tr><th>Test</th><th>11-Dec-2023</th><th>Reference&#xA0;Range</th><th>Unit</th></tr><tr><td>Creatinine [Mass/volume] in Serum or Plasma</td><td>2.0</td><td>0.6 - 1.1</td><td>H</td><td>mg/dL</td></tr></table></div>"
        },
        "status": "final",
        "subject": {
          "reference": "urn:uuid:2cb8b2a8-c0a7-4ac7-ae88-67ffad52f545",
          "display": "Meaghan Neary"
        },
        "effectiveDateTime": "2023-12-11T22:11:04Z",
        "specimen": {
          "reference": "urn:uuid:9d118903-e763-47ab-89d4-2a5fb65f469f"
        }
      }
    },
    {
      "fullUrl": "urn:uuid:c4482161-ee23-48db-9b07-eab60b3ca89a",
      "resource": {
        "resourceType": "Observation",
        "id": "c4482161-ee23-48db-9b07-eab60b3ca89a",
        "meta": {
          "profile": [
            "http://hl7.eu/fhir/laboratory/StructureDefinition/Observation-resultslab-eu-lab"
          ]
        },
        "performer": [
          {
            "display": "The Central European Lab"
          }
        ],
        "category": [
          {
            "coding": [
              {
                "system": "http://terminology.hl7.org/CodeSystem/observation-category",
                "code": "laboratory"
              }
            ]
          }
        ],
        "code": {
          "coding": [
            {
              "code": "17861-6",
              "system": "http://loinc.org",
              "display": "Calcium [Mass/volume] in Serum or Plasma"
            }
          ],
          "text": "Calcium [Mass/volume] in Serum or Plasma"
        },
        "valueQuantity": {
          "system": "http://unitsofmeasure.org",
          "value": 8.7,
          "unit": "mg/dL",
          "code": "mg/dL"
        },
        "referenceRange": [
          {
            "low": {
              "value": 8.6,
              "code": "mg/dL",
              "system": "http://unitsofmeasure.org"
            }
          },
          {
            "high": {
              "value": 10.4,
              "code": "mg/dL",
              "system": "http://unitsofmeasure.org"
            }
          }
        ],
        "text": {
          "status": "generated",
          "div": "<div xmlns=\"http://www.w3.org/1999/xhtml\"><table class=\"hl7__eu__lab__report\"><tr><th>Test</th><th>11-Dec-2023</th><th>Reference&#xA0;Range</th><th>Unit</th></tr><tr><td>Calcium [Mass/volume] in Serum or Plasma</td><td>8.7</td><td>8.6 - 10.4</td><td></td><td>mg/dL</td></tr></table></div>"
        },
        "status": "final",
        "subject": {
          "reference": "urn:uuid:2cb8b2a8-c0a7-4ac7-ae88-67ffad52f545",
          "display": "Meaghan Neary"
        },
        "effectiveDateTime": "2023-12-11T22:11:04Z",
        "specimen": {
          "reference": "urn:uuid:9d118903-e763-47ab-89d4-2a5fb65f469f"
        }
      }
    },
    {
      "fullUrl": "urn:uuid:d297f88b-7de7-49d6-81bf-023b2c960d1a",
      "resource": {
        "resourceType": "Observation",
        "id": "d297f88b-7de7-49d6-81bf-023b2c960d1a",
        "meta": {
          "profile": [
            "http://hl7.eu/fhir/laboratory/StructureDefinition/Observation-resultslab-eu-lab"
          ]
        },
        "performer": [
          {
            "display": "The Central European Lab"
          }
        ],
        "category": [
          {
            "coding": [
              {
                "system": "http://terminology.hl7.org/CodeSystem/observation-category",
                "code": "laboratory"
              }
            ]
          }
        ],
        "code": {
          "coding": [
            {
              "code": "2951-2",
              "system": "http://loinc.org",
              "display": "Sodium [Moles/volume] in Serum or Plasma"
            }
          ],
          "text": "Sodium [Moles/volume] in Serum or Plasma"
        },
        "valueQuantity": {
          "system": "http://unitsofmeasure.org",
          "value": 140.8,
          "unit": "mmol/L",
          "code": "mmol/L"
        },
        "referenceRange": [
          {
            "low": {
              "value": 135,
              "code": "mmol/L",
              "system": "http://unitsofmeasure.org"
            }
          },
          {
            "high": {
              "value": 145,
              "code": "mmol/L",
              "system": "http://unitsofmeasure.org"
            }
          }
        ],
        "text": {
          "status": "generated",
          "div": "<div xmlns=\"http://www.w3.org/1999/xhtml\"><table class=\"hl7__eu__lab__report\"><tr><th>Test</th><th>11-Dec-2023</th><th>Reference&#xA0;Range</th><th>Unit</th></tr><tr><td>Sodium [Moles/volume] in Serum or Plasma</td><td>140.8</td><td>135 - 145</td><td></td><td>mmol/L</td></tr></table></div>"
        },
        "status": "final",
        "subject": {
          "reference": "urn:uuid:2cb8b2a8-c0a7-4ac7-ae88-67ffad52f545",
          "display": "Meaghan Neary"
        },
        "effectiveDateTime": "2023-12-11T22:11:04Z",
        "specimen": {
          "reference": "urn:uuid:9d118903-e763-47ab-89d4-2a5fb65f469f"
        }
      }
    },
    {
      "fullUrl": "urn:uuid:41716244-9d5b-4c34-b530-b89ffe01d7fa",
      "resource": {
        "resourceType": "Observation",
        "id": "41716244-9d5b-4c34-b530-b89ffe01d7fa",
        "meta": {
          "profile": [
            "http://hl7.eu/fhir/laboratory/StructureDefinition/Observation-resultslab-eu-lab"
          ]
        },
        "performer": [
          {
            "display": "The Central European Lab"
          }
        ],
        "category": [
          {
            "coding": [
              {
                "system": "http://terminology.hl7.org/CodeSystem/observation-category",
                "code": "laboratory"
              }
            ]
          }
        ],
        "code": {
          "coding": [
            {
              "code": "2823-3",
              "system": "http://loinc.org",
              "display": "Potassium [Moles/volume] in Serum or Plasma"
            }
          ],
          "text": "Potassium [Moles/volume] in Serum or Plasma"
        },
        "valueQuantity": {
          "system": "http://unitsofmeasure.org",
          "value": 4,
          "unit": "mmol/L",
          "code": "mmol/L"
        },
        "referenceRange": [
          {
            "low": {
              "value": 3.5,
              "code": "mmol/L",
              "system": "http://unitsofmeasure.org"
            }
          },
          {
            "high": {
              "value": 5.1,
              "code": "mmol/L",
              "system": "http://unitsofmeasure.org"
            }
          }
        ],
        "text": {
          "status": "generated",
          "div": "<div xmlns=\"http://www.w3.org/1999/xhtml\"><table class=\"hl7__eu__lab__report\"><tr><th>Test</th><th>11-Dec-2023</th><th>Reference&#xA0;Range</th><th>Unit</th></tr><tr><td>Potassium [Moles/volume] in Serum or Plasma</td><td>4.0</td><td>3.5 - 5.1</td><td></td><td>mmol/L</td></tr></table></div>"
        },
        "status": "final",
        "subject": {
          "reference": "urn:uuid:2cb8b2a8-c0a7-4ac7-ae88-67ffad52f545",
          "display": "Meaghan Neary"
        },
        "effectiveDateTime": "2023-12-11T22:11:04Z",
        "specimen": {
          "reference": "urn:uuid:9d118903-e763-47ab-89d4-2a5fb65f469f"
        }
      }
    },
    {
      "fullUrl": "urn:uuid:6d05c815-b6ec-4e4d-bdc9-588d99cbc030",
      "resource": {
        "resourceType": "Observation",
        "id": "6d05c815-b6ec-4e4d-bdc9-588d99cbc030",
        "meta": {
          "profile": [
            "http://hl7.eu/fhir/laboratory/StructureDefinition/Observation-resultslab-eu-lab"
          ]
        },
        "performer": [
          {
            "display": "The Central European Lab"
          }
        ],
        "category": [
          {
            "coding": [
              {
                "system": "http://terminology.hl7.org/CodeSystem/observation-category",
                "code": "laboratory"
              }
            ]
          }
        ],
        "code": {
          "coding": [
            {
              "code": "2075-0",
              "system": "http://loinc.org",
              "display": "Chloride [Moles/volume] in Serum or Plasma"
            }
          ],
          "text": "Chloride [Moles/volume] in Serum or Plasma"
        },
        "valueQuantity": {
          "system": "http://unitsofmeasure.org",
          "value": 103.8,
          "unit": "mmol/L",
          "code": "mmol/L"
        },
        "referenceRange": [
          {
            "low": {
              "value": 98,
              "code": "mmol/L",
              "system": "http://unitsofmeasure.org"
            }
          },
          {
            "high": {
              "value": 108,
              "code": "mmol/L",
              "system": "http://unitsofmeasure.org"
            }
          }
        ],
        "text": {
          "status": "generated",
          "div": "<div xmlns=\"http://www.w3.org/1999/xhtml\"><table class=\"hl7__eu__lab__report\"><tr><th>Test</th><th>11-Dec-2023</th><th>Reference&#xA0;Range</th><th>Unit</th></tr><tr><td>Chloride [Moles/volume] in Serum or Plasma</td><td>103.8</td><td>98 - 108</td><td></td><td>mmol/L</td></tr></table></div>"
        },
        "status": "final",
        "subject": {
          "reference": "urn:uuid:2cb8b2a8-c0a7-4ac7-ae88-67ffad52f545",
          "display": "Meaghan Neary"
        },
        "effectiveDateTime": "2023-12-11T22:11:04Z",
        "specimen": {
          "reference": "urn:uuid:9d118903-e763-47ab-89d4-2a5fb65f469f"
        }
      }
    },
    {
      "fullUrl": "urn:uuid:dffc2db4-1138-4d16-8f49-f709305a2cb1",
      "resource": {
        "resourceType": "Observation",
        "id": "dffc2db4-1138-4d16-8f49-f709305a2cb1",
        "meta": {
          "profile": [
            "http://hl7.eu/fhir/laboratory/StructureDefinition/Observation-resultslab-eu-lab"
          ]
        },
        "performer": [
          {
            "display": "The Central European Lab"
          }
        ],
        "category": [
          {
            "coding": [
              {
                "system": "http://terminology.hl7.org/CodeSystem/observation-category",
                "code": "laboratory"
              }
            ]
          }
        ],
        "code": {
          "coding": [
            {
              "code": "2028-9",
              "system": "http://loinc.org",
              "display": "Carbon dioxide, total [Moles/volume] in Serum or Plasma"
            }
          ],
          "text": "Carbon dioxide, total [Moles/volume] in Serum or Plasma"
        },
        "valueQuantity": {
          "system": "http://unitsofmeasure.org",
          "value": 21.3,
          "unit": "mmol/L",
          "code": "mmol/L"
        },
        "referenceRange": [
          {
            "low": {
              "value": 22,
              "code": "mmol/L",
              "system": "http://unitsofmeasure.org"
            }
          },
          {
            "high": {
              "value": 32,
              "code": "mmol/L",
              "system": "http://unitsofmeasure.org"
            }
          }
        ],
        "interpretation": [
          {
            "coding": [
              {
                "code": "L",
                "system": "http://terminology.hl7.org/CodeSystem/v3-ObservationInterpretation",
                "display": "Low"
              }
            ]
          }
        ],
        "text": {
          "status": "generated",
          "div": "<div xmlns=\"http://www.w3.org/1999/xhtml\"><table class=\"hl7__eu__lab__report\"><tr><th>Test</th><th>11-Dec-2023</th><th>Reference&#xA0;Range</th><th>Unit</th></tr><tr><td>Carbon dioxide, total [Moles/volume] in Serum or Plasma</td><td>21.3</td><td>22 - 32</td><td>L</td><td>mmol/L</td></tr></table></div>"
        },
        "status": "final",
        "subject": {
          "reference": "urn:uuid:2cb8b2a8-c0a7-4ac7-ae88-67ffad52f545",
          "display": "Meaghan Neary"
        },
        "effectiveDateTime": "2023-12-11T22:11:04Z",
        "specimen": {
          "reference": "urn:uuid:9d118903-e763-47ab-89d4-2a5fb65f469f"
        }
      }
    },
    {
      "fullUrl": "urn:uuid:26d9655b-76fb-4e77-8e14-0204fc50b268",
      "resource": {
        "resourceType": "Observation",
        "id": "26d9655b-76fb-4e77-8e14-0204fc50b268",
        "meta": {
          "profile": [
            "http://hl7.eu/fhir/laboratory/StructureDefinition/Observation-resultslab-eu-lab"
          ]
        },
        "performer": [
          {
            "display": "The Central European Lab"
          }
        ],
        "category": [
          {
            "coding": [
              {
                "system": "http://terminology.hl7.org/CodeSystem/observation-category",
                "code": "laboratory"
              }
            ]
          }
        ],
        "code": {
          "coding": [
            {
              "code": "5767-9",
              "system": "http://loinc.org",
              "display": "Appearance of Urine"
            }
          ],
          "text": "Appearance of Urine"
        },
        "text": {
          "status": "generated",
          "div": "<div xmlns=\"http://www.w3.org/1999/xhtml\"><table class=\"hl7__eu__lab__report\"><tr><th>Test</th><th>11-Dec-2023</th><th>Reference&#xA0;Range</th><th>Unit</th></tr><tr><td>Appearance of Urine</td></tr></table></div>"
        },
        "status": "final",
        "subject": {
          "reference": "urn:uuid:2cb8b2a8-c0a7-4ac7-ae88-67ffad52f545",
          "display": "Meaghan Neary"
        },
        "effectiveDateTime": "2023-12-11T22:11:04Z",
        "specimen": {
          "reference": "urn:uuid:6becc81b-6525-4747-bb89-301ed913ca8a"
        }
      }
    },
    {
      "fullUrl": "urn:uuid:7877a631-f8ce-407c-87da-18fb36915e36",
      "resource": {
        "resourceType": "Observation",
        "id": "7877a631-f8ce-407c-87da-18fb36915e36",
        "meta": {
          "profile": [
            "http://hl7.eu/fhir/laboratory/StructureDefinition/Observation-resultslab-eu-lab"
          ]
        },
        "performer": [
          {
            "display": "The Central European Lab"
          }
        ],
        "category": [
          {
            "coding": [
              {
                "system": "http://terminology.hl7.org/CodeSystem/observation-category",
                "code": "laboratory"
              }
            ]
          }
        ],
        "code": {
          "coding": [
            {
              "code": "34533-0",
              "system": "http://loinc.org",
              "display": "Odor of Urine"
            }
          ],
          "text": "Odor of Urine"
        },
        "text": {
          "status": "generated",
          "div": "<div xmlns=\"http://www.w3.org/1999/xhtml\"><table class=\"hl7__eu__lab__report\"><tr><th>Test</th><th>11-Dec-2023</th><th>Reference&#xA0;Range</th><th>Unit</th></tr><tr><td>Odor of Urine</td></tr></table></div>"
        },
        "status": "final",
        "subject": {
          "reference": "urn:uuid:2cb8b2a8-c0a7-4ac7-ae88-67ffad52f545",
          "display": "Meaghan Neary"
        },
        "effectiveDateTime": "2023-12-11T22:11:04Z",
        "specimen": {
          "reference": "urn:uuid:6becc81b-6525-4747-bb89-301ed913ca8a"
        }
      }
    },
    {
      "fullUrl": "urn:uuid:08359dc6-602f-40e0-a5d7-bc9a77c2db95",
      "resource": {
        "resourceType": "Observation",
        "id": "08359dc6-602f-40e0-a5d7-bc9a77c2db95",
        "meta": {
          "profile": [
            "http://hl7.eu/fhir/laboratory/StructureDefinition/Observation-resultslab-eu-lab"
          ]
        },
        "performer": [
          {
            "display": "The Central European Lab"
          }
        ],
        "category": [
          {
            "coding": [
              {
                "system": "http://terminology.hl7.org/CodeSystem/observation-category",
                "code": "laboratory"
              }
            ]
          }
        ],
        "code": {
          "coding": [
            {
              "code": "32167-9",
              "system": "http://loinc.org",
              "display": "Clarity of Urine"
            }
          ],
          "text": "Clarity of Urine"
        },
        "text": {
          "status": "generated",
          "div": "<div xmlns=\"http://www.w3.org/1999/xhtml\"><table class=\"hl7__eu__lab__report\"><tr><th>Test</th><th>11-Dec-2023</th><th>Reference&#xA0;Range</th><th>Unit</th></tr><tr><td>Clarity of Urine</td></tr></table></div>"
        },
        "status": "final",
        "subject": {
          "reference": "urn:uuid:2cb8b2a8-c0a7-4ac7-ae88-67ffad52f545",
          "display": "Meaghan Neary"
        },
        "effectiveDateTime": "2023-12-11T22:11:04Z",
        "specimen": {
          "reference": "urn:uuid:6becc81b-6525-4747-bb89-301ed913ca8a"
        }
      }
    },
    {
      "fullUrl": "urn:uuid:b5580096-9afa-4467-bd90-dbed3a429a28",
      "resource": {
        "resourceType": "Observation",
        "id": "b5580096-9afa-4467-bd90-dbed3a429a28",
        "meta": {
          "profile": [
            "http://hl7.eu/fhir/laboratory/StructureDefinition/Observation-resultslab-eu-lab"
          ]
        },
        "performer": [
          {
            "display": "The Central European Lab"
          }
        ],
        "category": [
          {
            "coding": [
              {
                "system": "http://terminology.hl7.org/CodeSystem/observation-category",
                "code": "laboratory"
              }
            ]
          }
        ],
        "code": {
          "coding": [
            {
              "code": "5778-6",
              "system": "http://loinc.org",
              "display": "Color of Urine"
            }
          ],
          "text": "Color of Urine"
        },
        "text": {
          "status": "generated",
          "div": "<div xmlns=\"http://www.w3.org/1999/xhtml\"><table class=\"hl7__eu__lab__report\"><tr><th>Test</th><th>11-Dec-2023</th><th>Reference&#xA0;Range</th><th>Unit</th></tr><tr><td>Color of Urine</td></tr></table></div>"
        },
        "status": "final",
        "subject": {
          "reference": "urn:uuid:2cb8b2a8-c0a7-4ac7-ae88-67ffad52f545",
          "display": "Meaghan Neary"
        },
        "effectiveDateTime": "2023-12-11T22:11:04Z",
        "specimen": {
          "reference": "urn:uuid:6becc81b-6525-4747-bb89-301ed913ca8a"
        }
      }
    },
    {
      "fullUrl": "urn:uuid:4796e625-d534-4340-b7ee-b376399c392f",
      "resource": {
        "resourceType": "Observation",
        "id": "4796e625-d534-4340-b7ee-b376399c392f",
        "meta": {
          "profile": [
            "http://hl7.eu/fhir/laboratory/StructureDefinition/Observation-resultslab-eu-lab"
          ]
        },
        "performer": [
          {
            "display": "The Central European Lab"
          }
        ],
        "category": [
          {
            "coding": [
              {
                "system": "http://terminology.hl7.org/CodeSystem/observation-category",
                "code": "laboratory"
              }
            ]
          }
        ],
        "code": {
          "coding": [
            {
              "code": "5792-7",
              "system": "http://loinc.org",
              "display": "Glucose [Mass/volume] in Urine by Test strip"
            }
          ],
          "text": "Glucose [Mass/volume] in Urine by Test strip"
        },
        "valueQuantity": {
          "system": "http://unitsofmeasure.org",
          "value": 2.3,
          "unit": "mg/dL",
          "code": "mg/dL"
        },
        "referenceRange": [
          {
            "low": {
              "value": 0.8,
              "code": "mg/dL",
              "system": "http://unitsofmeasure.org"
            }
          },
          {
            "high": {
              "value": 0,
              "code": "mg/dL",
              "system": "http://unitsofmeasure.org"
            }
          }
        ],
        "interpretation": [
          {
            "coding": [
              {
                "code": "H",
                "system": "http://terminology.hl7.org/CodeSystem/v3-ObservationInterpretation",
                "display": "High"
              }
            ]
          }
        ],
        "text": {
          "status": "generated",
          "div": "<div xmlns=\"http://www.w3.org/1999/xhtml\"><table class=\"hl7__eu__lab__report\"><tr><th>Test</th><th>11-Dec-2023</th><th>Reference&#xA0;Range</th><th>Unit</th></tr><tr><td>Glucose [Mass/volume] in Urine by Test strip</td><td>2.3</td><td>0.8 - 0</td><td>H</td><td>mg/dL</td></tr></table></div>"
        },
        "status": "final",
        "subject": {
          "reference": "urn:uuid:2cb8b2a8-c0a7-4ac7-ae88-67ffad52f545",
          "display": "Meaghan Neary"
        },
        "effectiveDateTime": "2023-12-11T22:11:04Z",
        "specimen": {
          "reference": "urn:uuid:6becc81b-6525-4747-bb89-301ed913ca8a"
        }
      }
    },
    {
      "fullUrl": "urn:uuid:c5f886cf-c66e-46fa-b42e-cf02eee22448",
      "resource": {
        "resourceType": "Observation",
        "id": "c5f886cf-c66e-46fa-b42e-cf02eee22448",
        "meta": {
          "profile": [
            "http://hl7.eu/fhir/laboratory/StructureDefinition/Observation-resultslab-eu-lab"
          ]
        },
        "performer": [
          {
            "display": "The Central European Lab"
          }
        ],
        "category": [
          {
            "coding": [
              {
                "system": "http://terminology.hl7.org/CodeSystem/observation-category",
                "code": "laboratory"
              }
            ]
          }
        ],
        "code": {
          "coding": [
            {
              "code": "25428-4",
              "system": "http://loinc.org",
              "display": "Glucose [Presence] in Urine by Test strip"
            }
          ],
          "text": "Glucose [Presence] in Urine by Test strip"
        },
        "text": {
          "status": "generated",
          "div": "<div xmlns=\"http://www.w3.org/1999/xhtml\"><table class=\"hl7__eu__lab__report\"><tr><th>Test</th><th>11-Dec-2023</th><th>Reference&#xA0;Range</th><th>Unit</th></tr><tr><td>Glucose [Presence] in Urine by Test strip</td></tr></table></div>"
        },
        "status": "final",
        "subject": {
          "reference": "urn:uuid:2cb8b2a8-c0a7-4ac7-ae88-67ffad52f545",
          "display": "Meaghan Neary"
        },
        "effectiveDateTime": "2023-12-11T22:11:04Z",
        "specimen": {
          "reference": "urn:uuid:6becc81b-6525-4747-bb89-301ed913ca8a"
        }
      }
    },
    {
      "fullUrl": "urn:uuid:94c0362f-324b-47c1-98f1-9247ac2897ba",
      "resource": {
        "resourceType": "Observation",
        "id": "94c0362f-324b-47c1-98f1-9247ac2897ba",
        "meta": {
          "profile": [
            "http://hl7.eu/fhir/laboratory/StructureDefinition/Observation-resultslab-eu-lab"
          ]
        },
        "performer": [
          {
            "display": "The Central European Lab"
          }
        ],
        "category": [
          {
            "coding": [
              {
                "system": "http://terminology.hl7.org/CodeSystem/observation-category",
                "code": "laboratory"
              }
            ]
          }
        ],
        "code": {
          "coding": [
            {
              "code": "20505-4",
              "system": "http://loinc.org",
              "display": "Bilirubin.total [Mass/volume] in Urine by Test strip"
            }
          ],
          "text": "Bilirubin.total [Mass/volume] in Urine by Test strip"
        },
        "valueQuantity": {
          "system": "http://unitsofmeasure.org",
          "value": 0.8,
          "unit": "mg/dL",
          "code": "mg/dL"
        },
        "referenceRange": [
          {
            "low": {
              "value": 0,
              "code": "mg/dL",
              "system": "http://unitsofmeasure.org"
            }
          },
          {
            "high": {
              "value": 1,
              "code": "mg/dL",
              "system": "http://unitsofmeasure.org"
            }
          }
        ],
        "text": {
          "status": "generated",
          "div": "<div xmlns=\"http://www.w3.org/1999/xhtml\"><table class=\"hl7__eu__lab__report\"><tr><th>Test</th><th>11-Dec-2023</th><th>Reference&#xA0;Range</th><th>Unit</th></tr><tr><td>Bilirubin.total [Mass/volume] in Urine by Test strip</td><td>0.8</td><td>0 - 1</td><td></td><td>mg/dL</td></tr></table></div>"
        },
        "status": "final",
        "subject": {
          "reference": "urn:uuid:2cb8b2a8-c0a7-4ac7-ae88-67ffad52f545",
          "display": "Meaghan Neary"
        },
        "effectiveDateTime": "2023-12-11T22:11:04Z",
        "specimen": {
          "reference": "urn:uuid:6becc81b-6525-4747-bb89-301ed913ca8a"
        }
      }
    },
    {
      "fullUrl": "urn:uuid:5525ba42-3e03-42bc-9e32-f2b54b25ab8f",
      "resource": {
        "resourceType": "Observation",
        "id": "5525ba42-3e03-42bc-9e32-f2b54b25ab8f",
        "meta": {
          "profile": [
            "http://hl7.eu/fhir/laboratory/StructureDefinition/Observation-resultslab-eu-lab"
          ]
        },
        "performer": [
          {
            "display": "The Central European Lab"
          }
        ],
        "category": [
          {
            "coding": [
              {
                "system": "http://terminology.hl7.org/CodeSystem/observation-category",
                "code": "laboratory"
              }
            ]
          }
        ],
        "code": {
          "coding": [
            {
              "code": "5770-3",
              "system": "http://loinc.org",
              "display": "Bilirubin.total [Presence] in Urine by Test strip"
            }
          ],
          "text": "Bilirubin.total [Presence] in Urine by Test strip"
        },
        "text": {
          "status": "generated",
          "div": "<div xmlns=\"http://www.w3.org/1999/xhtml\"><table class=\"hl7__eu__lab__report\"><tr><th>Test</th><th>11-Dec-2023</th><th>Reference&#xA0;Range</th><th>Unit</th></tr><tr><td>Bilirubin.total [Presence] in Urine by Test strip</td></tr></table></div>"
        },
        "status": "final",
        "subject": {
          "reference": "urn:uuid:2cb8b2a8-c0a7-4ac7-ae88-67ffad52f545",
          "display": "Meaghan Neary"
        },
        "effectiveDateTime": "2023-12-11T22:11:04Z",
        "specimen": {
          "reference": "urn:uuid:6becc81b-6525-4747-bb89-301ed913ca8a"
        }
      }
    },
    {
      "fullUrl": "urn:uuid:eb910597-da30-4ef7-87cb-272fec3f7376",
      "resource": {
        "resourceType": "Observation",
        "id": "eb910597-da30-4ef7-87cb-272fec3f7376",
        "meta": {
          "profile": [
            "http://hl7.eu/fhir/laboratory/StructureDefinition/Observation-resultslab-eu-lab"
          ]
        },
        "performer": [
          {
            "display": "The Central European Lab"
          }
        ],
        "category": [
          {
            "coding": [
              {
                "system": "http://terminology.hl7.org/CodeSystem/observation-category",
                "code": "laboratory"
              }
            ]
          }
        ],
        "code": {
          "coding": [
            {
              "code": "5797-6",
              "system": "http://loinc.org",
              "display": "Ketones [Mass/volume] in Urine by Test strip"
            }
          ],
          "text": "Ketones [Mass/volume] in Urine by Test strip"
        },
        "valueQuantity": {
          "system": "http://unitsofmeasure.org",
          "value": 20,
          "unit": "mg/dL",
          "code": "mg/dL"
        },
        "referenceRange": [
          {
            "low": {
              "value": 0,
              "code": "mg/dL",
              "system": "http://unitsofmeasure.org"
            }
          },
          {
            "high": {
              "value": 4,
              "code": "mg/dL",
              "system": "http://unitsofmeasure.org"
            }
          }
        ],
        "interpretation": [
          {
            "coding": [
              {
                "code": "H",
                "system": "http://terminology.hl7.org/CodeSystem/v3-ObservationInterpretation",
                "display": "High"
              }
            ]
          }
        ],
        "text": {
          "status": "generated",
          "div": "<div xmlns=\"http://www.w3.org/1999/xhtml\"><table class=\"hl7__eu__lab__report\"><tr><th>Test</th><th>11-Dec-2023</th><th>Reference&#xA0;Range</th><th>Unit</th></tr><tr><td>Ketones [Mass/volume] in Urine by Test strip</td><td>20.0</td><td>0 - 4</td><td>H</td><td>mg/dL</td></tr></table></div>"
        },
        "status": "final",
        "subject": {
          "reference": "urn:uuid:2cb8b2a8-c0a7-4ac7-ae88-67ffad52f545",
          "display": "Meaghan Neary"
        },
        "effectiveDateTime": "2023-12-11T22:11:04Z",
        "specimen": {
          "reference": "urn:uuid:6becc81b-6525-4747-bb89-301ed913ca8a"
        }
      }
    },
    {
      "fullUrl": "urn:uuid:1cf069dc-a9a7-4e9d-bc9b-6e0b514dcc0e",
      "resource": {
        "resourceType": "Observation",
        "id": "1cf069dc-a9a7-4e9d-bc9b-6e0b514dcc0e",
        "meta": {
          "profile": [
            "http://hl7.eu/fhir/laboratory/StructureDefinition/Observation-resultslab-eu-lab"
          ]
        },
        "performer": [
          {
            "display": "The Central European Lab"
          }
        ],
        "category": [
          {
            "coding": [
              {
                "system": "http://terminology.hl7.org/CodeSystem/observation-category",
                "code": "laboratory"
              }
            ]
          }
        ],
        "code": {
          "coding": [
            {
              "code": "2514-8",
              "system": "http://loinc.org",
              "display": "Ketones [Presence] in Urine by Test strip"
            }
          ],
          "text": "Ketones [Presence] in Urine by Test strip"
        },
        "text": {
          "status": "generated",
          "div": "<div xmlns=\"http://www.w3.org/1999/xhtml\"><table class=\"hl7__eu__lab__report\"><tr><th>Test</th><th>11-Dec-2023</th><th>Reference&#xA0;Range</th><th>Unit</th></tr><tr><td>Ketones [Presence] in Urine by Test strip</td></tr></table></div>"
        },
        "status": "final",
        "subject": {
          "reference": "urn:uuid:2cb8b2a8-c0a7-4ac7-ae88-67ffad52f545",
          "display": "Meaghan Neary"
        },
        "effectiveDateTime": "2023-12-11T22:11:04Z",
        "specimen": {
          "reference": "urn:uuid:6becc81b-6525-4747-bb89-301ed913ca8a"
        }
      }
    },
    {
      "fullUrl": "urn:uuid:57924ac0-40ec-42ca-a5e9-f6b81f6d4b75",
      "resource": {
        "resourceType": "Observation",
        "id": "57924ac0-40ec-42ca-a5e9-f6b81f6d4b75",
        "meta": {
          "profile": [
            "http://hl7.eu/fhir/laboratory/StructureDefinition/Observation-resultslab-eu-lab"
          ]
        },
        "performer": [
          {
            "display": "The Central European Lab"
          }
        ],
        "category": [
          {
            "coding": [
              {
                "system": "http://terminology.hl7.org/CodeSystem/observation-category",
                "code": "laboratory"
              }
            ]
          }
        ],
        "code": {
          "coding": [
            {
              "code": "5811-5",
              "system": "http://loinc.org",
              "display": "Specific gravity of Urine by Test strip"
            }
          ],
          "text": "Specific gravity of Urine by Test strip"
        },
        "valueQuantity": {
          "system": "http://unitsofmeasure.org",
          "value": 1,
          "unit": "{nominal}",
          "code": "{nominal}"
        },
        "referenceRange": [
          {
            "low": {
              "value": 1.005,
              "code": "g/mL",
              "system": "http://unitsofmeasure.org"
            }
          },
          {
            "high": {
              "value": 1.03,
              "code": "g/mL",
              "system": "http://unitsofmeasure.org"
            }
          }
        ],
        "interpretation": [
          {
            "coding": [
              {
                "code": "L",
                "system": "http://terminology.hl7.org/CodeSystem/v3-ObservationInterpretation",
                "display": "Low"
              }
            ]
          }
        ],
        "text": {
          "status": "generated",
          "div": "<div xmlns=\"http://www.w3.org/1999/xhtml\"><table class=\"hl7__eu__lab__report\"><tr><th>Test</th><th>11-Dec-2023</th><th>Reference&#xA0;Range</th><th>Unit</th></tr><tr><td>Specific gravity of Urine by Test strip</td><td>1.0</td><td>1.005 - 1.03</td><td>L</td><td>{nominal}</td></tr></table></div>"
        },
        "status": "final",
        "subject": {
          "reference": "urn:uuid:2cb8b2a8-c0a7-4ac7-ae88-67ffad52f545",
          "display": "Meaghan Neary"
        },
        "effectiveDateTime": "2023-12-11T22:11:04Z",
        "specimen": {
          "reference": "urn:uuid:6becc81b-6525-4747-bb89-301ed913ca8a"
        }
      }
    },
    {
      "fullUrl": "urn:uuid:76404e96-984e-4bde-935d-6293c78d1585",
      "resource": {
        "resourceType": "Observation",
        "id": "76404e96-984e-4bde-935d-6293c78d1585",
        "meta": {
          "profile": [
            "http://hl7.eu/fhir/laboratory/StructureDefinition/Observation-resultslab-eu-lab"
          ]
        },
        "performer": [
          {
            "display": "The Central European Lab"
          }
        ],
        "category": [
          {
            "coding": [
              {
                "system": "http://terminology.hl7.org/CodeSystem/observation-category",
                "code": "laboratory"
              }
            ]
          }
        ],
        "code": {
          "coding": [
            {
              "code": "5803-2",
              "system": "http://loinc.org",
              "display": "pH of Urine by Test strip"
            }
          ],
          "text": "pH of Urine by Test strip"
        },
        "valueQuantity": {
          "system": "http://unitsofmeasure.org",
          "value": 6.2,
          "unit": "pH",
          "code": "pH"
        },
        "referenceRange": [
          {
            "low": {
              "value": 4.6,
              "code": "pH",
              "system": "http://unitsofmeasure.org"
            }
          },
          {
            "high": {
              "value": 7,
              "code": "pH",
              "system": "http://unitsofmeasure.org"
            }
          }
        ],
        "text": {
          "status": "generated",
          "div": "<div xmlns=\"http://www.w3.org/1999/xhtml\"><table class=\"hl7__eu__lab__report\"><tr><th>Test</th><th>11-Dec-2023</th><th>Reference&#xA0;Range</th><th>Unit</th></tr><tr><td>pH of Urine by Test strip</td><td>6.2</td><td>4.6 - 7</td><td></td><td>pH</td></tr></table></div>"
        },
        "status": "final",
        "subject": {
          "reference": "urn:uuid:2cb8b2a8-c0a7-4ac7-ae88-67ffad52f545",
          "display": "Meaghan Neary"
        },
        "effectiveDateTime": "2023-12-11T22:11:04Z",
        "specimen": {
          "reference": "urn:uuid:6becc81b-6525-4747-bb89-301ed913ca8a"
        }
      }
    },
    {
      "fullUrl": "urn:uuid:b6ea4b3c-f77e-461e-932c-5173b12277b7",
      "resource": {
        "resourceType": "Observation",
        "id": "b6ea4b3c-f77e-461e-932c-5173b12277b7",
        "meta": {
          "profile": [
            "http://hl7.eu/fhir/laboratory/StructureDefinition/Observation-resultslab-eu-lab"
          ]
        },
        "performer": [
          {
            "display": "The Central European Lab"
          }
        ],
        "category": [
          {
            "coding": [
              {
                "system": "http://terminology.hl7.org/CodeSystem/observation-category",
                "code": "laboratory"
              }
            ]
          }
        ],
        "code": {
          "coding": [
            {
              "code": "5804-0",
              "system": "http://loinc.org",
              "display": "Protein [Mass/volume] in Urine by Test strip"
            }
          ],
          "text": "Protein [Mass/volume] in Urine by Test strip"
        },
        "valueQuantity": {
          "system": "http://unitsofmeasure.org",
          "value": 372.6,
          "unit": "mg/dL",
          "code": "mg/dL"
        },
        "referenceRange": [
          {
            "low": {
              "value": 0,
              "code": "mg/dL",
              "system": "http://unitsofmeasure.org"
            }
          },
          {
            "high": {
              "value": 14,
              "code": "mg/dL",
              "system": "http://unitsofmeasure.org"
            }
          }
        ],
        "interpretation": [
          {
            "coding": [
              {
                "code": "H",
                "system": "http://terminology.hl7.org/CodeSystem/v3-ObservationInterpretation",
                "display": "High"
              }
            ]
          }
        ],
        "text": {
          "status": "generated",
          "div": "<div xmlns=\"http://www.w3.org/1999/xhtml\"><table class=\"hl7__eu__lab__report\"><tr><th>Test</th><th>11-Dec-2023</th><th>Reference&#xA0;Range</th><th>Unit</th></tr><tr><td>Protein [Mass/volume] in Urine by Test strip</td><td>372.6</td><td>0 - 14</td><td>H</td><td>mg/dL</td></tr></table></div>"
        },
        "status": "final",
        "subject": {
          "reference": "urn:uuid:2cb8b2a8-c0a7-4ac7-ae88-67ffad52f545",
          "display": "Meaghan Neary"
        },
        "effectiveDateTime": "2023-12-11T22:11:04Z",
        "specimen": {
          "reference": "urn:uuid:6becc81b-6525-4747-bb89-301ed913ca8a"
        }
      }
    },
    {
      "fullUrl": "urn:uuid:b386d3d5-9d27-440a-a302-6452a3317aad",
      "resource": {
        "resourceType": "Observation",
        "id": "b386d3d5-9d27-440a-a302-6452a3317aad",
        "meta": {
          "profile": [
            "http://hl7.eu/fhir/laboratory/StructureDefinition/Observation-resultslab-eu-lab"
          ]
        },
        "performer": [
          {
            "display": "The Central European Lab"
          }
        ],
        "category": [
          {
            "coding": [
              {
                "system": "http://terminology.hl7.org/CodeSystem/observation-category",
                "code": "laboratory"
              }
            ]
          }
        ],
        "code": {
          "coding": [
            {
              "code": "20454-5",
              "system": "http://loinc.org",
              "display": "Protein [Presence] in Urine by Test strip"
            }
          ],
          "text": "Protein [Presence] in Urine by Test strip"
        },
        "text": {
          "status": "generated",
          "div": "<div xmlns=\"http://www.w3.org/1999/xhtml\"><table class=\"hl7__eu__lab__report\"><tr><th>Test</th><th>11-Dec-2023</th><th>Reference&#xA0;Range</th><th>Unit</th></tr><tr><td>Protein [Presence] in Urine by Test strip</td></tr></table></div>"
        },
        "status": "final",
        "subject": {
          "reference": "urn:uuid:2cb8b2a8-c0a7-4ac7-ae88-67ffad52f545",
          "display": "Meaghan Neary"
        },
        "effectiveDateTime": "2023-12-11T22:11:04Z",
        "specimen": {
          "reference": "urn:uuid:6becc81b-6525-4747-bb89-301ed913ca8a"
        }
      }
    },
    {
      "fullUrl": "urn:uuid:27ead139-3e8e-4a51-9d0f-eedf22b92c2f",
      "resource": {
        "resourceType": "Observation",
        "id": "27ead139-3e8e-4a51-9d0f-eedf22b92c2f",
        "meta": {
          "profile": [
            "http://hl7.eu/fhir/laboratory/StructureDefinition/Observation-resultslab-eu-lab"
          ]
        },
        "performer": [
          {
            "display": "The Central European Lab"
          }
        ],
        "category": [
          {
            "coding": [
              {
                "system": "http://terminology.hl7.org/CodeSystem/observation-category",
                "code": "laboratory"
              }
            ]
          }
        ],
        "code": {
          "coding": [
            {
              "code": "5802-4",
              "system": "http://loinc.org",
              "display": "Nitrite [Presence] in Urine by Test strip"
            }
          ],
          "text": "Nitrite [Presence] in Urine by Test strip"
        },
        "text": {
          "status": "generated",
          "div": "<div xmlns=\"http://www.w3.org/1999/xhtml\"><table class=\"hl7__eu__lab__report\"><tr><th>Test</th><th>11-Dec-2023</th><th>Reference&#xA0;Range</th><th>Unit</th></tr><tr><td>Nitrite [Presence] in Urine by Test strip</td></tr></table></div>"
        },
        "status": "final",
        "subject": {
          "reference": "urn:uuid:2cb8b2a8-c0a7-4ac7-ae88-67ffad52f545",
          "display": "Meaghan Neary"
        },
        "effectiveDateTime": "2023-12-11T22:11:04Z",
        "specimen": {
          "reference": "urn:uuid:6becc81b-6525-4747-bb89-301ed913ca8a"
        }
      }
    },
    {
      "fullUrl": "urn:uuid:dea88cb6-3af7-4c12-9f12-accd6569259b",
      "resource": {
        "resourceType": "Observation",
        "id": "dea88cb6-3af7-4c12-9f12-accd6569259b",
        "meta": {
          "profile": [
            "http://hl7.eu/fhir/laboratory/StructureDefinition/Observation-resultslab-eu-lab"
          ]
        },
        "performer": [
          {
            "display": "The Central European Lab"
          }
        ],
        "category": [
          {
            "coding": [
              {
                "system": "http://terminology.hl7.org/CodeSystem/observation-category",
                "code": "laboratory"
              }
            ]
          }
        ],
        "code": {
          "coding": [
            {
              "code": "5794-3",
              "system": "http://loinc.org",
              "display": "Hemoglobin [Presence] in Urine by Test strip"
            }
          ],
          "text": "Hemoglobin [Presence] in Urine by Test strip"
        },
        "text": {
          "status": "generated",
          "div": "<div xmlns=\"http://www.w3.org/1999/xhtml\"><table class=\"hl7__eu__lab__report\"><tr><th>Test</th><th>11-Dec-2023</th><th>Reference&#xA0;Range</th><th>Unit</th></tr><tr><td>Hemoglobin [Presence] in Urine by Test strip</td></tr></table></div>"
        },
        "status": "final",
        "subject": {
          "reference": "urn:uuid:2cb8b2a8-c0a7-4ac7-ae88-67ffad52f545",
          "display": "Meaghan Neary"
        },
        "effectiveDateTime": "2023-12-11T22:11:04Z",
        "specimen": {
          "reference": "urn:uuid:6becc81b-6525-4747-bb89-301ed913ca8a"
        }
      }
    },
    {
      "fullUrl": "urn:uuid:b4842323-2f17-41ff-a0e5-c321a744d19a",
      "resource": {
        "resourceType": "Observation",
        "id": "b4842323-2f17-41ff-a0e5-c321a744d19a",
        "meta": {
          "profile": [
            "http://hl7.eu/fhir/laboratory/StructureDefinition/Observation-resultslab-eu-lab"
          ]
        },
        "performer": [
          {
            "display": "The Central European Lab"
          }
        ],
        "category": [
          {
            "coding": [
              {
                "system": "http://terminology.hl7.org/CodeSystem/observation-category",
                "code": "laboratory"
              }
            ]
          }
        ],
        "code": {
          "coding": [
            {
              "code": "5799-2",
              "system": "http://loinc.org",
              "display": "Leukocyte esterase [Presence] in Urine by Test strip"
            }
          ],
          "text": "Leukocyte esterase [Presence] in Urine by Test strip"
        },
        "text": {
          "status": "generated",
          "div": "<div xmlns=\"http://www.w3.org/1999/xhtml\"><table class=\"hl7__eu__lab__report\"><tr><th>Test</th><th>11-Dec-2023</th><th>Reference&#xA0;Range</th><th>Unit</th></tr><tr><td>Leukocyte esterase [Presence] in Urine by Test strip</td></tr></table></div>"
        },
        "status": "final",
        "subject": {
          "reference": "urn:uuid:2cb8b2a8-c0a7-4ac7-ae88-67ffad52f545",
          "display": "Meaghan Neary"
        },
        "effectiveDateTime": "2023-12-11T22:11:04Z",
        "specimen": {
          "reference": "urn:uuid:6becc81b-6525-4747-bb89-301ed913ca8a"
        }
      }
    },
    {
      "fullUrl": "urn:uuid:14b731a0-2384-488f-b699-6cdb213425b1",
      "resource": {
        "resourceType": "Observation",
        "id": "14b731a0-2384-488f-b699-6cdb213425b1",
        "meta": {
          "profile": [
            "http://hl7.eu/fhir/laboratory/StructureDefinition/Observation-resultslab-eu-lab"
          ]
        },
        "performer": [
          {
            "display": "The Central European Lab"
          }
        ],
        "category": [
          {
            "coding": [
              {
                "system": "http://terminology.hl7.org/CodeSystem/observation-category",
                "code": "laboratory"
              }
            ]
          }
        ],
        "code": {
          "coding": [
            {
              "code": "4548-4",
              "system": "http://loinc.org",
              "display": "Hemoglobin A1c/Hemoglobin.total in Blood"
            }
          ],
          "text": "Hemoglobin A1c/Hemoglobin.total in Blood"
        },
        "valueQuantity": {
          "system": "http://unitsofmeasure.org",
          "value": 4,
          "unit": "%",
          "code": "%"
        },
        "referenceRange": [
          {
            "low": {
              "value": 4,
              "code": "%",
              "system": "http://unitsofmeasure.org"
            }
          },
          {
            "high": {
              "value": 6.4,
              "code": "%",
              "system": "http://unitsofmeasure.org"
            }
          }
        ],
        "text": {
          "status": "generated",
          "div": "<div xmlns=\"http://www.w3.org/1999/xhtml\"><table class=\"hl7__eu__lab__report\"><tr><th>Test</th><th>11-Dec-2023</th><th>Reference&#xA0;Range</th><th>Unit</th></tr><tr><td>Hemoglobin A1c/Hemoglobin.total in Blood</td><td>4.0</td><td>4 - 6.4</td><td></td><td>%</td></tr></table></div>"
        },
        "status": "final",
        "subject": {
          "reference": "urn:uuid:2cb8b2a8-c0a7-4ac7-ae88-67ffad52f545",
          "display": "Meaghan Neary"
        },
        "effectiveDateTime": "2023-12-11T22:11:04Z",
        "specimen": {
          "reference": "urn:uuid:01a32ca0-a1c1-4a7d-89d5-818fd8f1d4c5"
        }
      }
    },
    {
      "fullUrl": "urn:uuid:5754cac9-7835-44ab-a439-b6a9df800925",
      "resource": {
        "resourceType": "Observation",
        "id": "5754cac9-7835-44ab-a439-b6a9df800925",
        "meta": {
          "profile": [
            "http://hl7.eu/fhir/laboratory/StructureDefinition/Observation-resultslab-eu-lab"
          ]
        },
        "performer": [
          {
            "display": "The Central European Lab"
          }
        ],
        "category": [
          {
            "coding": [
              {
                "system": "http://terminology.hl7.org/CodeSystem/observation-category",
                "code": "laboratory"
              }
            ]
          }
        ],
        "code": {
          "coding": [
            {
              "code": "2339-0",
              "system": "http://loinc.org",
              "display": "Glucose [Mass/volume] in Blood"
            }
          ],
          "text": "Glucose [Mass/volume] in Blood"
        },
        "valueQuantity": {
          "system": "http://unitsofmeasure.org",
          "value": 92.9,
          "unit": "mg/dL",
          "code": "mg/dL"
        },
        "referenceRange": [
          {
            "low": {
              "value": 70,
              "code": "mg/dL",
              "system": "http://unitsofmeasure.org"
            }
          },
          {
            "high": {
              "value": 100,
              "code": "mg/dL",
              "system": "http://unitsofmeasure.org"
            }
          }
        ],
        "text": {
          "status": "generated",
          "div": "<div xmlns=\"http://www.w3.org/1999/xhtml\"><table class=\"hl7__eu__lab__report\"><tr><th>Test</th><th>11-Dec-2023</th><th>Reference&#xA0;Range</th><th>Unit</th></tr><tr><td>Glucose [Mass/volume] in Blood</td><td>92.9</td><td>70 - 100</td><td></td><td>mg/dL</td></tr></table></div>"
        },
        "status": "final",
        "subject": {
          "reference": "urn:uuid:2cb8b2a8-c0a7-4ac7-ae88-67ffad52f545",
          "display": "Meaghan Neary"
        },
        "effectiveDateTime": "2023-12-11T22:11:04Z",
        "specimen": {
          "reference": "urn:uuid:01a32ca0-a1c1-4a7d-89d5-818fd8f1d4c5"
        }
      }
    },
    {
      "fullUrl": "urn:uuid:5e3c4449-0357-4968-9892-eb6e4fd946aa",
      "resource": {
        "resourceType": "Observation",
        "id": "5e3c4449-0357-4968-9892-eb6e4fd946aa",
        "meta": {
          "profile": [
            "http://hl7.eu/fhir/laboratory/StructureDefinition/Observation-resultslab-eu-lab"
          ]
        },
        "performer": [
          {
            "display": "The Central European Lab"
          }
        ],
        "category": [
          {
            "coding": [
              {
                "system": "http://terminology.hl7.org/CodeSystem/observation-category",
                "code": "laboratory"
              }
            ]
          }
        ],
        "code": {
          "coding": [
            {
              "code": "6299-2",
              "system": "http://loinc.org",
              "display": "Urea nitrogen [Mass/volume] in Blood"
            }
          ],
          "text": "Urea nitrogen [Mass/volume] in Blood"
        },
        "valueQuantity": {
          "system": "http://unitsofmeasure.org",
          "value": 15,
          "unit": "mg/dL",
          "code": "mg/dL"
        },
        "referenceRange": [
          {
            "low": {
              "value": 7,
              "code": "mg/dL",
              "system": "http://unitsofmeasure.org"
            }
          },
          {
            "high": {
              "value": 43,
              "code": "mg/dL",
              "system": "http://unitsofmeasure.org"
            }
          }
        ],
        "text": {
          "status": "generated",
          "div": "<div xmlns=\"http://www.w3.org/1999/xhtml\"><table class=\"hl7__eu__lab__report\"><tr><th>Test</th><th>11-Dec-2023</th><th>Reference&#xA0;Range</th><th>Unit</th></tr><tr><td>Urea nitrogen [Mass/volume] in Blood</td><td>15.0</td><td>7 - 43</td><td></td><td>mg/dL</td></tr></table></div>"
        },
        "status": "final",
        "subject": {
          "reference": "urn:uuid:2cb8b2a8-c0a7-4ac7-ae88-67ffad52f545",
          "display": "Meaghan Neary"
        },
        "effectiveDateTime": "2023-12-11T22:11:04Z",
        "specimen": {
          "reference": "urn:uuid:01a32ca0-a1c1-4a7d-89d5-818fd8f1d4c5"
        }
      }
    },
    {
      "fullUrl": "urn:uuid:12b382f1-f875-446f-8d53-6c9c64511931",
      "resource": {
        "resourceType": "Observation",
        "id": "12b382f1-f875-446f-8d53-6c9c64511931",
        "meta": {
          "profile": [
            "http://hl7.eu/fhir/laboratory/StructureDefinition/Observation-resultslab-eu-lab"
          ]
        },
        "performer": [
          {
            "display": "The Central European Lab"
          }
        ],
        "category": [
          {
            "coding": [
              {
                "system": "http://terminology.hl7.org/CodeSystem/observation-category",
                "code": "laboratory"
              }
            ]
          }
        ],
        "code": {
          "coding": [
            {
              "code": "38483-4",
              "system": "http://loinc.org",
              "display": "Creatinine [Mass/volume] in Blood"
            }
          ],
          "text": "Creatinine [Mass/volume] in Blood"
        },
        "valueQuantity": {
          "system": "http://unitsofmeasure.org",
          "value": 2.8,
          "unit": "mg/dL",
          "code": "mg/dL"
        },
        "referenceRange": [
          {
            "low": {
              "value": 0.6,
              "code": "mg/dL",
              "system": "http://unitsofmeasure.org"
            }
          },
          {
            "high": {
              "value": 1.1,
              "code": "mg/dL",
              "system": "http://unitsofmeasure.org"
            }
          }
        ],
        "interpretation": [
          {
            "coding": [
              {
                "code": "H",
                "system": "http://terminology.hl7.org/CodeSystem/v3-ObservationInterpretation",
                "display": "High"
              }
            ]
          }
        ],
        "text": {
          "status": "generated",
          "div": "<div xmlns=\"http://www.w3.org/1999/xhtml\"><table class=\"hl7__eu__lab__report\"><tr><th>Test</th><th>11-Dec-2023</th><th>Reference&#xA0;Range</th><th>Unit</th></tr><tr><td>Creatinine [Mass/volume] in Blood</td><td>2.8</td><td>0.6 - 1.1</td><td>H</td><td>mg/dL</td></tr></table></div>"
        },
        "status": "final",
        "subject": {
          "reference": "urn:uuid:2cb8b2a8-c0a7-4ac7-ae88-67ffad52f545",
          "display": "Meaghan Neary"
        },
        "effectiveDateTime": "2023-12-11T22:11:04Z",
        "specimen": {
          "reference": "urn:uuid:01a32ca0-a1c1-4a7d-89d5-818fd8f1d4c5"
        }
      }
    },
    {
      "fullUrl": "urn:uuid:f4aab73e-de93-4b93-89d0-7e620802aefb",
      "resource": {
        "resourceType": "Observation",
        "id": "f4aab73e-de93-4b93-89d0-7e620802aefb",
        "meta": {
          "profile": [
            "http://hl7.eu/fhir/laboratory/StructureDefinition/Observation-resultslab-eu-lab"
          ]
        },
        "performer": [
          {
            "display": "The Central European Lab"
          }
        ],
        "category": [
          {
            "coding": [
              {
                "system": "http://terminology.hl7.org/CodeSystem/observation-category",
                "code": "laboratory"
              }
            ]
          }
        ],
        "code": {
          "coding": [
            {
              "code": "49765-1",
              "system": "http://loinc.org",
              "display": "Calcium [Mass/volume] in Blood"
            }
          ],
          "text": "Calcium [Mass/volume] in Blood"
        },
        "valueQuantity": {
          "system": "http://unitsofmeasure.org",
          "value": 8.7,
          "unit": "mg/dL",
          "code": "mg/dL"
        },
        "referenceRange": [
          {
            "low": {
              "value": 8.5,
              "code": "mg/dL",
              "system": "http://unitsofmeasure.org"
            }
          },
          {
            "high": {
              "value": 10.5,
              "code": "mg/dL",
              "system": "http://unitsofmeasure.org"
            }
          }
        ],
        "text": {
          "status": "generated",
          "div": "<div xmlns=\"http://www.w3.org/1999/xhtml\"><table class=\"hl7__eu__lab__report\"><tr><th>Test</th><th>11-Dec-2023</th><th>Reference&#xA0;Range</th><th>Unit</th></tr><tr><td>Calcium [Mass/volume] in Blood</td><td>8.7</td><td>8.5 - 10.5</td><td></td><td>mg/dL</td></tr></table></div>"
        },
        "status": "final",
        "subject": {
          "reference": "urn:uuid:2cb8b2a8-c0a7-4ac7-ae88-67ffad52f545",
          "display": "Meaghan Neary"
        },
        "effectiveDateTime": "2023-12-11T22:11:04Z",
        "specimen": {
          "reference": "urn:uuid:01a32ca0-a1c1-4a7d-89d5-818fd8f1d4c5"
        }
      }
    },
    {
      "fullUrl": "urn:uuid:8009fcf9-d688-4b2e-9690-c20bf70ed08c",
      "resource": {
        "resourceType": "Observation",
        "id": "8009fcf9-d688-4b2e-9690-c20bf70ed08c",
        "meta": {
          "profile": [
            "http://hl7.eu/fhir/laboratory/StructureDefinition/Observation-resultslab-eu-lab"
          ]
        },
        "performer": [
          {
            "display": "The Central European Lab"
          }
        ],
        "category": [
          {
            "coding": [
              {
                "system": "http://terminology.hl7.org/CodeSystem/observation-category",
                "code": "laboratory"
              }
            ]
          }
        ],
        "code": {
          "coding": [
            {
              "code": "2947-0",
              "system": "http://loinc.org",
              "display": "Sodium [Moles/volume] in Blood"
            }
          ],
          "text": "Sodium [Moles/volume] in Blood"
        },
        "valueQuantity": {
          "system": "http://unitsofmeasure.org",
          "value": 140.8,
          "unit": "mmol/L",
          "code": "mmol/L"
        },
        "referenceRange": [
          {
            "low": {
              "value": 135,
              "code": "mmol/L",
              "system": "http://unitsofmeasure.org"
            }
          },
          {
            "high": {
              "value": 145,
              "code": "mmol/L",
              "system": "http://unitsofmeasure.org"
            }
          }
        ],
        "text": {
          "status": "generated",
          "div": "<div xmlns=\"http://www.w3.org/1999/xhtml\"><table class=\"hl7__eu__lab__report\"><tr><th>Test</th><th>11-Dec-2023</th><th>Reference&#xA0;Range</th><th>Unit</th></tr><tr><td>Sodium [Moles/volume] in Blood</td><td>140.8</td><td>135 - 145</td><td></td><td>mmol/L</td></tr></table></div>"
        },
        "status": "final",
        "subject": {
          "reference": "urn:uuid:2cb8b2a8-c0a7-4ac7-ae88-67ffad52f545",
          "display": "Meaghan Neary"
        },
        "effectiveDateTime": "2023-12-11T22:11:04Z",
        "specimen": {
          "reference": "urn:uuid:01a32ca0-a1c1-4a7d-89d5-818fd8f1d4c5"
        }
      }
    },
    {
      "fullUrl": "urn:uuid:20f4a9f6-06c1-4039-9d69-97b1d2130757",
      "resource": {
        "resourceType": "Observation",
        "id": "20f4a9f6-06c1-4039-9d69-97b1d2130757",
        "meta": {
          "profile": [
            "http://hl7.eu/fhir/laboratory/StructureDefinition/Observation-resultslab-eu-lab"
          ]
        },
        "performer": [
          {
            "display": "The Central European Lab"
          }
        ],
        "category": [
          {
            "coding": [
              {
                "system": "http://terminology.hl7.org/CodeSystem/observation-category",
                "code": "laboratory"
              }
            ]
          }
        ],
        "code": {
          "coding": [
            {
              "code": "6298-4",
              "system": "http://loinc.org",
              "display": "Potassium [Moles/volume] in Blood"
            }
          ],
          "text": "Potassium [Moles/volume] in Blood"
        },
        "valueQuantity": {
          "system": "http://unitsofmeasure.org",
          "value": 4,
          "unit": "mmol/L",
          "code": "mmol/L"
        },
        "referenceRange": [
          {
            "low": {
              "value": 3.5,
              "code": "mmol/L",
              "system": "http://unitsofmeasure.org"
            }
          },
          {
            "high": {
              "value": 5.1,
              "code": "mmol/L",
              "system": "http://unitsofmeasure.org"
            }
          }
        ],
        "text": {
          "status": "generated",
          "div": "<div xmlns=\"http://www.w3.org/1999/xhtml\"><table class=\"hl7__eu__lab__report\"><tr><th>Test</th><th>11-Dec-2023</th><th>Reference&#xA0;Range</th><th>Unit</th></tr><tr><td>Potassium [Moles/volume] in Blood</td><td>4.0</td><td>3.5 - 5.1</td><td></td><td>mmol/L</td></tr></table></div>"
        },
        "status": "final",
        "subject": {
          "reference": "urn:uuid:2cb8b2a8-c0a7-4ac7-ae88-67ffad52f545",
          "display": "Meaghan Neary"
        },
        "effectiveDateTime": "2023-12-11T22:11:04Z",
        "specimen": {
          "reference": "urn:uuid:01a32ca0-a1c1-4a7d-89d5-818fd8f1d4c5"
        }
      }
    },
    {
      "fullUrl": "urn:uuid:01e91968-32ea-443b-a77a-e77bcdf25198",
      "resource": {
        "resourceType": "Observation",
        "id": "01e91968-32ea-443b-a77a-e77bcdf25198",
        "meta": {
          "profile": [
            "http://hl7.eu/fhir/laboratory/StructureDefinition/Observation-resultslab-eu-lab"
          ]
        },
        "performer": [
          {
            "display": "The Central European Lab"
          }
        ],
        "category": [
          {
            "coding": [
              {
                "system": "http://terminology.hl7.org/CodeSystem/observation-category",
                "code": "laboratory"
              }
            ]
          }
        ],
        "code": {
          "coding": [
            {
              "code": "2069-3",
              "system": "http://loinc.org",
              "display": "Chloride [Moles/volume] in Blood"
            }
          ],
          "text": "Chloride [Moles/volume] in Blood"
        },
        "valueQuantity": {
          "system": "http://unitsofmeasure.org",
          "value": 103.8,
          "unit": "mmol/L",
          "code": "mmol/L"
        },
        "referenceRange": [
          {
            "low": {
              "value": 98,
              "code": "mmol/L",
              "system": "http://unitsofmeasure.org"
            }
          },
          {
            "high": {
              "value": 108,
              "code": "mmol/L",
              "system": "http://unitsofmeasure.org"
            }
          }
        ],
        "text": {
          "status": "generated",
          "div": "<div xmlns=\"http://www.w3.org/1999/xhtml\"><table class=\"hl7__eu__lab__report\"><tr><th>Test</th><th>11-Dec-2023</th><th>Reference&#xA0;Range</th><th>Unit</th></tr><tr><td>Chloride [Moles/volume] in Blood</td><td>103.8</td><td>98 - 108</td><td></td><td>mmol/L</td></tr></table></div>"
        },
        "status": "final",
        "subject": {
          "reference": "urn:uuid:2cb8b2a8-c0a7-4ac7-ae88-67ffad52f545",
          "display": "Meaghan Neary"
        },
        "effectiveDateTime": "2023-12-11T22:11:04Z",
        "specimen": {
          "reference": "urn:uuid:01a32ca0-a1c1-4a7d-89d5-818fd8f1d4c5"
        }
      }
    },
    {
      "fullUrl": "urn:uuid:e6f3c614-73dd-4d53-8e65-912e3c99d712",
      "resource": {
        "resourceType": "Observation",
        "id": "e6f3c614-73dd-4d53-8e65-912e3c99d712",
        "meta": {
          "profile": [
            "http://hl7.eu/fhir/laboratory/StructureDefinition/Observation-resultslab-eu-lab"
          ]
        },
        "performer": [
          {
            "display": "The Central European Lab"
          }
        ],
        "category": [
          {
            "coding": [
              {
                "system": "http://terminology.hl7.org/CodeSystem/observation-category",
                "code": "laboratory"
              }
            ]
          }
        ],
        "code": {
          "coding": [
            {
              "code": "20565-8",
              "system": "http://loinc.org",
              "display": "Carbon dioxide, total [Moles/volume] in Blood"
            }
          ],
          "text": "Carbon dioxide, total [Moles/volume] in Blood"
        },
        "valueQuantity": {
          "system": "http://unitsofmeasure.org",
          "value": 21.3,
          "unit": "mmol/L",
          "code": "mmol/L"
        },
        "referenceRange": [
          {
            "low": {
              "value": 22,
              "code": "mmol/L",
              "system": "http://unitsofmeasure.org"
            }
          },
          {
            "high": {
              "value": 29,
              "code": "mmol/L",
              "system": "http://unitsofmeasure.org"
            }
          }
        ],
        "interpretation": [
          {
            "coding": [
              {
                "code": "L",
                "system": "http://terminology.hl7.org/CodeSystem/v3-ObservationInterpretation",
                "display": "Low"
              }
            ]
          }
        ],
        "text": {
          "status": "generated",
          "div": "<div xmlns=\"http://www.w3.org/1999/xhtml\"><table class=\"hl7__eu__lab__report\"><tr><th>Test</th><th>11-Dec-2023</th><th>Reference&#xA0;Range</th><th>Unit</th></tr><tr><td>Carbon dioxide, total [Moles/volume] in Blood</td><td>21.3</td><td>22 - 29</td><td>L</td><td>mmol/L</td></tr></table></div>"
        },
        "status": "final",
        "subject": {
          "reference": "urn:uuid:2cb8b2a8-c0a7-4ac7-ae88-67ffad52f545",
          "display": "Meaghan Neary"
        },
        "effectiveDateTime": "2023-12-11T22:11:04Z",
        "specimen": {
          "reference": "urn:uuid:01a32ca0-a1c1-4a7d-89d5-818fd8f1d4c5"
        }
      }
    },
    {
      "fullUrl": "urn:uuid:771c3a3d-d39e-4e80-9e81-78026f6a4a1b",
      "resource": {
        "resourceType": "Observation",
        "id": "771c3a3d-d39e-4e80-9e81-78026f6a4a1b",
        "meta": {
          "profile": [
            "http://hl7.eu/fhir/laboratory/StructureDefinition/Observation-resultslab-eu-lab"
          ]
        },
        "performer": [
          {
            "display": "The Central European Lab"
          }
        ],
        "category": [
          {
            "coding": [
              {
                "system": "http://terminology.hl7.org/CodeSystem/observation-category",
                "code": "laboratory"
              }
            ]
          }
        ],
        "code": {
          "coding": [
            {
              "code": "2093-3",
              "system": "http://loinc.org",
              "display": "Cholesterol [Mass/volume] in Serum or Plasma"
            }
          ],
          "text": "Cholesterol [Mass/volume] in Serum or Plasma"
        },
        "valueQuantity": {
          "system": "http://unitsofmeasure.org",
          "value": 277.9,
          "unit": "mg/dL",
          "code": "mg/dL"
        },
        "referenceRange": [
          {
            "low": {
              "value": 125,
              "code": "mg/dL",
              "system": "http://unitsofmeasure.org"
            }
          },
          {
            "high": {
              "value": 239,
              "code": "mg/dL",
              "system": "http://unitsofmeasure.org"
            }
          }
        ],
        "interpretation": [
          {
            "coding": [
              {
                "code": "H",
                "system": "http://terminology.hl7.org/CodeSystem/v3-ObservationInterpretation",
                "display": "High"
              }
            ]
          }
        ],
        "text": {
          "status": "generated",
          "div": "<div xmlns=\"http://www.w3.org/1999/xhtml\"><table class=\"hl7__eu__lab__report\"><tr><th>Test</th><th>11-Dec-2023</th><th>Reference&#xA0;Range</th><th>Unit</th></tr><tr><td>Cholesterol [Mass/volume] in Serum or Plasma</td><td>277.9</td><td>125 - 239</td><td>H</td><td>mg/dL</td></tr></table></div>"
        },
        "status": "final",
        "subject": {
          "reference": "urn:uuid:2cb8b2a8-c0a7-4ac7-ae88-67ffad52f545",
          "display": "Meaghan Neary"
        },
        "effectiveDateTime": "2023-12-11T22:11:04Z",
        "specimen": {
          "reference": "urn:uuid:9d118903-e763-47ab-89d4-2a5fb65f469f"
        }
      }
    },
    {
      "fullUrl": "urn:uuid:7801c51f-88bd-43f8-90f1-87d920da77ad",
      "resource": {
        "resourceType": "Observation",
        "id": "7801c51f-88bd-43f8-90f1-87d920da77ad",
        "meta": {
          "profile": [
            "http://hl7.eu/fhir/laboratory/StructureDefinition/Observation-resultslab-eu-lab"
          ]
        },
        "performer": [
          {
            "display": "The Central European Lab"
          }
        ],
        "category": [
          {
            "coding": [
              {
                "system": "http://terminology.hl7.org/CodeSystem/observation-category",
                "code": "laboratory"
              }
            ]
          }
        ],
        "code": {
          "coding": [
            {
              "code": "2571-8",
              "system": "http://loinc.org",
              "display": "Triglyceride [Mass/volume] in Serum or Plasma"
            }
          ],
          "text": "Triglyceride [Mass/volume] in Serum or Plasma"
        },
        "valueQuantity": {
          "system": "http://unitsofmeasure.org",
          "value": 135,
          "unit": "mg/dL",
          "code": "mg/dL"
        },
        "text": {
          "status": "generated",
          "div": "<div xmlns=\"http://www.w3.org/1999/xhtml\"><table class=\"hl7__eu__lab__report\"><tr><th>Test</th><th>11-Dec-2023</th><th>Reference&#xA0;Range</th><th>Unit</th></tr><tr><td>Triglyceride [Mass/volume] in Serum or Plasma</td><td>135.0</td><td>mg/dL</td></tr></table></div>"
        },
        "status": "final",
        "subject": {
          "reference": "urn:uuid:2cb8b2a8-c0a7-4ac7-ae88-67ffad52f545",
          "display": "Meaghan Neary"
        },
        "effectiveDateTime": "2023-12-11T22:11:04Z",
        "specimen": {
          "reference": "urn:uuid:9d118903-e763-47ab-89d4-2a5fb65f469f"
        }
      }
    },
    {
      "fullUrl": "urn:uuid:a94aeae9-ddb9-4bde-a6ef-2b81107e4f53",
      "resource": {
        "resourceType": "Observation",
        "id": "a94aeae9-ddb9-4bde-a6ef-2b81107e4f53",
        "meta": {
          "profile": [
            "http://hl7.eu/fhir/laboratory/StructureDefinition/Observation-resultslab-eu-lab"
          ]
        },
        "performer": [
          {
            "display": "The Central European Lab"
          }
        ],
        "category": [
          {
            "coding": [
              {
                "system": "http://terminology.hl7.org/CodeSystem/observation-category",
                "code": "laboratory"
              }
            ]
          }
        ],
        "code": {
          "coding": [
            {
              "code": "18262-6",
              "system": "http://loinc.org",
              "display": "Cholesterol in LDL [Mass/volume] in Serum or Plasma by Direct assay"
            }
          ],
          "text": "Cholesterol in LDL [Mass/volume] in Serum or Plasma by Direct assay"
        },
        "valueQuantity": {
          "system": "http://unitsofmeasure.org",
          "value": 205.3,
          "unit": "mg/dL",
          "code": "mg/dL"
        },
        "referenceRange": [
          {
            "low": {
              "value": 0,
              "code": "mg/dL",
              "system": "http://unitsofmeasure.org"
            }
          },
          {
            "high": {
              "value": 130,
              "code": "mg/dL",
              "system": "http://unitsofmeasure.org"
            }
          }
        ],
        "interpretation": [
          {
            "coding": [
              {
                "code": "H",
                "system": "http://terminology.hl7.org/CodeSystem/v3-ObservationInterpretation",
                "display": "High"
              }
            ]
          }
        ],
        "text": {
          "status": "generated",
          "div": "<div xmlns=\"http://www.w3.org/1999/xhtml\"><table class=\"hl7__eu__lab__report\"><tr><th>Test</th><th>11-Dec-2023</th><th>Reference&#xA0;Range</th><th>Unit</th></tr><tr><td>Cholesterol in LDL [Mass/volume] in Serum or Plasma by Direct assay</td><td>205.3</td><td>0 - 130</td><td>H</td><td>mg/dL</td></tr></table></div>"
        },
        "status": "final",
        "subject": {
          "reference": "urn:uuid:2cb8b2a8-c0a7-4ac7-ae88-67ffad52f545",
          "display": "Meaghan Neary"
        },
        "effectiveDateTime": "2023-12-11T22:11:04Z",
        "specimen": {
          "reference": "urn:uuid:9d118903-e763-47ab-89d4-2a5fb65f469f"
        }
      }
    },
    {
      "fullUrl": "urn:uuid:01ec7c6c-9a76-45b5-b188-6555669c8366",
      "resource": {
        "resourceType": "Observation",
        "id": "01ec7c6c-9a76-45b5-b188-6555669c8366",
        "meta": {
          "profile": [
            "http://hl7.eu/fhir/laboratory/StructureDefinition/Observation-resultslab-eu-lab"
          ]
        },
        "performer": [
          {
            "display": "The Central European Lab"
          }
        ],
        "category": [
          {
            "coding": [
              {
                "system": "http://terminology.hl7.org/CodeSystem/observation-category",
                "code": "laboratory"
              }
            ]
          }
        ],
        "code": {
          "coding": [
            {
              "code": "2085-9",
              "system": "http://loinc.org",
              "display": "Cholesterol in HDL [Mass/volume] in Serum or Plasma"
            }
          ],
          "text": "Cholesterol in HDL [Mass/volume] in Serum or Plasma"
        },
        "valueQuantity": {
          "system": "http://unitsofmeasure.org",
          "value": 45.7,
          "unit": "mg/dL",
          "code": "mg/dL"
        },
        "referenceRange": [
          {
            "low": {
              "value": 50,
              "code": "mg/dL",
              "system": "http://unitsofmeasure.org"
            }
          },
          {
            "high": {
              "value": 100,
              "code": "mg/dL",
              "system": "http://unitsofmeasure.org"
            }
          }
        ],
        "interpretation": [
          {
            "coding": [
              {
                "code": "L",
                "system": "http://terminology.hl7.org/CodeSystem/v3-ObservationInterpretation",
                "display": "Low"
              }
            ]
          }
        ],
        "text": {
          "status": "generated",
          "div": "<div xmlns=\"http://www.w3.org/1999/xhtml\"><table class=\"hl7__eu__lab__report\"><tr><th>Test</th><th>11-Dec-2023</th><th>Reference&#xA0;Range</th><th>Unit</th></tr><tr><td>Cholesterol in HDL [Mass/volume] in Serum or Plasma</td><td>45.7</td><td>50 - 100</td><td>L</td><td>mg/dL</td></tr></table></div>"
        },
        "status": "final",
        "subject": {
          "reference": "urn:uuid:2cb8b2a8-c0a7-4ac7-ae88-67ffad52f545",
          "display": "Meaghan Neary"
        },
        "effectiveDateTime": "2023-12-11T22:11:04Z",
        "specimen": {
          "reference": "urn:uuid:9d118903-e763-47ab-89d4-2a5fb65f469f"
        }
      }
    },
    {
      "fullUrl": "urn:uuid:6f141a34-a5fb-4d73-9fd8-5df13708a688",
      "resource": {
        "resourceType": "Device",
        "id": "6f141a34-a5fb-4d73-9fd8-5df13708a688",
        "deviceName": [
          {
            "name": "SYNDERAI Synthetic Generator",
            "type": "manufacturer-name"
          }
        ],
        "version": [
          {
            "value": "5.0"
          }
        ],
        "text": {
          "status": "generated",
          "div": "<div xmlns=\"http://www.w3.org/1999/xhtml\">SYNDERAI Synthetic Generator v5.0</div>"
        },
        "status": "active\"",
        "distinctIdentifier": "synderai-generator-50",
        "manufacturer": "SYNDERAI Project"
      }
    },
    {
      "fullUrl": "urn:uuid:05ee1264-008d-4a40-b07f-20b01463c90e",
      "resource": {
        "resourceType": "Provenance",
        "id": "05ee1264-008d-4a40-b07f-20b01463c90e",
        "target": [
          {
            "reference": "Patient/2cb8b2a8-c0a7-4ac7-ae88-67ffad52f545"
          },
          {
            "reference": "Bundle/86b3cacc-2bda-4619-a7b0-1df04f3d090a"
          },
          {
            "reference": "Composition/71529a92-d60f-43a6-bbb5-1242f4770ac7"
          },
          {
            "reference": "PractitionerRole/33b0ad16-313e-4d20-812d-040358becc88"
          },
          {
            "reference": "Practitioner/3943b058-5158-4f33-9c59-4c793aa04667"
          },
          {
            "reference": "PractitionerRole/d11925a0-2e90-48d3-b82a-8ad403786a07"
          },
          {
            "reference": "Organization/d3d0b9d6-8491-4e2c-bd81-c27eef12ce94"
          }
        ],
        "activity": {
          "text": "Synthetic Example Data Generation"
        },
        "policy": [
          "https://synderai.net/synderai-synthetic-data-policy"
        ],
        "agent": [
          {
            "type": {
              "text": "author"
            },
            "who": {
              "reference": "Device/6f141a34-a5fb-4d73-9fd8-5df13708a688"
            }
          }
        ],
        "reason": [
          {
            "text": "Interoperability Testing and Training (non-clinical use)"
          }
        ],
        "text": {
          "status": "generated",
          "div": "<div xmlns=\"http://www.w3.org/1999/xhtml\">Provenance for SYNDERAI Synthetic Example Data Resource</div>"
        },
        "recorded": "2023-12-11T23:11:04Z"
      }
    },
    {
      "fullUrl": "urn:uuid:33b0ad16-313e-4d20-812d-040358becc88",
      "resource": {
        "resourceType": "PractitionerRole",
        "id": "33b0ad16-313e-4d20-812d-040358becc88",
        "meta": {
          "profile": [
            "http://hl7.eu/fhir/base/StructureDefinition/practitionerRole-eu"
          ]
        },
        "text": {
          "status": "generated",
          "div": "<div xmlns=\"http://www.w3.org/1999/xhtml\">Laboratory Role Id: 33b0ad16-313e-4d20-812d-040358becc88</div>"
        },
        "practitioner": {
          "reference": "urn:uuid:3943b058-5158-4f33-9c59-4c793aa04667"
        }
      }
    },
    {
      "fullUrl": "urn:uuid:3943b058-5158-4f33-9c59-4c793aa04667",
      "resource": {
        "resourceType": "Practitioner",
        "id": "3943b058-5158-4f33-9c59-4c793aa04667",
        "meta": {
          "profile": [
            "http://hl7.eu/fhir/base/StructureDefinition/practitioner-eu"
          ]
        },
        "identifier": [
          {
            "assigner": {
              "display": "HL7 Europe"
            },
            "system": "urn:oid:2.16.840.1.113883.2.51.999",
            "value": "17849b09-fea4-475d-8c8b-2cee0aae48aa"
          }
        ],
        "name": [
          {
            "prefix": [
              "dr"
            ],
            "given": [
              "Ex"
            ],
            "family": "Ample"
          }
        ],
        "address": [
          {
            "line": [
              "Laboratoire Central Européenne",
              "Boulevard du Jardin Botanique 32"
            ],
            "postalCode": "1000",
            "city": "Brussels",
            "country": "Belgium"
          }
        ],
        "text": {
          "status": "generated",
          "div": "<div xmlns=\"http://www.w3.org/1999/xhtml\">Laboratory: Laboratoire Central Européenne, 1000 Brussels, Belgium</div>"
        }
      }
    }
  ],
  "type": "document",
  "timestamp": "2023-12-11T23:11:04Z"
}
