{
  "resourceType": "Bundle",
  "id": "29fa3620-c9f1-4b94-b985-a876fdb9e189",
  "meta": {
    "profile": [
      "http://hl7.eu/fhir/laboratory/StructureDefinition/Bundle-eu-lab"
    ]
  },
  "identifier": {
    "assigner": {
      "display": "HL7 Europe"
    },
    "system": "urn:oid:2.16.840.1.113883.2.51.999",
    "value": "3345b2dd-d254-4fa8-8439-aa16281424a2"
  },
  "entry": [
    {
      "fullUrl": "urn:uuid:92db7627-4d05-4a0e-9f22-8b6885b6be2b",
      "resource": {
        "resourceType": "Composition",
        "id": "92db7627-4d05-4a0e-9f22-8b6885b6be2b",
        "meta": {
          "profile": [
            "http://hl7.eu/fhir/laboratory/StructureDefinition/Composition-eu-lab"
          ]
        },
        "identifier": {
          "assigner": {
            "display": "HL7 Europe"
          },
          "system": "urn:oid:2.16.840.1.113883.2.51.999",
          "value": "f8a506ac-42ef-494e-8668-3004a39357b8"
        },
        "author": [
          {
            "reference": "urn:uuid:d7b8cd8c-a1cb-4fe0-9958-cf2594a89967"
          }
        ],
        "category": [
          {
            "coding": [
              {
                "code": "26436-6",
                "system": "http://loinc.org",
                "display": "Laboratory studies (set)"
              }
            ]
          }
        ],
        "type": {
          "coding": [
            {
              "code": "11502-2",
              "system": "http://loinc.org",
              "display": "Laboratory report"
            }
          ],
          "text": "Laboratory Report"
        },
        "section": [
          {
            "code": {
              "coding": [
                {
                  "code": "26436-6",
                  "system": "http://loinc.org",
                  "display": "Laboratory studies (set)"
                }
              ],
              "text": "Laboratory studies"
            },
            "section": [
              {
                "code": {
                  "coding": [
                    {
                      "code": "$18723-7",
                      "system": "http://loinc.org",
                      "display": "Hematology studies (set)"
                    }
                  ],
                  "text": "Hematology"
                },
                "entry": [
                  {
                    "reference": "urn:uuid:d90e9e44-d3f3-4924-97c1-f36695facfc7"
                  },
                  {
                    "reference": "urn:uuid:7104aa90-27cd-4f3b-b0d4-39b55a764e33"
                  },
                  {
                    "reference": "urn:uuid:54c2cc0a-0107-4055-9e86-cbb42659aedb"
                  },
                  {
                    "reference": "urn:uuid:0a84b25d-51e6-4b77-8668-d078ef3408f1"
                  },
                  {
                    "reference": "urn:uuid:0b363c0a-b57b-432f-9ad2-63d63add0048"
                  },
                  {
                    "reference": "urn:uuid:b79d71a4-ecfa-47b5-a54f-39f4734eb983"
                  },
                  {
                    "reference": "urn:uuid:de31fcbd-44b1-421f-8a91-70abee3c94ed"
                  },
                  {
                    "reference": "urn:uuid:27f7f787-ff96-4577-89c5-5963914abbc3"
                  },
                  {
                    "reference": "urn:uuid:034ba62b-84b5-4315-a2b2-4acba9b314c2"
                  },
                  {
                    "reference": "urn:uuid:1305bd5e-cb90-4d30-b2d5-2c2fd97658d9"
                  },
                  {
                    "reference": "urn:uuid:abd75562-5607-4557-bedb-863f2a85cecb"
                  }
                ],
                "text": {
                  "status": "generated",
                  "div": "<div xmlns=\"http://www.w3.org/1999/xhtml\"><h3>Hematology</h3><table class=\"hl7__eu__lab__report\"><thead><tr><th>Test</th><th>24-MAR-2019</th><th>Reference&#xA0;Range</th><th>Unit</th></tr></thead><tbody><tr><td>Hemoglobin [Mass/volume] in Blood</td><td><strong>11.3 L</strong></td><td>12 - 16</td><td>g/dL</td></tr><tr><td>Hematocrit [Volume Fraction] of Blood</td><td><strong>34.3 L</strong></td><td>37 - 45</td><td>%</td></tr><tr><td>Leukocytes [#/volume] in Blood by Automated count</td><td>4.0</td><td>3.4 - 10</td><td>10*3/uL</td></tr><tr><td>Erythrocytes [#/volume] in Blood by Automated count</td><td>5.1</td><td>4.5 - 5.2</td><td>10*6/uL</td></tr><tr><td>MCV [Entitic volume] by Automated count</td><td>82.5</td><td>82 - 98</td><td>fL</td></tr><tr><td>MCH [Entitic mass] by Automated count</td><td>31.8</td><td>27 - 33</td><td>pg</td></tr><tr><td>MCHC [Mass/volume] by Automated count</td><td>35.8</td><td>32 - 37</td><td>g/dL</td></tr><tr><td>Erythrocyte distribution width [Entitic volume] by Automated count</td><td>44.1</td><td>36 - 56</td><td>fL</td></tr><tr><td>Platelets [#/volume] in Blood by Automated count</td><td>230.3</td><td>150 - 450</td><td>10*3/uL</td></tr><tr><td>Platelet distribution width [Entitic volume] in Blood by Automated count</td><td><strong>352.5 H</strong></td><td>11.6 - 17.4</td><td>fL</td></tr><tr><td>Platelet mean volume [Entitic volume] in Blood by Automated count</td><td>11.8</td><td>9.4 - 14</td><td>fL</td></tr></tbody></table></div>"
                },
                "title": "Hematology"
              }
            ],
            "title": "Laboratory Report"
          },
          {
            "text": {
              "status": "generated",
              "div": "<div xmlns=\"http://www.w3.org/1999/xhtml\"><h3>Annotation</h3><table class=\"hl7__eu__lab__report\"><tr><th>Conclusion and Recommendations based on this report and previous findings known to us</th></tr><tr><td>The patient shows mild anemia with low hemoglobin and hematocrit, while red cell indices (MCV, MCH, MCHC) are within normal limits, suggesting normocytic, normochromic anemia. Platelet count is normal, but platelet distribution width is elevated, which may indicate increased platelet size variability, possibly due to reactive changes. Further clinical correlation and investigation for anemia etiology are recommended.</td></tr></table></div>"
            },
            "code": {
              "coding": [
                {
                  "system": "http://loinc.org",
                  "code": "48767-8",
                  "display": "Annotation comment"
                }
              ]
            },
            "title": "Annotation comment"
          }
        ],
        "status": "final",
        "subject": {
          "reference": "urn:uuid:cdda6b85-7457-4327-825f-a59360310679",
          "display": "Katy Johnston"
        },
        "date": "2019-03-24T10:58:49Z",
        "title": "Laboratory Report",
        "confidentiality": "N"
      }
    },
    {
      "fullUrl": "urn:uuid:6f62cb13-9bfc-46c0-99c3-e2012f9f7e61",
      "resource": {
        "resourceType": "DiagnosticReport",
        "id": "6f62cb13-9bfc-46c0-99c3-e2012f9f7e61",
        "meta": {
          "profile": [
            "http://hl7.eu/fhir/laboratory/StructureDefinition/DiagnosticReport-eu-lab"
          ]
        },
        "identifier": [
          {
            "assigner": {
              "display": "HL7 Europe"
            },
            "system": "urn:oid:2.16.840.1.113883.2.51.999",
            "value": "73323356-0aac-49d6-b460-cfa54fef9616"
          }
        ],
        "extension": [
          {
            "url": "http://hl7.org/fhir/5.0/StructureDefinition/extension-DiagnosticReport.composition",
            "valueReference": {
              "reference": "urn:uuid:f8a506ac-42ef-494e-8668-3004a39357b8"
            }
          }
        ],
        "category": [
          {
            "coding": [
              {
                "code": "26436-6",
                "system": "http://loinc.org",
                "display": "Laboratory studies (set)"
              }
            ]
          }
        ],
        "specimen": [
          {
            "reference": "urn:uuid:d9ec4588-356f-4b53-bbc9-6608a4ac18bf"
          },
          {
            "reference": "urn:uuid:d9ec4588-356f-4b53-bbc9-6608a4ac18bf"
          }
        ],
        "result": [
          {
            "reference": "urn:uuid:d90e9e44-d3f3-4924-97c1-f36695facfc7"
          },
          {
            "reference": "urn:uuid:7104aa90-27cd-4f3b-b0d4-39b55a764e33"
          },
          {
            "reference": "urn:uuid:54c2cc0a-0107-4055-9e86-cbb42659aedb"
          },
          {
            "reference": "urn:uuid:0a84b25d-51e6-4b77-8668-d078ef3408f1"
          },
          {
            "reference": "urn:uuid:0b363c0a-b57b-432f-9ad2-63d63add0048"
          },
          {
            "reference": "urn:uuid:b79d71a4-ecfa-47b5-a54f-39f4734eb983"
          },
          {
            "reference": "urn:uuid:de31fcbd-44b1-421f-8a91-70abee3c94ed"
          },
          {
            "reference": "urn:uuid:27f7f787-ff96-4577-89c5-5963914abbc3"
          },
          {
            "reference": "urn:uuid:034ba62b-84b5-4315-a2b2-4acba9b314c2"
          },
          {
            "reference": "urn:uuid:1305bd5e-cb90-4d30-b2d5-2c2fd97658d9"
          },
          {
            "reference": "urn:uuid:abd75562-5607-4557-bedb-863f2a85cecb"
          }
        ],
        "status": "registered",
        "code": {
          "coding": [
            {
              "code": "11502-2",
              "system": "http://loinc.org",
              "display": "Laboratory report"
            }
          ]
        },
        "subject": {
          "reference": "urn:uuid:cdda6b85-7457-4327-825f-a59360310679",
          "display": "Katy Johnston"
        }
      }
    },
    {
      "fullUrl": "urn:uuid:cdda6b85-7457-4327-825f-a59360310679",
      "resource": {
        "resourceType": "Patient",
        "id": "cdda6b85-7457-4327-825f-a59360310679",
        "meta": {
          "security": [
            {
              "system": "http://terminology.hl7.org/CodeSystem/v3-ActReason",
              "code": "HTEST"
            },
            {
              "system": "http://terminology.hl7.org/CodeSystem/v3-ActReason",
              "code": "TRAIN"
            }
          ],
          "tag": [
            {
              "system": "https://synderai.net/fhir/CodeSystem/tags",
              "code": "synthetic",
              "display": "SYNDERAI Synthetic data"
            }
          ],
          "profile": [
            "http://hl7.eu/fhir/base/StructureDefinition/patient-eu-core"
          ]
        },
        "identifier": [
          {
            "type": {
              "coding": [
                {
                  "code": "PT",
                  "system": "http://terminology.hl7.org/CodeSystem/v2-0203"
                }
              ]
            },
            "system": "http://ec.europa.eu/identifier/eci",
            "value": "1854-452946-6"
          },
          {
            "type": {
              "coding": [
                {
                  "code": "MR",
                  "system": "http://terminology.hl7.org/CodeSystem/v2-0203"
                }
              ]
            },
            "system": "http://local.setting.eu/identifier",
            "value": "f94741cf-8405-9657-1aec-b3bd1788b46e"
          }
        ],
        "name": [
          {
            "family": "Johnston"
          },
          {
            "given": [
              "Katy"
            ]
          },
          {
            "text": "Katy Johnston"
          }
        ],
        "address": [
          {
            "line": [
              "Flat 16f",
              "Stokes roads"
            ],
            "use": "home",
            "type": "physical",
            "postalCode": "E1",
            "city": "London",
            "country": "United Kingdom"
          }
        ],
        "telecom": [
          {
            "system": "phone",
            "value": "+44808 1570256"
          }
        ],
        "extension": [
          {
            "url": "http://hl7.org/fhir/StructureDefinition/patient-nationality",
            "valueCodeableConcept": {
              "coding": [
                {
                  "code": "GB",
                  "system": "http://hl7.org/fhir/ValueSet/country"
                }
              ]
            }
          }
        ],
        "text": {
          "status": "generated",
          "div": "<div xmlns=\"http://www.w3.org/1999/xhtml\"><table class=\"hl7__ips\"><tr><td>Katy Johnston</td><td>female</td><td>19-Sep-1988</td></tr></table></div>"
        },
        "gender": "female",
        "birthDate": "1988-09-19"
      }
    },
    {
      "fullUrl": "urn:uuid:d8250f88-338a-4885-b7df-cbec809c378b",
      "resource": {
        "resourceType": "ServiceRequest",
        "id": "d8250f88-338a-4885-b7df-cbec809c378b",
        "meta": {
          "profile": [
            "http://hl7.eu/fhir/laboratory/StructureDefinition/ServiceRequest-eu-lab"
          ]
        },
        "identifier": [
          {
            "system": "http://example.org",
            "value": "4e7a1e42-8a18-4eba-867f-431fa6e82e0d"
          }
        ],
        "specimen": [
          {
            "reference": "urn:uuid:d9ec4588-356f-4b53-bbc9-6608a4ac18bf"
          }
        ],
        "reasonCode": [
          {
            "coding": [
              {
                "code": "284549007",
                "system": "http://snomed.info/sct",
                "display": "Laceration of hand"
              }
            ]
          },
          {
            "coding": [
              {
                "code": "312608009",
                "system": "http://snomed.info/sct",
                "display": "Laceration - injury"
              }
            ]
          },
          {
            "coding": [
              {
                "code": "15777000",
                "system": "http://snomed.info/sct",
                "display": "Prediabetes"
              }
            ]
          },
          {
            "coding": [
              {
                "code": "271737000",
                "system": "http://snomed.info/sct",
                "display": "Anemia"
              }
            ]
          },
          {
            "coding": [
              {
                "code": "203082005",
                "system": "http://snomed.info/sct",
                "display": "Fibromyalgia"
              }
            ]
          },
          {
            "coding": [
              {
                "code": "6525002",
                "system": "http://snomed.info/sct",
                "display": "Dependent drug abuse"
              }
            ]
          },
          {
            "coding": [
              {
                "code": "124171000119105",
                "system": "http://snomed.info/sct",
                "display": "Chronic intractable migraine without aura"
              }
            ]
          },
          {
            "coding": [
              {
                "code": "196416002",
                "system": "http://snomed.info/sct",
                "display": "Impacted molars"
              }
            ]
          }
        ],
        "status": "active",
        "intent": "order",
        "code": {
          "coding": [
            {
              "code": "108252007",
              "system": "http://snomed.info/sct",
              "display": "Laboratory procedure"
            }
          ]
        },
        "subject": {
          "reference": "urn:uuid:cdda6b85-7457-4327-825f-a59360310679",
          "display": "Katy Johnston"
        },
        "requester": {
          "reference": "urn:uuid:d4471d47-cf84-442a-8f55-89b1c577d8ec"
        }
      }
    },
    {
      "fullUrl": "urn:uuid:d4471d47-cf84-442a-8f55-89b1c577d8ec",
      "resource": {
        "resourceType": "PractitionerRole",
        "id": "d4471d47-cf84-442a-8f55-89b1c577d8ec",
        "meta": {
          "profile": [
            "http://hl7.eu/fhir/base/StructureDefinition/practitionerRole-eu"
          ]
        },
        "text": {
          "status": "generated",
          "div": "<div xmlns=\"http://www.w3.org/1999/xhtml\">Provider Role Id: d4471d47-cf84-442a-8f55-89b1c577d8ec</div>"
        },
        "organization": {
          "reference": "urn:uuid:8d167282-1a00-42ac-9efb-dc38cef077d1"
        }
      }
    },
    {
      "fullUrl": "urn:uuid:8d167282-1a00-42ac-9efb-dc38cef077d1",
      "resource": {
        "resourceType": "Organization",
        "id": "8d167282-1a00-42ac-9efb-dc38cef077d1",
        "meta": {
          "profile": [
            "http://hl7.eu/fhir/base/StructureDefinition/organization-eu"
          ]
        },
        "identifier": [
          {
            "assigner": {
              "display": "HL7 Europe"
            },
            "system": "urn:oid:2.16.840.1.113883.2.51.999",
            "value": "46379645-ee2e-4966-ab70-f51e771d9233"
          }
        ],
        "address": [
          {
            "city": "London",
            "postalCode": "SE1 7",
            "country": "United Kingdom"
          }
        ],
        "text": {
          "status": "generated",
          "div": "<div xmlns=\"http://www.w3.org/1999/xhtml\">Provider Organization: Evelina Children&#039;s Hospital</div>"
        },
        "name": "Evelina Children&#039;s Hospital"
      }
    },
    {
      "fullUrl": "urn:uuid:d9ec4588-356f-4b53-bbc9-6608a4ac18bf",
      "resource": {
        "resourceType": "Specimen",
        "id": "d9ec4588-356f-4b53-bbc9-6608a4ac18bf",
        "meta": {
          "profile": [
            "http://hl7.eu/fhir/laboratory/StructureDefinition/Specimen-eu-lab"
          ]
        },
        "collection": {
          "collectedDateTime": "2019-03-24"
        },
        "text": {
          "status": "generated",
          "div": "<div xmlns=\"http://www.w3.org/1999/xhtml\"><table class=\"hl7__eu__lab__report\"><tr><th>Specimen</th><th>Collection Date</th></tr><tr><td>Whole blood specimen (specimen)</td><td><span class=\"nb\">24-Mar-2019</span></td></tr></table></div>"
        },
        "type": {
          "coding": [
            {
              "code": "258580003",
              "system": "http://snomed.info/sct",
              "display": "Whole blood specimen (specimen)"
            }
          ]
        }
      }
    },
    {
      "fullUrl": "urn:uuid:d9ec4588-356f-4b53-bbc9-6608a4ac18bf",
      "resource": {
        "resourceType": "Specimen",
        "id": "d9ec4588-356f-4b53-bbc9-6608a4ac18bf",
        "meta": {
          "profile": [
            "http://hl7.eu/fhir/laboratory/StructureDefinition/Specimen-eu-lab"
          ]
        },
        "collection": {
          "collectedDateTime": "2019-03-24"
        },
        "text": {
          "status": "generated",
          "div": "<div xmlns=\"http://www.w3.org/1999/xhtml\"><table class=\"hl7__eu__lab__report\"><tr><th>Specimen</th><th>Collection Date</th></tr><tr><td>Whole blood specimen (specimen)</td><td><span class=\"nb\">24-Mar-2019</span></td></tr></table></div>"
        },
        "type": {
          "coding": [
            {
              "code": "258580003",
              "system": "http://snomed.info/sct",
              "display": "Whole blood specimen (specimen)"
            }
          ]
        }
      }
    },
    {
      "fullUrl": "urn:uuid:d90e9e44-d3f3-4924-97c1-f36695facfc7",
      "resource": {
        "resourceType": "Observation",
        "id": "d90e9e44-d3f3-4924-97c1-f36695facfc7",
        "meta": {
          "profile": [
            "http://hl7.eu/fhir/laboratory/StructureDefinition/Observation-resultslab-eu-lab"
          ]
        },
        "performer": [
          {
            "display": "The Central European Lab"
          }
        ],
        "category": [
          {
            "coding": [
              {
                "system": "http://terminology.hl7.org/CodeSystem/observation-category",
                "code": "laboratory"
              }
            ]
          }
        ],
        "code": {
          "coding": [
            {
              "code": "718-7",
              "system": "http://loinc.org",
              "display": "Hemoglobin [Mass/volume] in Blood"
            }
          ],
          "text": "Hemoglobin [Mass/volume] in Blood"
        },
        "valueQuantity": {
          "system": "http://unitsofmeasure.org",
          "value": 11.3,
          "unit": "g/dL",
          "code": "g/dL"
        },
        "referenceRange": [
          {
            "low": {
              "value": 12,
              "code": "g/dL",
              "system": "http://unitsofmeasure.org"
            }
          },
          {
            "high": {
              "value": 16,
              "code": "g/dL",
              "system": "http://unitsofmeasure.org"
            }
          }
        ],
        "interpretation": [
          {
            "coding": [
              {
                "code": "L",
                "system": "http://terminology.hl7.org/CodeSystem/v3-ObservationInterpretation",
                "display": "Low"
              }
            ]
          }
        ],
        "text": {
          "status": "generated",
          "div": "<div xmlns=\"http://www.w3.org/1999/xhtml\"><table class=\"hl7__eu__lab__report\"><tr><th>Test</th><th>24-Mar-2019</th><th>Reference&#xA0;Range</th><th>Unit</th></tr><tr><td>Hemoglobin [Mass/volume] in Blood</td><td>11.3</td><td>12 - 16</td><td>L</td><td>g/dL</td></tr></table></div>"
        },
        "status": "final",
        "subject": {
          "reference": "urn:uuid:cdda6b85-7457-4327-825f-a59360310679",
          "display": "Katy Johnston"
        },
        "effectiveDateTime": "2019-03-24T09:58:49Z",
        "specimen": {
          "reference": "urn:uuid:d9ec4588-356f-4b53-bbc9-6608a4ac18bf"
        }
      }
    },
    {
      "fullUrl": "urn:uuid:7104aa90-27cd-4f3b-b0d4-39b55a764e33",
      "resource": {
        "resourceType": "Observation",
        "id": "7104aa90-27cd-4f3b-b0d4-39b55a764e33",
        "meta": {
          "profile": [
            "http://hl7.eu/fhir/laboratory/StructureDefinition/Observation-resultslab-eu-lab"
          ]
        },
        "performer": [
          {
            "display": "The Central European Lab"
          }
        ],
        "category": [
          {
            "coding": [
              {
                "system": "http://terminology.hl7.org/CodeSystem/observation-category",
                "code": "laboratory"
              }
            ]
          }
        ],
        "code": {
          "coding": [
            {
              "code": "20570-8",
              "system": "http://loinc.org",
              "display": "Hematocrit [Volume Fraction] of Blood"
            }
          ],
          "text": "Hematocrit [Volume Fraction] of Blood"
        },
        "valueQuantity": {
          "system": "http://unitsofmeasure.org",
          "value": 34.3,
          "unit": "%",
          "code": "%"
        },
        "referenceRange": [
          {
            "low": {
              "value": 37,
              "code": "%",
              "system": "http://unitsofmeasure.org"
            }
          },
          {
            "high": {
              "value": 45,
              "code": "%",
              "system": "http://unitsofmeasure.org"
            }
          }
        ],
        "interpretation": [
          {
            "coding": [
              {
                "code": "L",
                "system": "http://terminology.hl7.org/CodeSystem/v3-ObservationInterpretation",
                "display": "Low"
              }
            ]
          }
        ],
        "text": {
          "status": "generated",
          "div": "<div xmlns=\"http://www.w3.org/1999/xhtml\"><table class=\"hl7__eu__lab__report\"><tr><th>Test</th><th>24-Mar-2019</th><th>Reference&#xA0;Range</th><th>Unit</th></tr><tr><td>Hematocrit [Volume Fraction] of Blood</td><td>34.3</td><td>37 - 45</td><td>L</td><td>%</td></tr></table></div>"
        },
        "status": "final",
        "subject": {
          "reference": "urn:uuid:cdda6b85-7457-4327-825f-a59360310679",
          "display": "Katy Johnston"
        },
        "effectiveDateTime": "2019-03-24T09:58:49Z",
        "specimen": {
          "reference": "urn:uuid:d9ec4588-356f-4b53-bbc9-6608a4ac18bf"
        }
      }
    },
    {
      "fullUrl": "urn:uuid:54c2cc0a-0107-4055-9e86-cbb42659aedb",
      "resource": {
        "resourceType": "Observation",
        "id": "54c2cc0a-0107-4055-9e86-cbb42659aedb",
        "meta": {
          "profile": [
            "http://hl7.eu/fhir/laboratory/StructureDefinition/Observation-resultslab-eu-lab"
          ]
        },
        "performer": [
          {
            "display": "The Central European Lab"
          }
        ],
        "category": [
          {
            "coding": [
              {
                "system": "http://terminology.hl7.org/CodeSystem/observation-category",
                "code": "laboratory"
              }
            ]
          }
        ],
        "code": {
          "coding": [
            {
              "code": "6690-2",
              "system": "http://loinc.org",
              "display": "Leukocytes [#/volume] in Blood by Automated count"
            }
          ],
          "text": "Leukocytes [#/volume] in Blood by Automated count"
        },
        "valueQuantity": {
          "system": "http://unitsofmeasure.org",
          "value": 4,
          "unit": "10*3/uL",
          "code": "10*3/uL"
        },
        "referenceRange": [
          {
            "low": {
              "value": 3.4,
              "code": "10*3/uL",
              "system": "http://unitsofmeasure.org"
            }
          },
          {
            "high": {
              "value": 10,
              "code": "10*3/uL",
              "system": "http://unitsofmeasure.org"
            }
          }
        ],
        "text": {
          "status": "generated",
          "div": "<div xmlns=\"http://www.w3.org/1999/xhtml\"><table class=\"hl7__eu__lab__report\"><tr><th>Test</th><th>24-Mar-2019</th><th>Reference&#xA0;Range</th><th>Unit</th></tr><tr><td>Leukocytes [#/volume] in Blood by Automated count</td><td>4.0</td><td>3.4 - 10</td><td></td><td>10*3/uL</td></tr></table></div>"
        },
        "status": "final",
        "subject": {
          "reference": "urn:uuid:cdda6b85-7457-4327-825f-a59360310679",
          "display": "Katy Johnston"
        },
        "effectiveDateTime": "2019-03-24T09:58:49Z",
        "specimen": {
          "reference": "urn:uuid:d9ec4588-356f-4b53-bbc9-6608a4ac18bf"
        }
      }
    },
    {
      "fullUrl": "urn:uuid:0a84b25d-51e6-4b77-8668-d078ef3408f1",
      "resource": {
        "resourceType": "Observation",
        "id": "0a84b25d-51e6-4b77-8668-d078ef3408f1",
        "meta": {
          "profile": [
            "http://hl7.eu/fhir/laboratory/StructureDefinition/Observation-resultslab-eu-lab"
          ]
        },
        "performer": [
          {
            "display": "The Central European Lab"
          }
        ],
        "category": [
          {
            "coding": [
              {
                "system": "http://terminology.hl7.org/CodeSystem/observation-category",
                "code": "laboratory"
              }
            ]
          }
        ],
        "code": {
          "coding": [
            {
              "code": "789-8",
              "system": "http://loinc.org",
              "display": "Erythrocytes [#/volume] in Blood by Automated count"
            }
          ],
          "text": "Erythrocytes [#/volume] in Blood by Automated count"
        },
        "valueQuantity": {
          "system": "http://unitsofmeasure.org",
          "value": 5.1,
          "unit": "10*6/uL",
          "code": "10*6/uL"
        },
        "referenceRange": [
          {
            "low": {
              "value": 4.5,
              "code": "10*6/uL",
              "system": "http://unitsofmeasure.org"
            }
          },
          {
            "high": {
              "value": 5.2,
              "code": "10*6/uL",
              "system": "http://unitsofmeasure.org"
            }
          }
        ],
        "text": {
          "status": "generated",
          "div": "<div xmlns=\"http://www.w3.org/1999/xhtml\"><table class=\"hl7__eu__lab__report\"><tr><th>Test</th><th>24-Mar-2019</th><th>Reference&#xA0;Range</th><th>Unit</th></tr><tr><td>Erythrocytes [#/volume] in Blood by Automated count</td><td>5.1</td><td>4.5 - 5.2</td><td></td><td>10*6/uL</td></tr></table></div>"
        },
        "status": "final",
        "subject": {
          "reference": "urn:uuid:cdda6b85-7457-4327-825f-a59360310679",
          "display": "Katy Johnston"
        },
        "effectiveDateTime": "2019-03-24T09:58:49Z",
        "specimen": {
          "reference": "urn:uuid:d9ec4588-356f-4b53-bbc9-6608a4ac18bf"
        }
      }
    },
    {
      "fullUrl": "urn:uuid:0b363c0a-b57b-432f-9ad2-63d63add0048",
      "resource": {
        "resourceType": "Observation",
        "id": "0b363c0a-b57b-432f-9ad2-63d63add0048",
        "meta": {
          "profile": [
            "http://hl7.eu/fhir/laboratory/StructureDefinition/Observation-resultslab-eu-lab"
          ]
        },
        "performer": [
          {
            "display": "The Central European Lab"
          }
        ],
        "category": [
          {
            "coding": [
              {
                "system": "http://terminology.hl7.org/CodeSystem/observation-category",
                "code": "laboratory"
              }
            ]
          }
        ],
        "code": {
          "coding": [
            {
              "code": "787-2",
              "system": "http://loinc.org",
              "display": "MCV [Entitic volume] by Automated count"
            }
          ],
          "text": "MCV [Entitic volume] by Automated count"
        },
        "valueQuantity": {
          "system": "http://unitsofmeasure.org",
          "value": 82.5,
          "unit": "fL",
          "code": "fL"
        },
        "referenceRange": [
          {
            "low": {
              "value": 82,
              "code": "fL",
              "system": "http://unitsofmeasure.org"
            }
          },
          {
            "high": {
              "value": 98,
              "code": "fL",
              "system": "http://unitsofmeasure.org"
            }
          }
        ],
        "text": {
          "status": "generated",
          "div": "<div xmlns=\"http://www.w3.org/1999/xhtml\"><table class=\"hl7__eu__lab__report\"><tr><th>Test</th><th>24-Mar-2019</th><th>Reference&#xA0;Range</th><th>Unit</th></tr><tr><td>MCV [Entitic volume] by Automated count</td><td>82.5</td><td>82 - 98</td><td></td><td>fL</td></tr></table></div>"
        },
        "status": "final",
        "subject": {
          "reference": "urn:uuid:cdda6b85-7457-4327-825f-a59360310679",
          "display": "Katy Johnston"
        },
        "effectiveDateTime": "2019-03-24T09:58:49Z",
        "specimen": {
          "reference": "urn:uuid:d9ec4588-356f-4b53-bbc9-6608a4ac18bf"
        }
      }
    },
    {
      "fullUrl": "urn:uuid:b79d71a4-ecfa-47b5-a54f-39f4734eb983",
      "resource": {
        "resourceType": "Observation",
        "id": "b79d71a4-ecfa-47b5-a54f-39f4734eb983",
        "meta": {
          "profile": [
            "http://hl7.eu/fhir/laboratory/StructureDefinition/Observation-resultslab-eu-lab"
          ]
        },
        "performer": [
          {
            "display": "The Central European Lab"
          }
        ],
        "category": [
          {
            "coding": [
              {
                "system": "http://terminology.hl7.org/CodeSystem/observation-category",
                "code": "laboratory"
              }
            ]
          }
        ],
        "code": {
          "coding": [
            {
              "code": "785-6",
              "system": "http://loinc.org",
              "display": "MCH [Entitic mass] by Automated count"
            }
          ],
          "text": "MCH [Entitic mass] by Automated count"
        },
        "valueQuantity": {
          "system": "http://unitsofmeasure.org",
          "value": 31.8,
          "unit": "pg",
          "code": "pg"
        },
        "referenceRange": [
          {
            "low": {
              "value": 27,
              "code": "pg",
              "system": "http://unitsofmeasure.org"
            }
          },
          {
            "high": {
              "value": 33,
              "code": "pg",
              "system": "http://unitsofmeasure.org"
            }
          }
        ],
        "text": {
          "status": "generated",
          "div": "<div xmlns=\"http://www.w3.org/1999/xhtml\"><table class=\"hl7__eu__lab__report\"><tr><th>Test</th><th>24-Mar-2019</th><th>Reference&#xA0;Range</th><th>Unit</th></tr><tr><td>MCH [Entitic mass] by Automated count</td><td>31.8</td><td>27 - 33</td><td></td><td>pg</td></tr></table></div>"
        },
        "status": "final",
        "subject": {
          "reference": "urn:uuid:cdda6b85-7457-4327-825f-a59360310679",
          "display": "Katy Johnston"
        },
        "effectiveDateTime": "2019-03-24T09:58:49Z",
        "specimen": {
          "reference": "urn:uuid:d9ec4588-356f-4b53-bbc9-6608a4ac18bf"
        }
      }
    },
    {
      "fullUrl": "urn:uuid:de31fcbd-44b1-421f-8a91-70abee3c94ed",
      "resource": {
        "resourceType": "Observation",
        "id": "de31fcbd-44b1-421f-8a91-70abee3c94ed",
        "meta": {
          "profile": [
            "http://hl7.eu/fhir/laboratory/StructureDefinition/Observation-resultslab-eu-lab"
          ]
        },
        "performer": [
          {
            "display": "The Central European Lab"
          }
        ],
        "category": [
          {
            "coding": [
              {
                "system": "http://terminology.hl7.org/CodeSystem/observation-category",
                "code": "laboratory"
              }
            ]
          }
        ],
        "code": {
          "coding": [
            {
              "code": "786-4",
              "system": "http://loinc.org",
              "display": "MCHC [Mass/volume] by Automated count"
            }
          ],
          "text": "MCHC [Mass/volume] by Automated count"
        },
        "valueQuantity": {
          "system": "http://unitsofmeasure.org",
          "value": 35.8,
          "unit": "g/dL",
          "code": "g/dL"
        },
        "referenceRange": [
          {
            "low": {
              "value": 32,
              "code": "g/dL",
              "system": "http://unitsofmeasure.org"
            }
          },
          {
            "high": {
              "value": 37,
              "code": "g/dL",
              "system": "http://unitsofmeasure.org"
            }
          }
        ],
        "text": {
          "status": "generated",
          "div": "<div xmlns=\"http://www.w3.org/1999/xhtml\"><table class=\"hl7__eu__lab__report\"><tr><th>Test</th><th>24-Mar-2019</th><th>Reference&#xA0;Range</th><th>Unit</th></tr><tr><td>MCHC [Mass/volume] by Automated count</td><td>35.8</td><td>32 - 37</td><td></td><td>g/dL</td></tr></table></div>"
        },
        "status": "final",
        "subject": {
          "reference": "urn:uuid:cdda6b85-7457-4327-825f-a59360310679",
          "display": "Katy Johnston"
        },
        "effectiveDateTime": "2019-03-24T09:58:49Z",
        "specimen": {
          "reference": "urn:uuid:d9ec4588-356f-4b53-bbc9-6608a4ac18bf"
        }
      }
    },
    {
      "fullUrl": "urn:uuid:27f7f787-ff96-4577-89c5-5963914abbc3",
      "resource": {
        "resourceType": "Observation",
        "id": "27f7f787-ff96-4577-89c5-5963914abbc3",
        "meta": {
          "profile": [
            "http://hl7.eu/fhir/laboratory/StructureDefinition/Observation-resultslab-eu-lab"
          ]
        },
        "performer": [
          {
            "display": "The Central European Lab"
          }
        ],
        "category": [
          {
            "coding": [
              {
                "system": "http://terminology.hl7.org/CodeSystem/observation-category",
                "code": "laboratory"
              }
            ]
          }
        ],
        "code": {
          "coding": [
            {
              "code": "21000-5",
              "system": "http://loinc.org",
              "display": "Erythrocyte distribution width [Entitic volume] by Automated count"
            }
          ],
          "text": "Erythrocyte distribution width [Entitic volume] by Automated count"
        },
        "valueQuantity": {
          "system": "http://unitsofmeasure.org",
          "value": 44.1,
          "unit": "fL",
          "code": "fL"
        },
        "referenceRange": [
          {
            "low": {
              "value": 36,
              "code": "fL",
              "system": "http://unitsofmeasure.org"
            }
          },
          {
            "high": {
              "value": 56,
              "code": "fL",
              "system": "http://unitsofmeasure.org"
            }
          }
        ],
        "text": {
          "status": "generated",
          "div": "<div xmlns=\"http://www.w3.org/1999/xhtml\"><table class=\"hl7__eu__lab__report\"><tr><th>Test</th><th>24-Mar-2019</th><th>Reference&#xA0;Range</th><th>Unit</th></tr><tr><td>Erythrocyte distribution width [Entitic volume] by Automated count</td><td>44.1</td><td>36 - 56</td><td></td><td>fL</td></tr></table></div>"
        },
        "status": "final",
        "subject": {
          "reference": "urn:uuid:cdda6b85-7457-4327-825f-a59360310679",
          "display": "Katy Johnston"
        },
        "effectiveDateTime": "2019-03-24T09:58:49Z",
        "specimen": {
          "reference": "urn:uuid:d9ec4588-356f-4b53-bbc9-6608a4ac18bf"
        }
      }
    },
    {
      "fullUrl": "urn:uuid:034ba62b-84b5-4315-a2b2-4acba9b314c2",
      "resource": {
        "resourceType": "Observation",
        "id": "034ba62b-84b5-4315-a2b2-4acba9b314c2",
        "meta": {
          "profile": [
            "http://hl7.eu/fhir/laboratory/StructureDefinition/Observation-resultslab-eu-lab"
          ]
        },
        "performer": [
          {
            "display": "The Central European Lab"
          }
        ],
        "category": [
          {
            "coding": [
              {
                "system": "http://terminology.hl7.org/CodeSystem/observation-category",
                "code": "laboratory"
              }
            ]
          }
        ],
        "code": {
          "coding": [
            {
              "code": "777-3",
              "system": "http://loinc.org",
              "display": "Platelets [#/volume] in Blood by Automated count"
            }
          ],
          "text": "Platelets [#/volume] in Blood by Automated count"
        },
        "valueQuantity": {
          "system": "http://unitsofmeasure.org",
          "value": 230.3,
          "unit": "10*3/uL",
          "code": "10*3/uL"
        },
        "referenceRange": [
          {
            "low": {
              "value": 150,
              "code": "10*3/uL",
              "system": "http://unitsofmeasure.org"
            }
          },
          {
            "high": {
              "value": 450,
              "code": "10*3/uL",
              "system": "http://unitsofmeasure.org"
            }
          }
        ],
        "text": {
          "status": "generated",
          "div": "<div xmlns=\"http://www.w3.org/1999/xhtml\"><table class=\"hl7__eu__lab__report\"><tr><th>Test</th><th>24-Mar-2019</th><th>Reference&#xA0;Range</th><th>Unit</th></tr><tr><td>Platelets [#/volume] in Blood by Automated count</td><td>230.3</td><td>150 - 450</td><td></td><td>10*3/uL</td></tr></table></div>"
        },
        "status": "final",
        "subject": {
          "reference": "urn:uuid:cdda6b85-7457-4327-825f-a59360310679",
          "display": "Katy Johnston"
        },
        "effectiveDateTime": "2019-03-24T09:58:49Z",
        "specimen": {
          "reference": "urn:uuid:d9ec4588-356f-4b53-bbc9-6608a4ac18bf"
        }
      }
    },
    {
      "fullUrl": "urn:uuid:1305bd5e-cb90-4d30-b2d5-2c2fd97658d9",
      "resource": {
        "resourceType": "Observation",
        "id": "1305bd5e-cb90-4d30-b2d5-2c2fd97658d9",
        "meta": {
          "profile": [
            "http://hl7.eu/fhir/laboratory/StructureDefinition/Observation-resultslab-eu-lab"
          ]
        },
        "performer": [
          {
            "display": "The Central European Lab"
          }
        ],
        "category": [
          {
            "coding": [
              {
                "system": "http://terminology.hl7.org/CodeSystem/observation-category",
                "code": "laboratory"
              }
            ]
          }
        ],
        "code": {
          "coding": [
            {
              "code": "32207-3",
              "system": "http://loinc.org",
              "display": "Platelet distribution width [Entitic volume] in Blood by Automated count"
            }
          ],
          "text": "Platelet distribution width [Entitic volume] in Blood by Automated count"
        },
        "valueQuantity": {
          "system": "http://unitsofmeasure.org",
          "value": 352.5,
          "unit": "fL",
          "code": "fL"
        },
        "referenceRange": [
          {
            "low": {
              "value": 11.6,
              "code": "fL",
              "system": "http://unitsofmeasure.org"
            }
          },
          {
            "high": {
              "value": 17.4,
              "code": "fL",
              "system": "http://unitsofmeasure.org"
            }
          }
        ],
        "interpretation": [
          {
            "coding": [
              {
                "code": "H",
                "system": "http://terminology.hl7.org/CodeSystem/v3-ObservationInterpretation",
                "display": "High"
              }
            ]
          }
        ],
        "text": {
          "status": "generated",
          "div": "<div xmlns=\"http://www.w3.org/1999/xhtml\"><table class=\"hl7__eu__lab__report\"><tr><th>Test</th><th>24-Mar-2019</th><th>Reference&#xA0;Range</th><th>Unit</th></tr><tr><td>Platelet distribution width [Entitic volume] in Blood by Automated count</td><td>352.5</td><td>11.6 - 17.4</td><td>H</td><td>fL</td></tr></table></div>"
        },
        "status": "final",
        "subject": {
          "reference": "urn:uuid:cdda6b85-7457-4327-825f-a59360310679",
          "display": "Katy Johnston"
        },
        "effectiveDateTime": "2019-03-24T09:58:49Z",
        "specimen": {
          "reference": "urn:uuid:d9ec4588-356f-4b53-bbc9-6608a4ac18bf"
        }
      }
    },
    {
      "fullUrl": "urn:uuid:abd75562-5607-4557-bedb-863f2a85cecb",
      "resource": {
        "resourceType": "Observation",
        "id": "abd75562-5607-4557-bedb-863f2a85cecb",
        "meta": {
          "profile": [
            "http://hl7.eu/fhir/laboratory/StructureDefinition/Observation-resultslab-eu-lab"
          ]
        },
        "performer": [
          {
            "display": "The Central European Lab"
          }
        ],
        "category": [
          {
            "coding": [
              {
                "system": "http://terminology.hl7.org/CodeSystem/observation-category",
                "code": "laboratory"
              }
            ]
          }
        ],
        "code": {
          "coding": [
            {
              "code": "32623-1",
              "system": "http://loinc.org",
              "display": "Platelet mean volume [Entitic volume] in Blood by Automated count"
            }
          ],
          "text": "Platelet mean volume [Entitic volume] in Blood by Automated count"
        },
        "valueQuantity": {
          "system": "http://unitsofmeasure.org",
          "value": 11.8,
          "unit": "fL",
          "code": "fL"
        },
        "referenceRange": [
          {
            "low": {
              "value": 9.4,
              "code": "fL",
              "system": "http://unitsofmeasure.org"
            }
          },
          {
            "high": {
              "value": 14,
              "code": "fL",
              "system": "http://unitsofmeasure.org"
            }
          }
        ],
        "text": {
          "status": "generated",
          "div": "<div xmlns=\"http://www.w3.org/1999/xhtml\"><table class=\"hl7__eu__lab__report\"><tr><th>Test</th><th>24-Mar-2019</th><th>Reference&#xA0;Range</th><th>Unit</th></tr><tr><td>Platelet mean volume [Entitic volume] in Blood by Automated count</td><td>11.8</td><td>9.4 - 14</td><td></td><td>fL</td></tr></table></div>"
        },
        "status": "final",
        "subject": {
          "reference": "urn:uuid:cdda6b85-7457-4327-825f-a59360310679",
          "display": "Katy Johnston"
        },
        "effectiveDateTime": "2019-03-24T09:58:49Z",
        "specimen": {
          "reference": "urn:uuid:d9ec4588-356f-4b53-bbc9-6608a4ac18bf"
        }
      }
    },
    {
      "fullUrl": "urn:uuid:79078adf-9b4d-498e-827b-638b46e99503",
      "resource": {
        "resourceType": "Device",
        "id": "79078adf-9b4d-498e-827b-638b46e99503",
        "deviceName": [
          {
            "name": "SYNDERAI Synthetic Generator",
            "type": "manufacturer-name"
          }
        ],
        "version": [
          {
            "value": "5.0"
          }
        ],
        "text": {
          "status": "generated",
          "div": "<div xmlns=\"http://www.w3.org/1999/xhtml\">SYNDERAI Synthetic Generator v5.0</div>"
        },
        "status": "active\"",
        "distinctIdentifier": "synderai-generator-50",
        "manufacturer": "SYNDERAI Project"
      }
    },
    {
      "fullUrl": "urn:uuid:41860830-62c3-4eda-bef3-bccd78e164d3",
      "resource": {
        "resourceType": "Provenance",
        "id": "41860830-62c3-4eda-bef3-bccd78e164d3",
        "target": [
          {
            "reference": "Patient/cdda6b85-7457-4327-825f-a59360310679"
          },
          {
            "reference": "Bundle/29fa3620-c9f1-4b94-b985-a876fdb9e189"
          },
          {
            "reference": "Composition/92db7627-4d05-4a0e-9f22-8b6885b6be2b"
          },
          {
            "reference": "PractitionerRole/d7b8cd8c-a1cb-4fe0-9958-cf2594a89967"
          },
          {
            "reference": "Practitioner/1a626932-62f0-4e13-9fed-34078ad43381"
          },
          {
            "reference": "PractitionerRole/d4471d47-cf84-442a-8f55-89b1c577d8ec"
          },
          {
            "reference": "Organization/8d167282-1a00-42ac-9efb-dc38cef077d1"
          }
        ],
        "activity": {
          "text": "Synthetic Example Data Generation"
        },
        "policy": [
          "https://synderai.net/synderai-synthetic-data-policy"
        ],
        "agent": [
          {
            "type": {
              "text": "author"
            },
            "who": {
              "reference": "Device/79078adf-9b4d-498e-827b-638b46e99503"
            }
          }
        ],
        "reason": [
          {
            "text": "Interoperability Testing and Training (non-clinical use)"
          }
        ],
        "text": {
          "status": "generated",
          "div": "<div xmlns=\"http://www.w3.org/1999/xhtml\">Provenance for SYNDERAI Synthetic Example Data Resource</div>"
        },
        "recorded": "2019-03-24T10:58:49Z"
      }
    },
    {
      "fullUrl": "urn:uuid:d7b8cd8c-a1cb-4fe0-9958-cf2594a89967",
      "resource": {
        "resourceType": "PractitionerRole",
        "id": "d7b8cd8c-a1cb-4fe0-9958-cf2594a89967",
        "meta": {
          "profile": [
            "http://hl7.eu/fhir/base/StructureDefinition/practitionerRole-eu"
          ]
        },
        "text": {
          "status": "generated",
          "div": "<div xmlns=\"http://www.w3.org/1999/xhtml\">Laboratory Role Id: d7b8cd8c-a1cb-4fe0-9958-cf2594a89967</div>"
        },
        "practitioner": {
          "reference": "urn:uuid:1a626932-62f0-4e13-9fed-34078ad43381"
        }
      }
    },
    {
      "fullUrl": "urn:uuid:1a626932-62f0-4e13-9fed-34078ad43381",
      "resource": {
        "resourceType": "Practitioner",
        "id": "1a626932-62f0-4e13-9fed-34078ad43381",
        "meta": {
          "profile": [
            "http://hl7.eu/fhir/base/StructureDefinition/practitioner-eu"
          ]
        },
        "identifier": [
          {
            "assigner": {
              "display": "HL7 Europe"
            },
            "system": "urn:oid:2.16.840.1.113883.2.51.999",
            "value": "e1b9a97f-a3be-495b-904f-0d39cc9cdee2"
          }
        ],
        "name": [
          {
            "prefix": [
              "dr"
            ],
            "given": [
              "Ex"
            ],
            "family": "Ample"
          }
        ],
        "address": [
          {
            "line": [
              "Laboratoire Central Européenne",
              "Boulevard du Jardin Botanique 32"
            ],
            "postalCode": "1000",
            "city": "Brussels",
            "country": "Belgium"
          }
        ],
        "text": {
          "status": "generated",
          "div": "<div xmlns=\"http://www.w3.org/1999/xhtml\">Laboratory: Laboratoire Central Européenne, 1000 Brussels, Belgium</div>"
        }
      }
    }
  ],
  "type": "document",
  "timestamp": "2019-03-24T10:58:49Z"
}
