{
  "resourceType": "Bundle",
  "id": "693fcce5-e44e-4cac-8140-a8dfffead43f",
  "meta": {
    "profile": [
      "http://hl7.eu/fhir/laboratory/StructureDefinition/Bundle-eu-lab"
    ]
  },
  "identifier": {
    "assigner": {
      "display": "HL7 Europe"
    },
    "system": "urn:oid:2.16.840.1.113883.2.51.999",
    "value": "ed4b6a1a-daa7-437f-8323-784b9c76eab5"
  },
  "entry": [
    {
      "fullUrl": "urn:uuid:9dd9e41d-92f1-45c9-a05e-1a325a040430",
      "resource": {
        "resourceType": "Composition",
        "id": "9dd9e41d-92f1-45c9-a05e-1a325a040430",
        "meta": {
          "profile": [
            "http://hl7.eu/fhir/laboratory/StructureDefinition/Composition-eu-lab"
          ]
        },
        "identifier": {
          "assigner": {
            "display": "HL7 Europe"
          },
          "system": "urn:oid:2.16.840.1.113883.2.51.999",
          "value": "6e862390-74be-4cfc-be6e-00259bfb443c"
        },
        "author": [
          {
            "reference": "urn:uuid:47d18923-6491-47e9-ae71-190c939758e4"
          }
        ],
        "category": [
          {
            "coding": [
              {
                "code": "26436-6",
                "system": "http://loinc.org",
                "display": "Laboratory studies (set)"
              }
            ]
          }
        ],
        "type": {
          "coding": [
            {
              "code": "11502-2",
              "system": "http://loinc.org",
              "display": "Laboratory report"
            }
          ],
          "text": "Laboratory Report"
        },
        "section": [
          {
            "code": {
              "coding": [
                {
                  "code": "26436-6",
                  "system": "http://loinc.org",
                  "display": "Laboratory studies (set)"
                }
              ],
              "text": "Laboratory studies"
            },
            "section": [
              {
                "code": {
                  "coding": [
                    {
                      "code": "$18719-5",
                      "system": "http://loinc.org",
                      "display": "Chemistry studies (set)"
                    }
                  ],
                  "text": "Chemistry"
                },
                "entry": [
                  {
                    "reference": "urn:uuid:e85a51f1-ad4e-493b-a2f7-d4880e1318d7"
                  },
                  {
                    "reference": "urn:uuid:f20918f9-d1d5-44be-9cda-36d07759d1f7"
                  },
                  {
                    "reference": "urn:uuid:a27b7b27-51a2-459f-b77b-8d04fce3d483"
                  },
                  {
                    "reference": "urn:uuid:16b758ff-8b60-4bcd-b709-970d6524137a"
                  }
                ],
                "text": {
                  "status": "generated",
                  "div": "<div xmlns=\"http://www.w3.org/1999/xhtml\"><h3>Chemistry</h3><table class=\"hl7__eu__lab__report\"><thead><tr><th>Test</th><th>11-APR-2022</th><th>Reference&#xA0;Range</th><th>Unit</th></tr></thead><tbody><tr><td>Cholesterol [Mass/volume] in Serum or Plasma</td><td>162.3</td><td>130 - 200</td><td>mg/dL</td></tr><tr><td>Triglyceride [Mass/volume] in Serum or Plasma</td><td>142.8</td><td>35 - 175</td><td>mg/dL</td></tr><tr><td>Cholesterol in LDL [Mass/volume] in Serum or Plasma by Direct assay</td><td>86.0</td><td>0 - 190</td><td>mg/dL</td></tr><tr><td>Cholesterol in HDL [Mass/volume] in Serum or Plasma</td><td><strong>47.7 L</strong></td><td>50 - 100</td><td>mg/dL</td></tr></tbody></table></div>"
                },
                "title": "Chemistry"
              }
            ],
            "title": "Laboratory Report"
          },
          {
            "text": {
              "status": "generated",
              "div": "<div xmlns=\"http://www.w3.org/1999/xhtml\"><h3>Annotation</h3><table class=\"hl7__eu__lab__report\"><tr><th>Conclusion and Recommendations based on this report and previous findings known to us</th></tr><tr><td>Lipid profile is within normal limits except for a mildly decreased HDL cholesterol. Low HDL is a cardiovascular risk factor; consider lifestyle modifications such as increased physical activity and dietary changes. No other lipid abnormalities detected. Correlate with clinical context and other risk factors.</td></tr></table></div>"
            },
            "code": {
              "coding": [
                {
                  "system": "http://loinc.org",
                  "code": "48767-8",
                  "display": "Annotation comment"
                }
              ]
            },
            "title": "Annotation comment"
          }
        ],
        "status": "final",
        "subject": {
          "reference": "urn:uuid:7fe8eb3b-5b69-42f2-bbaa-45eb195dd7a0",
          "display": "Eileen Taylor"
        },
        "date": "2022-04-11T07:47:02Z",
        "title": "Laboratory Report",
        "confidentiality": "N"
      }
    },
    {
      "fullUrl": "urn:uuid:7c891877-5ea4-4463-9874-e872c60db72e",
      "resource": {
        "resourceType": "DiagnosticReport",
        "id": "7c891877-5ea4-4463-9874-e872c60db72e",
        "meta": {
          "profile": [
            "http://hl7.eu/fhir/laboratory/StructureDefinition/DiagnosticReport-eu-lab"
          ]
        },
        "identifier": [
          {
            "assigner": {
              "display": "HL7 Europe"
            },
            "system": "urn:oid:2.16.840.1.113883.2.51.999",
            "value": "eb7c4a77-97a8-45e3-b6fa-3cc53ff48986"
          }
        ],
        "extension": [
          {
            "url": "http://hl7.org/fhir/5.0/StructureDefinition/extension-DiagnosticReport.composition",
            "valueReference": {
              "reference": "urn:uuid:6e862390-74be-4cfc-be6e-00259bfb443c"
            }
          }
        ],
        "category": [
          {
            "coding": [
              {
                "code": "26436-6",
                "system": "http://loinc.org",
                "display": "Laboratory studies (set)"
              }
            ]
          }
        ],
        "specimen": [
          {
            "reference": "urn:uuid:2ae2b7cd-1071-423b-9ee5-e5ba77723925"
          }
        ],
        "result": [
          {
            "reference": "urn:uuid:e85a51f1-ad4e-493b-a2f7-d4880e1318d7"
          },
          {
            "reference": "urn:uuid:f20918f9-d1d5-44be-9cda-36d07759d1f7"
          },
          {
            "reference": "urn:uuid:a27b7b27-51a2-459f-b77b-8d04fce3d483"
          },
          {
            "reference": "urn:uuid:16b758ff-8b60-4bcd-b709-970d6524137a"
          }
        ],
        "status": "registered",
        "code": {
          "coding": [
            {
              "code": "11502-2",
              "system": "http://loinc.org",
              "display": "Laboratory report"
            }
          ]
        },
        "subject": {
          "reference": "urn:uuid:7fe8eb3b-5b69-42f2-bbaa-45eb195dd7a0",
          "display": "Eileen Taylor"
        }
      }
    },
    {
      "fullUrl": "urn:uuid:7fe8eb3b-5b69-42f2-bbaa-45eb195dd7a0",
      "resource": {
        "resourceType": "Patient",
        "id": "7fe8eb3b-5b69-42f2-bbaa-45eb195dd7a0",
        "meta": {
          "security": [
            {
              "system": "http://terminology.hl7.org/CodeSystem/v3-ActReason",
              "code": "HTEST"
            },
            {
              "system": "http://terminology.hl7.org/CodeSystem/v3-ActReason",
              "code": "TRAIN"
            }
          ],
          "tag": [
            {
              "system": "https://synderai.net/fhir/CodeSystem/tags",
              "code": "synthetic",
              "display": "SYNDERAI Synthetic data"
            }
          ],
          "profile": [
            "http://hl7.eu/fhir/base/StructureDefinition/patient-eu-core"
          ]
        },
        "identifier": [
          {
            "type": {
              "coding": [
                {
                  "code": "PT",
                  "system": "http://terminology.hl7.org/CodeSystem/v2-0203"
                }
              ]
            },
            "system": "http://ec.europa.eu/identifier/eci",
            "value": "6172-576075-7"
          },
          {
            "type": {
              "coding": [
                {
                  "code": "MR",
                  "system": "http://terminology.hl7.org/CodeSystem/v2-0203"
                }
              ]
            },
            "system": "http://local.setting.eu/identifier",
            "value": "f7f175da-cf0d-5686-8800-840d9ab7b47b"
          }
        ],
        "name": [
          {
            "family": "Taylor"
          },
          {
            "given": [
              "Eileen"
            ]
          },
          {
            "text": "Eileen Taylor"
          }
        ],
        "address": [
          {
            "line": [
              "39 Slater harbors"
            ],
            "use": "home",
            "type": "physical",
            "postalCode": "LE17",
            "city": "Smithtown",
            "country": "United Kingdom"
          }
        ],
        "telecom": [
          {
            "system": "phone",
            "value": "+44(0)1614960460"
          }
        ],
        "extension": [
          {
            "url": "http://hl7.org/fhir/StructureDefinition/patient-nationality",
            "valueCodeableConcept": {
              "coding": [
                {
                  "code": "GB",
                  "system": "http://hl7.org/fhir/ValueSet/country"
                }
              ]
            }
          }
        ],
        "text": {
          "status": "generated",
          "div": "<div xmlns=\"http://www.w3.org/1999/xhtml\"><table class=\"hl7__ips\"><tr><td>Eileen Taylor</td><td>female</td><td>11-Dec-1951</td></tr></table></div>"
        },
        "gender": "female",
        "birthDate": "1951-12-11"
      }
    },
    {
      "fullUrl": "urn:uuid:0314d154-2fa9-4f9c-a734-1b476e3a5aba",
      "resource": {
        "resourceType": "ServiceRequest",
        "id": "0314d154-2fa9-4f9c-a734-1b476e3a5aba",
        "meta": {
          "profile": [
            "http://hl7.eu/fhir/laboratory/StructureDefinition/ServiceRequest-eu-lab"
          ]
        },
        "identifier": [
          {
            "system": "http://example.org",
            "value": "e9f7d11b-d428-4ba6-b4a9-af3fd4a2ce12"
          }
        ],
        "specimen": [
          {
            "reference": "urn:uuid:2ae2b7cd-1071-423b-9ee5-e5ba77723925"
          }
        ],
        "reasonCode": [
          {
            "coding": [
              {
                "code": "203082005",
                "system": "http://snomed.info/sct",
                "display": "Fibromyalgia"
              }
            ]
          },
          {
            "coding": [
              {
                "code": "239873007",
                "system": "http://snomed.info/sct",
                "display": "Osteoarthritis of knee"
              }
            ]
          },
          {
            "coding": [
              {
                "code": "55822004",
                "system": "http://snomed.info/sct",
                "display": "Hyperlipidemia"
              }
            ]
          },
          {
            "coding": [
              {
                "code": "254837009",
                "system": "http://snomed.info/sct",
                "display": "Malignant neoplasm of breast"
              }
            ]
          },
          {
            "coding": [
              {
                "code": "197927001",
                "system": "http://snomed.info/sct",
                "display": "Recurrent urinary tract infection"
              }
            ]
          }
        ],
        "status": "active",
        "intent": "order",
        "code": {
          "coding": [
            {
              "code": "108252007",
              "system": "http://snomed.info/sct",
              "display": "Laboratory procedure"
            }
          ]
        },
        "subject": {
          "reference": "urn:uuid:7fe8eb3b-5b69-42f2-bbaa-45eb195dd7a0",
          "display": "Eileen Taylor"
        },
        "requester": {
          "reference": "urn:uuid:f6056c86-b23f-4970-8f25-bbb119279a8c"
        }
      }
    },
    {
      "fullUrl": "urn:uuid:f6056c86-b23f-4970-8f25-bbb119279a8c",
      "resource": {
        "resourceType": "PractitionerRole",
        "id": "f6056c86-b23f-4970-8f25-bbb119279a8c",
        "meta": {
          "profile": [
            "http://hl7.eu/fhir/base/StructureDefinition/practitionerRole-eu"
          ]
        },
        "text": {
          "status": "generated",
          "div": "<div xmlns=\"http://www.w3.org/1999/xhtml\">Provider Role Id: f6056c86-b23f-4970-8f25-bbb119279a8c</div>"
        },
        "organization": {
          "reference": "urn:uuid:3bf8a114-b815-4fb9-8b1e-9ce3da2ac347"
        }
      }
    },
    {
      "fullUrl": "urn:uuid:3bf8a114-b815-4fb9-8b1e-9ce3da2ac347",
      "resource": {
        "resourceType": "Organization",
        "id": "3bf8a114-b815-4fb9-8b1e-9ce3da2ac347",
        "meta": {
          "profile": [
            "http://hl7.eu/fhir/base/StructureDefinition/organization-eu"
          ]
        },
        "identifier": [
          {
            "assigner": {
              "display": "HL7 Europe"
            },
            "system": "urn:oid:2.16.840.1.113883.2.51.999",
            "value": "546c1b49-d8ce-46d2-a3a8-c758042bd769"
          }
        ],
        "address": [
          {
            "city": "Leicester",
            "postalCode": "LE2 7",
            "country": "United Kingdom"
          }
        ],
        "text": {
          "status": "generated",
          "div": "<div xmlns=\"http://www.w3.org/1999/xhtml\">Provider Organization: Leicester Royal Infirmary</div>"
        },
        "name": "Leicester Royal Infirmary"
      }
    },
    {
      "fullUrl": "urn:uuid:2ae2b7cd-1071-423b-9ee5-e5ba77723925",
      "resource": {
        "resourceType": "Specimen",
        "id": "2ae2b7cd-1071-423b-9ee5-e5ba77723925",
        "meta": {
          "profile": [
            "http://hl7.eu/fhir/laboratory/StructureDefinition/Specimen-eu-lab"
          ]
        },
        "collection": {
          "collectedDateTime": "2022-04-11"
        },
        "text": {
          "status": "generated",
          "div": "<div xmlns=\"http://www.w3.org/1999/xhtml\"><table class=\"hl7__eu__lab__report\"><tr><th>Specimen</th><th>Collection Date</th></tr><tr><td>Acellular blood (serum or plasma) specimen</td><td><span class=\"nb\">11-Apr-2022</span></td></tr></table></div>"
        },
        "type": {
          "coding": [
            {
              "code": "122592007",
              "system": "http://snomed.info/sct",
              "display": "Acellular blood (serum or plasma) specimen"
            }
          ]
        }
      }
    },
    {
      "fullUrl": "urn:uuid:e85a51f1-ad4e-493b-a2f7-d4880e1318d7",
      "resource": {
        "resourceType": "Observation",
        "id": "e85a51f1-ad4e-493b-a2f7-d4880e1318d7",
        "meta": {
          "profile": [
            "http://hl7.eu/fhir/laboratory/StructureDefinition/Observation-resultslab-eu-lab"
          ]
        },
        "performer": [
          {
            "display": "The Central European Lab"
          }
        ],
        "category": [
          {
            "coding": [
              {
                "system": "http://terminology.hl7.org/CodeSystem/observation-category",
                "code": "laboratory"
              }
            ]
          }
        ],
        "code": {
          "coding": [
            {
              "code": "2093-3",
              "system": "http://loinc.org",
              "display": "Cholesterol [Mass/volume] in Serum or Plasma"
            }
          ],
          "text": "Cholesterol [Mass/volume] in Serum or Plasma"
        },
        "valueQuantity": {
          "system": "http://unitsofmeasure.org",
          "value": 162.3,
          "unit": "mg/dL",
          "code": "mg/dL"
        },
        "referenceRange": [
          {
            "low": {
              "value": 130,
              "code": "mg/dL",
              "system": "http://unitsofmeasure.org"
            }
          },
          {
            "high": {
              "value": 200,
              "code": "mg/dL",
              "system": "http://unitsofmeasure.org"
            }
          }
        ],
        "text": {
          "status": "generated",
          "div": "<div xmlns=\"http://www.w3.org/1999/xhtml\"><table class=\"hl7__eu__lab__report\"><tr><th>Test</th><th>11-Apr-2022</th><th>Reference&#xA0;Range</th><th>Unit</th></tr><tr><td>Cholesterol [Mass/volume] in Serum or Plasma</td><td>162.3</td><td>130 - 200</td><td></td><td>mg/dL</td></tr></table></div>"
        },
        "status": "final",
        "subject": {
          "reference": "urn:uuid:7fe8eb3b-5b69-42f2-bbaa-45eb195dd7a0",
          "display": "Eileen Taylor"
        },
        "effectiveDateTime": "2022-04-11T05:47:02Z",
        "specimen": {
          "reference": "urn:uuid:2ae2b7cd-1071-423b-9ee5-e5ba77723925"
        }
      }
    },
    {
      "fullUrl": "urn:uuid:f20918f9-d1d5-44be-9cda-36d07759d1f7",
      "resource": {
        "resourceType": "Observation",
        "id": "f20918f9-d1d5-44be-9cda-36d07759d1f7",
        "meta": {
          "profile": [
            "http://hl7.eu/fhir/laboratory/StructureDefinition/Observation-resultslab-eu-lab"
          ]
        },
        "performer": [
          {
            "display": "The Central European Lab"
          }
        ],
        "category": [
          {
            "coding": [
              {
                "system": "http://terminology.hl7.org/CodeSystem/observation-category",
                "code": "laboratory"
              }
            ]
          }
        ],
        "code": {
          "coding": [
            {
              "code": "2571-8",
              "system": "http://loinc.org",
              "display": "Triglyceride [Mass/volume] in Serum or Plasma"
            }
          ],
          "text": "Triglyceride [Mass/volume] in Serum or Plasma"
        },
        "valueQuantity": {
          "system": "http://unitsofmeasure.org",
          "value": 142.8,
          "unit": "mg/dL",
          "code": "mg/dL"
        },
        "referenceRange": [
          {
            "low": {
              "value": 35,
              "code": "mg/dL",
              "system": "http://unitsofmeasure.org"
            }
          },
          {
            "high": {
              "value": 175,
              "code": "mg/dL",
              "system": "http://unitsofmeasure.org"
            }
          }
        ],
        "text": {
          "status": "generated",
          "div": "<div xmlns=\"http://www.w3.org/1999/xhtml\"><table class=\"hl7__eu__lab__report\"><tr><th>Test</th><th>11-Apr-2022</th><th>Reference&#xA0;Range</th><th>Unit</th></tr><tr><td>Triglyceride [Mass/volume] in Serum or Plasma</td><td>142.8</td><td>35 - 175</td><td></td><td>mg/dL</td></tr></table></div>"
        },
        "status": "final",
        "subject": {
          "reference": "urn:uuid:7fe8eb3b-5b69-42f2-bbaa-45eb195dd7a0",
          "display": "Eileen Taylor"
        },
        "effectiveDateTime": "2022-04-11T05:47:02Z",
        "specimen": {
          "reference": "urn:uuid:2ae2b7cd-1071-423b-9ee5-e5ba77723925"
        }
      }
    },
    {
      "fullUrl": "urn:uuid:a27b7b27-51a2-459f-b77b-8d04fce3d483",
      "resource": {
        "resourceType": "Observation",
        "id": "a27b7b27-51a2-459f-b77b-8d04fce3d483",
        "meta": {
          "profile": [
            "http://hl7.eu/fhir/laboratory/StructureDefinition/Observation-resultslab-eu-lab"
          ]
        },
        "performer": [
          {
            "display": "The Central European Lab"
          }
        ],
        "category": [
          {
            "coding": [
              {
                "system": "http://terminology.hl7.org/CodeSystem/observation-category",
                "code": "laboratory"
              }
            ]
          }
        ],
        "code": {
          "coding": [
            {
              "code": "18262-6",
              "system": "http://loinc.org",
              "display": "Cholesterol in LDL [Mass/volume] in Serum or Plasma by Direct assay"
            }
          ],
          "text": "Cholesterol in LDL [Mass/volume] in Serum or Plasma by Direct assay"
        },
        "valueQuantity": {
          "system": "http://unitsofmeasure.org",
          "value": 86,
          "unit": "mg/dL",
          "code": "mg/dL"
        },
        "referenceRange": [
          {
            "low": {
              "value": 0,
              "code": "mg/dL",
              "system": "http://unitsofmeasure.org"
            }
          },
          {
            "high": {
              "value": 190,
              "code": "mg/dL",
              "system": "http://unitsofmeasure.org"
            }
          }
        ],
        "text": {
          "status": "generated",
          "div": "<div xmlns=\"http://www.w3.org/1999/xhtml\"><table class=\"hl7__eu__lab__report\"><tr><th>Test</th><th>11-Apr-2022</th><th>Reference&#xA0;Range</th><th>Unit</th></tr><tr><td>Cholesterol in LDL [Mass/volume] in Serum or Plasma by Direct assay</td><td>86.0</td><td>0 - 190</td><td></td><td>mg/dL</td></tr></table></div>"
        },
        "status": "final",
        "subject": {
          "reference": "urn:uuid:7fe8eb3b-5b69-42f2-bbaa-45eb195dd7a0",
          "display": "Eileen Taylor"
        },
        "effectiveDateTime": "2022-04-11T05:47:02Z",
        "specimen": {
          "reference": "urn:uuid:2ae2b7cd-1071-423b-9ee5-e5ba77723925"
        }
      }
    },
    {
      "fullUrl": "urn:uuid:16b758ff-8b60-4bcd-b709-970d6524137a",
      "resource": {
        "resourceType": "Observation",
        "id": "16b758ff-8b60-4bcd-b709-970d6524137a",
        "meta": {
          "profile": [
            "http://hl7.eu/fhir/laboratory/StructureDefinition/Observation-resultslab-eu-lab"
          ]
        },
        "performer": [
          {
            "display": "The Central European Lab"
          }
        ],
        "category": [
          {
            "coding": [
              {
                "system": "http://terminology.hl7.org/CodeSystem/observation-category",
                "code": "laboratory"
              }
            ]
          }
        ],
        "code": {
          "coding": [
            {
              "code": "2085-9",
              "system": "http://loinc.org",
              "display": "Cholesterol in HDL [Mass/volume] in Serum or Plasma"
            }
          ],
          "text": "Cholesterol in HDL [Mass/volume] in Serum or Plasma"
        },
        "valueQuantity": {
          "system": "http://unitsofmeasure.org",
          "value": 47.7,
          "unit": "mg/dL",
          "code": "mg/dL"
        },
        "referenceRange": [
          {
            "low": {
              "value": 50,
              "code": "mg/dL",
              "system": "http://unitsofmeasure.org"
            }
          },
          {
            "high": {
              "value": 100,
              "code": "mg/dL",
              "system": "http://unitsofmeasure.org"
            }
          }
        ],
        "interpretation": [
          {
            "coding": [
              {
                "code": "L",
                "system": "http://terminology.hl7.org/CodeSystem/v3-ObservationInterpretation",
                "display": "Low"
              }
            ]
          }
        ],
        "text": {
          "status": "generated",
          "div": "<div xmlns=\"http://www.w3.org/1999/xhtml\"><table class=\"hl7__eu__lab__report\"><tr><th>Test</th><th>11-Apr-2022</th><th>Reference&#xA0;Range</th><th>Unit</th></tr><tr><td>Cholesterol in HDL [Mass/volume] in Serum or Plasma</td><td>47.7</td><td>50 - 100</td><td>L</td><td>mg/dL</td></tr></table></div>"
        },
        "status": "final",
        "subject": {
          "reference": "urn:uuid:7fe8eb3b-5b69-42f2-bbaa-45eb195dd7a0",
          "display": "Eileen Taylor"
        },
        "effectiveDateTime": "2022-04-11T05:47:02Z",
        "specimen": {
          "reference": "urn:uuid:2ae2b7cd-1071-423b-9ee5-e5ba77723925"
        }
      }
    },
    {
      "fullUrl": "urn:uuid:e21eeb1a-9011-420f-bd0b-a763e749f641",
      "resource": {
        "resourceType": "Device",
        "id": "e21eeb1a-9011-420f-bd0b-a763e749f641",
        "deviceName": [
          {
            "name": "SYNDERAI Synthetic Generator",
            "type": "manufacturer-name"
          }
        ],
        "version": [
          {
            "value": "5.0"
          }
        ],
        "text": {
          "status": "generated",
          "div": "<div xmlns=\"http://www.w3.org/1999/xhtml\">SYNDERAI Synthetic Generator v5.0</div>"
        },
        "status": "active\"",
        "distinctIdentifier": "synderai-generator-50",
        "manufacturer": "SYNDERAI Project"
      }
    },
    {
      "fullUrl": "urn:uuid:4c976f5c-62f9-4e62-b212-3d77891ebb49",
      "resource": {
        "resourceType": "Provenance",
        "id": "4c976f5c-62f9-4e62-b212-3d77891ebb49",
        "target": [
          {
            "reference": "Patient/7fe8eb3b-5b69-42f2-bbaa-45eb195dd7a0"
          },
          {
            "reference": "Bundle/693fcce5-e44e-4cac-8140-a8dfffead43f"
          },
          {
            "reference": "Composition/9dd9e41d-92f1-45c9-a05e-1a325a040430"
          },
          {
            "reference": "PractitionerRole/47d18923-6491-47e9-ae71-190c939758e4"
          },
          {
            "reference": "Practitioner/963bc000-c690-45fb-8467-1a5651407d1e"
          },
          {
            "reference": "PractitionerRole/f6056c86-b23f-4970-8f25-bbb119279a8c"
          },
          {
            "reference": "Organization/3bf8a114-b815-4fb9-8b1e-9ce3da2ac347"
          }
        ],
        "activity": {
          "text": "Synthetic Example Data Generation"
        },
        "policy": [
          "https://synderai.net/synderai-synthetic-data-policy"
        ],
        "agent": [
          {
            "type": {
              "text": "author"
            },
            "who": {
              "reference": "Device/e21eeb1a-9011-420f-bd0b-a763e749f641"
            }
          }
        ],
        "reason": [
          {
            "text": "Interoperability Testing and Training (non-clinical use)"
          }
        ],
        "text": {
          "status": "generated",
          "div": "<div xmlns=\"http://www.w3.org/1999/xhtml\">Provenance for SYNDERAI Synthetic Example Data Resource</div>"
        },
        "recorded": "2022-04-11T07:47:02Z"
      }
    },
    {
      "fullUrl": "urn:uuid:47d18923-6491-47e9-ae71-190c939758e4",
      "resource": {
        "resourceType": "PractitionerRole",
        "id": "47d18923-6491-47e9-ae71-190c939758e4",
        "meta": {
          "profile": [
            "http://hl7.eu/fhir/base/StructureDefinition/practitionerRole-eu"
          ]
        },
        "text": {
          "status": "generated",
          "div": "<div xmlns=\"http://www.w3.org/1999/xhtml\">Laboratory Role Id: 47d18923-6491-47e9-ae71-190c939758e4</div>"
        },
        "practitioner": {
          "reference": "urn:uuid:963bc000-c690-45fb-8467-1a5651407d1e"
        }
      }
    },
    {
      "fullUrl": "urn:uuid:963bc000-c690-45fb-8467-1a5651407d1e",
      "resource": {
        "resourceType": "Practitioner",
        "id": "963bc000-c690-45fb-8467-1a5651407d1e",
        "meta": {
          "profile": [
            "http://hl7.eu/fhir/base/StructureDefinition/practitioner-eu"
          ]
        },
        "identifier": [
          {
            "assigner": {
              "display": "HL7 Europe"
            },
            "system": "urn:oid:2.16.840.1.113883.2.51.999",
            "value": "921f1052-c251-4803-a29a-c9eb998b8600"
          }
        ],
        "name": [
          {
            "prefix": [
              "dr"
            ],
            "given": [
              "Ex"
            ],
            "family": "Ample"
          }
        ],
        "address": [
          {
            "line": [
              "Laboratoire Central Européenne",
              "Boulevard du Jardin Botanique 32"
            ],
            "postalCode": "1000",
            "city": "Brussels",
            "country": "Belgium"
          }
        ],
        "text": {
          "status": "generated",
          "div": "<div xmlns=\"http://www.w3.org/1999/xhtml\">Laboratory: Laboratoire Central Européenne, 1000 Brussels, Belgium</div>"
        }
      }
    }
  ],
  "type": "document",
  "timestamp": "2022-04-11T07:47:02Z"
}
