{
  "resourceType": "Bundle",
  "id": "b1f587ad-a9c1-4681-b462-fb1a2e99b431",
  "meta": {
    "profile": [
      "http://hl7.eu/fhir/laboratory/StructureDefinition/Bundle-eu-lab"
    ]
  },
  "identifier": {
    "assigner": {
      "display": "HL7 Europe"
    },
    "system": "urn:oid:2.16.840.1.113883.2.51.999",
    "value": "aeed08ef-6a7f-4234-aff3-8dc13cff07f5"
  },
  "entry": [
    {
      "fullUrl": "urn:uuid:df904131-4a04-4a11-ad13-51e322b0c326",
      "resource": {
        "resourceType": "Composition",
        "id": "df904131-4a04-4a11-ad13-51e322b0c326",
        "meta": {
          "profile": [
            "http://hl7.eu/fhir/laboratory/StructureDefinition/Composition-eu-lab"
          ]
        },
        "identifier": {
          "assigner": {
            "display": "HL7 Europe"
          },
          "system": "urn:oid:2.16.840.1.113883.2.51.999",
          "value": "9e176cc3-e756-4f29-bf97-e3073060fdbe"
        },
        "author": [
          {
            "reference": "urn:uuid:a2c05e76-3697-4585-b747-e067fa4ab267"
          }
        ],
        "category": [
          {
            "coding": [
              {
                "code": "26436-6",
                "system": "http://loinc.org",
                "display": "Laboratory studies (set)"
              }
            ]
          }
        ],
        "type": {
          "coding": [
            {
              "code": "11502-2",
              "system": "http://loinc.org",
              "display": "Laboratory report"
            }
          ],
          "text": "Laboratory Report"
        },
        "section": [
          {
            "code": {
              "coding": [
                {
                  "code": "26436-6",
                  "system": "http://loinc.org",
                  "display": "Laboratory studies (set)"
                }
              ],
              "text": "Laboratory studies"
            },
            "section": [
              {
                "code": {
                  "coding": [
                    {
                      "code": "$18719-5",
                      "system": "http://loinc.org",
                      "display": "Chemistry studies (set)"
                    }
                  ],
                  "text": "Chemistry"
                },
                "entry": [
                  {
                    "reference": "urn:uuid:73cc1510-bd32-4478-9770-a86be8bc0f3f"
                  },
                  {
                    "reference": "urn:uuid:8d5411ea-8c6d-449c-8e79-fab6daba17b8"
                  },
                  {
                    "reference": "urn:uuid:7515a49f-0d58-4fcb-bde6-b09afd59980a"
                  },
                  {
                    "reference": "urn:uuid:c6f279b6-6454-4b3e-b46d-738c18a35e73"
                  },
                  {
                    "reference": "urn:uuid:547d1d7e-0d62-4852-99bf-be674107d0d2"
                  },
                  {
                    "reference": "urn:uuid:058ec0de-6fa8-4de8-9e69-27448b84eb4a"
                  },
                  {
                    "reference": "urn:uuid:7a60de5d-8d94-45d7-bc7e-704c44198f92"
                  },
                  {
                    "reference": "urn:uuid:c48b8fb4-de2a-42a6-8521-ce5d8e37fb55"
                  },
                  {
                    "reference": "urn:uuid:920b166c-2855-426d-88a7-8b6ae1008ac1"
                  },
                  {
                    "reference": "urn:uuid:4c8e05ab-c946-4af5-8233-c3c0138c0bb0"
                  },
                  {
                    "reference": "urn:uuid:f557fa00-1d28-4766-9b1d-031481503093"
                  },
                  {
                    "reference": "urn:uuid:346ca861-f839-4e4e-b6b7-5977da47a15a"
                  },
                  {
                    "reference": "urn:uuid:168448db-2d62-4aea-9460-24f7b74e4018"
                  },
                  {
                    "reference": "urn:uuid:c61253f1-c5b6-44eb-a2e6-ce87c79f67a7"
                  },
                  {
                    "reference": "urn:uuid:b895205b-d958-4e43-b345-4297b100808a"
                  },
                  {
                    "reference": "urn:uuid:5b733855-4f22-47c9-974e-89b1f97d86f4"
                  },
                  {
                    "reference": "urn:uuid:1c1398e9-34ac-4369-b8b1-514d9e528a6b"
                  },
                  {
                    "reference": "urn:uuid:21bc606c-c1f6-4f1d-891b-4aac3c0b4a12"
                  }
                ],
                "text": {
                  "status": "generated",
                  "div": "<div xmlns=\"http://www.w3.org/1999/xhtml\"><h3>Chemistry</h3><table class=\"hl7__eu__lab__report\"><thead><tr><th>Test</th><th>17-FEB-2025</th><th>Reference&#xA0;Range</th><th>Unit</th></tr></thead><tbody><tr><td>Glucose [Mass/volume] in Serum or Plasma</td><td>93.2</td><td>70 - 99</td><td>mg/dL</td></tr><tr><td>Urea nitrogen [Mass/volume] in Serum or Plasma</td><td>15.2</td><td>7 - 50</td><td>mg/dL</td></tr><tr><td>Creatinine [Mass/volume] in Serum or Plasma</td><td><strong>1.9 H</strong></td><td>0.6 - 1.1</td><td>mg/dL</td></tr><tr><td>Calcium [Mass/volume] in Serum or Plasma</td><td>9.9</td><td>8.6 - 10.4</td><td>mg/dL</td></tr><tr><td>Sodium [Moles/volume] in Serum or Plasma</td><td>137.0</td><td>135 - 145</td><td>mmol/L</td></tr><tr><td>Potassium [Moles/volume] in Serum or Plasma</td><td><strong>5.2 H</strong></td><td>3.5 - 5.1</td><td>mmol/L</td></tr><tr><td>Chloride [Moles/volume] in Serum or Plasma</td><td><strong>110.3 H</strong></td><td>98 - 108</td><td>mmol/L</td></tr><tr><td>Carbon dioxide, total [Moles/volume] in Serum or Plasma</td><td>24.9</td><td>22 - 32</td><td>mmol/L</td></tr><tr><td>Ketones [Presence] in Urine by Test strip</td><td>Urine ketone test = ++</td><td></td><td></td></tr><tr><td>Hemoglobin A1c/Hemoglobin.total in Blood</td><td>4.0</td><td>4 - 6.4</td><td>%</td></tr><tr><td>Glucose [Mass/volume] in Blood</td><td>93.2</td><td>70 - 100</td><td>mg/dL</td></tr><tr><td>Urea nitrogen [Mass/volume] in Blood</td><td>15.2</td><td>7 - 43</td><td>mg/dL</td></tr><tr><td>Creatinine [Mass/volume] in Blood</td><td><strong>3.2 H</strong></td><td>0.6 - 1.1</td><td>mg/dL</td></tr><tr><td>Calcium [Mass/volume] in Blood</td><td>9.9</td><td>8.5 - 10.5</td><td>mg/dL</td></tr><tr><td>Sodium [Moles/volume] in Blood</td><td>137.0</td><td>135 - 145</td><td>mmol/L</td></tr><tr><td>Potassium [Moles/volume] in Blood</td><td><strong>5.2 H</strong></td><td>3.5 - 5.1</td><td>mmol/L</td></tr><tr><td>Chloride [Moles/volume] in Blood</td><td><strong>110.3 H</strong></td><td>98 - 108</td><td>mmol/L</td></tr><tr><td>Carbon dioxide, total [Moles/volume] in Blood</td><td>24.9</td><td>22 - 29</td><td>mmol/L</td></tr></tbody></table></div>"
                },
                "title": "Chemistry"
              },
              {
                "code": {
                  "coding": [
                    {
                      "code": "$18729-4",
                      "system": "http://loinc.org",
                      "display": "Urinalysis studies (set)"
                    }
                  ],
                  "text": "Urinalysis"
                },
                "entry": [
                  {
                    "reference": "urn:uuid:e2bb323a-a54f-47b9-9c2e-00b7c85b1a52"
                  },
                  {
                    "reference": "urn:uuid:c89fd295-aaed-4b34-aa04-32902d83d018"
                  },
                  {
                    "reference": "urn:uuid:f35f2f0d-d9dd-4da4-aebf-4540e9caad8d"
                  },
                  {
                    "reference": "urn:uuid:1192e266-5016-4f7c-8a97-f252229299f8"
                  },
                  {
                    "reference": "urn:uuid:48470788-e125-4abb-b1d3-caa9663a32ce"
                  },
                  {
                    "reference": "urn:uuid:91a48daa-edbc-4ccf-ac74-0fef9be153d0"
                  },
                  {
                    "reference": "urn:uuid:08dae269-7104-41a5-87bb-530eca061a99"
                  },
                  {
                    "reference": "urn:uuid:7e967a1b-3f11-4710-bb73-74dc7f2619db"
                  },
                  {
                    "reference": "urn:uuid:6cfbfd68-1be9-4ea8-93da-3e938cd1ccfb"
                  },
                  {
                    "reference": "urn:uuid:ac4ae380-ee37-4036-b20d-6888478e0ef0"
                  },
                  {
                    "reference": "urn:uuid:9cb9dabe-97ee-4d14-aa9f-76dfe113b49b"
                  },
                  {
                    "reference": "urn:uuid:985b4ba2-b8e2-457d-9c03-9866f7393e77"
                  }
                ],
                "text": {
                  "status": "generated",
                  "div": "<div xmlns=\"http://www.w3.org/1999/xhtml\"><h3>Urinalysis</h3><table class=\"hl7__eu__lab__report\"><thead><tr><th>Test</th><th>17-FEB-2025</th><th>Reference&#xA0;Range</th><th>Unit</th></tr></thead><tbody><tr><td>Glucose [Mass/volume] in Urine by Test strip</td><td><strong>1.8 H</strong></td><td>0.8 - 0</td><td>mg/dL</td></tr><tr><td>Glucose [Presence] in Urine by Test strip</td><td>++</td><td></td><td></td></tr><tr><td>Bilirubin.total [Mass/volume] in Urine by Test strip</td><td><strong>1.2 H</strong></td><td>0 - 1</td><td>mg/dL</td></tr><tr><td>Bilirubin.total [Presence] in Urine by Test strip</td><td>Finding of bilirubin in urine</td><td></td><td></td></tr><tr><td>Ketones [Mass/volume] in Urine by Test strip</td><td><strong>15.1 H</strong></td><td>0 - 4</td><td>mg/dL</td></tr><tr><td>Specific gravity of Urine by Test strip</td><td><strong>1.0 L</strong></td><td>1.005 - 1.03</td><td>{nominal}</td></tr><tr><td>pH of Urine by Test strip</td><td>6.2</td><td>4.6 - 7</td><td>pH</td></tr><tr><td>Protein [Mass/volume] in Urine by Test strip</td><td><strong>351.3 H</strong></td><td>0 - 14</td><td>mg/dL</td></tr><tr><td>Protein [Presence] in Urine by Test strip</td><td>Urine protein test = ++</td><td></td><td></td></tr><tr><td>Nitrite [Presence] in Urine by Test strip</td><td>Urine nitrite negative</td><td></td><td></td></tr><tr><td>Hemoglobin [Presence] in Urine by Test strip</td><td>Urine blood test = negative</td><td></td><td></td></tr><tr><td>Leukocyte esterase [Presence] in Urine by Test strip</td><td>Urine leukocyte test negative</td><td></td><td></td></tr></tbody></table></div>"
                },
                "title": "Urinalysis"
              },
              {
                "code": {
                  "coding": [
                    {
                      "code": "$LP7846-1",
                      "system": "http://loinc.org",
                      "display": "Specimen information"
                    }
                  ],
                  "text": "Specimen information"
                },
                "entry": [
                  {
                    "reference": "urn:uuid:4181b37c-4c8b-46b3-bace-c6fdb8a044a9"
                  },
                  {
                    "reference": "urn:uuid:75cbeead-f632-4c57-be60-1919912fb810"
                  },
                  {
                    "reference": "urn:uuid:4309fa27-4e14-485d-8f71-b31bcd393ad4"
                  },
                  {
                    "reference": "urn:uuid:a898d82c-04d8-46b4-8643-c9f747221ec5"
                  }
                ],
                "text": {
                  "status": "generated",
                  "div": "<div xmlns=\"http://www.w3.org/1999/xhtml\"><h3>Specimen information</h3><table class=\"hl7__eu__lab__report\"><thead><tr><th>Test</th><th>17-FEB-2025</th><th>Specimen</th><th></th></tr></thead><tbody><tr><td>Appearance of Urine</td><td>Cloudy urine</td><td>Urine</td><td></td></tr><tr><td>Odor of Urine</td><td>Urine smell ammoniacal</td><td>Urine</td><td></td></tr><tr><td>Clarity of Urine</td><td>Translucent</td><td>Urine</td><td></td></tr><tr><td>Color of Urine</td><td>Brown color</td><td>Urine</td><td></td></tr></tbody></table></div>"
                },
                "title": "Specimen information"
              }
            ],
            "title": "Laboratory Report"
          },
          {
            "text": {
              "status": "generated",
              "div": "<div xmlns=\"http://www.w3.org/1999/xhtml\"><h3>Annotation</h3><table class=\"hl7__eu__lab__report\"><tr><th>Conclusion and Recommendations based on this report and previous findings known to us</th></tr><tr><td>The patient shows significant renal impairment (elevated creatinine, proteinuria), electrolyte disturbances (high potassium, chloride), and abnormal urine findings (cloudy, brown, low specific gravity, protein, glucose, ketones, bilirubin). Blood glucose and HbA1c are normal, suggesting no acute hyperglycemia. Findings are consistent with acute or chronic kidney dysfunction, possible nephrotic syndrome, and possible urinary tract pathology. Prompt nephrology evaluation is recommended.</td></tr></table></div>"
            },
            "code": {
              "coding": [
                {
                  "system": "http://loinc.org",
                  "code": "48767-8",
                  "display": "Annotation comment"
                }
              ]
            },
            "title": "Annotation comment"
          }
        ],
        "status": "final",
        "subject": {
          "reference": "urn:uuid:cc5ca0cf-4eac-4a4e-8bf8-29a4eee59c6a",
          "display": "Meaghan Neary"
        },
        "date": "2025-02-17T23:11:04Z",
        "title": "Laboratory Report",
        "confidentiality": "N"
      }
    },
    {
      "fullUrl": "urn:uuid:4c1a947c-8440-4cce-911e-59a95659cbae",
      "resource": {
        "resourceType": "DiagnosticReport",
        "id": "4c1a947c-8440-4cce-911e-59a95659cbae",
        "meta": {
          "profile": [
            "http://hl7.eu/fhir/laboratory/StructureDefinition/DiagnosticReport-eu-lab"
          ]
        },
        "identifier": [
          {
            "assigner": {
              "display": "HL7 Europe"
            },
            "system": "urn:oid:2.16.840.1.113883.2.51.999",
            "value": "371d584f-ff14-45ca-8e66-efee7c3bf7fb"
          }
        ],
        "extension": [
          {
            "url": "http://hl7.org/fhir/5.0/StructureDefinition/extension-DiagnosticReport.composition",
            "valueReference": {
              "reference": "urn:uuid:9e176cc3-e756-4f29-bf97-e3073060fdbe"
            }
          }
        ],
        "category": [
          {
            "coding": [
              {
                "code": "26436-6",
                "system": "http://loinc.org",
                "display": "Laboratory studies (set)"
              }
            ]
          }
        ],
        "specimen": [
          {
            "reference": "urn:uuid:06c0fd94-22ba-4fd1-8211-280c5adbda5a"
          },
          {
            "reference": "urn:uuid:31eeb9f7-dce0-43be-b187-d555f6c8646b"
          },
          {
            "reference": "urn:uuid:2ce6f378-63fb-49c5-8dc1-f30574fb018a"
          }
        ],
        "result": [
          {
            "reference": "urn:uuid:73cc1510-bd32-4478-9770-a86be8bc0f3f"
          },
          {
            "reference": "urn:uuid:8d5411ea-8c6d-449c-8e79-fab6daba17b8"
          },
          {
            "reference": "urn:uuid:7515a49f-0d58-4fcb-bde6-b09afd59980a"
          },
          {
            "reference": "urn:uuid:c6f279b6-6454-4b3e-b46d-738c18a35e73"
          },
          {
            "reference": "urn:uuid:547d1d7e-0d62-4852-99bf-be674107d0d2"
          },
          {
            "reference": "urn:uuid:058ec0de-6fa8-4de8-9e69-27448b84eb4a"
          },
          {
            "reference": "urn:uuid:7a60de5d-8d94-45d7-bc7e-704c44198f92"
          },
          {
            "reference": "urn:uuid:c48b8fb4-de2a-42a6-8521-ce5d8e37fb55"
          },
          {
            "reference": "urn:uuid:4181b37c-4c8b-46b3-bace-c6fdb8a044a9"
          },
          {
            "reference": "urn:uuid:75cbeead-f632-4c57-be60-1919912fb810"
          },
          {
            "reference": "urn:uuid:4309fa27-4e14-485d-8f71-b31bcd393ad4"
          },
          {
            "reference": "urn:uuid:a898d82c-04d8-46b4-8643-c9f747221ec5"
          },
          {
            "reference": "urn:uuid:e2bb323a-a54f-47b9-9c2e-00b7c85b1a52"
          },
          {
            "reference": "urn:uuid:c89fd295-aaed-4b34-aa04-32902d83d018"
          },
          {
            "reference": "urn:uuid:f35f2f0d-d9dd-4da4-aebf-4540e9caad8d"
          },
          {
            "reference": "urn:uuid:1192e266-5016-4f7c-8a97-f252229299f8"
          },
          {
            "reference": "urn:uuid:48470788-e125-4abb-b1d3-caa9663a32ce"
          },
          {
            "reference": "urn:uuid:920b166c-2855-426d-88a7-8b6ae1008ac1"
          },
          {
            "reference": "urn:uuid:91a48daa-edbc-4ccf-ac74-0fef9be153d0"
          },
          {
            "reference": "urn:uuid:08dae269-7104-41a5-87bb-530eca061a99"
          },
          {
            "reference": "urn:uuid:7e967a1b-3f11-4710-bb73-74dc7f2619db"
          },
          {
            "reference": "urn:uuid:6cfbfd68-1be9-4ea8-93da-3e938cd1ccfb"
          },
          {
            "reference": "urn:uuid:ac4ae380-ee37-4036-b20d-6888478e0ef0"
          },
          {
            "reference": "urn:uuid:9cb9dabe-97ee-4d14-aa9f-76dfe113b49b"
          },
          {
            "reference": "urn:uuid:985b4ba2-b8e2-457d-9c03-9866f7393e77"
          },
          {
            "reference": "urn:uuid:4c8e05ab-c946-4af5-8233-c3c0138c0bb0"
          },
          {
            "reference": "urn:uuid:f557fa00-1d28-4766-9b1d-031481503093"
          },
          {
            "reference": "urn:uuid:346ca861-f839-4e4e-b6b7-5977da47a15a"
          },
          {
            "reference": "urn:uuid:168448db-2d62-4aea-9460-24f7b74e4018"
          },
          {
            "reference": "urn:uuid:c61253f1-c5b6-44eb-a2e6-ce87c79f67a7"
          },
          {
            "reference": "urn:uuid:b895205b-d958-4e43-b345-4297b100808a"
          },
          {
            "reference": "urn:uuid:5b733855-4f22-47c9-974e-89b1f97d86f4"
          },
          {
            "reference": "urn:uuid:1c1398e9-34ac-4369-b8b1-514d9e528a6b"
          },
          {
            "reference": "urn:uuid:21bc606c-c1f6-4f1d-891b-4aac3c0b4a12"
          }
        ],
        "status": "registered",
        "code": {
          "coding": [
            {
              "code": "11502-2",
              "system": "http://loinc.org",
              "display": "Laboratory report"
            }
          ]
        },
        "subject": {
          "reference": "urn:uuid:cc5ca0cf-4eac-4a4e-8bf8-29a4eee59c6a",
          "display": "Meaghan Neary"
        }
      }
    },
    {
      "fullUrl": "urn:uuid:cc5ca0cf-4eac-4a4e-8bf8-29a4eee59c6a",
      "resource": {
        "resourceType": "Patient",
        "id": "cc5ca0cf-4eac-4a4e-8bf8-29a4eee59c6a",
        "meta": {
          "security": [
            {
              "system": "http://terminology.hl7.org/CodeSystem/v3-ActReason",
              "code": "HTEST"
            },
            {
              "system": "http://terminology.hl7.org/CodeSystem/v3-ActReason",
              "code": "TRAIN"
            }
          ],
          "tag": [
            {
              "system": "https://synderai.net/fhir/CodeSystem/tags",
              "code": "synthetic",
              "display": "SYNDERAI Synthetic data"
            }
          ],
          "profile": [
            "http://hl7.eu/fhir/base/StructureDefinition/patient-eu-core"
          ]
        },
        "identifier": [
          {
            "type": {
              "coding": [
                {
                  "code": "PT",
                  "system": "http://terminology.hl7.org/CodeSystem/v2-0203"
                }
              ]
            },
            "system": "http://ec.europa.eu/identifier/eci",
            "value": "1586-567257-8"
          },
          {
            "type": {
              "coding": [
                {
                  "code": "MR",
                  "system": "http://terminology.hl7.org/CodeSystem/v2-0203"
                }
              ]
            },
            "system": "http://local.setting.eu/identifier",
            "value": "443e6379-f231-b364-3ccb-644740a1aa2a"
          }
        ],
        "name": [
          {
            "family": "Neary"
          },
          {
            "given": [
              "Meaghan"
            ]
          },
          {
            "text": "Meaghan Neary"
          }
        ],
        "address": [
          {
            "line": [
              "64 Linskey Street"
            ],
            "use": "home",
            "type": "physical",
            "postalCode": "D02",
            "city": "Dublin",
            "country": "Ireland"
          }
        ],
        "telecom": [
          {
            "system": "phone",
            "value": "001-967-573-0911x465"
          }
        ],
        "extension": [
          {
            "url": "http://hl7.org/fhir/StructureDefinition/patient-nationality",
            "valueCodeableConcept": {
              "coding": [
                {
                  "code": "IE",
                  "system": "http://hl7.org/fhir/ValueSet/country"
                }
              ]
            }
          }
        ],
        "text": {
          "status": "generated",
          "div": "<div xmlns=\"http://www.w3.org/1999/xhtml\"><table class=\"hl7__ips\"><tr><td>Meaghan Neary</td><td>female</td><td>19-Dec-1960</td></tr></table></div>"
        },
        "gender": "female",
        "birthDate": "1960-12-19"
      }
    },
    {
      "fullUrl": "urn:uuid:4022dc58-6ca1-4d43-a325-f0c483b50179",
      "resource": {
        "resourceType": "ServiceRequest",
        "id": "4022dc58-6ca1-4d43-a325-f0c483b50179",
        "meta": {
          "profile": [
            "http://hl7.eu/fhir/laboratory/StructureDefinition/ServiceRequest-eu-lab"
          ]
        },
        "identifier": [
          {
            "system": "http://example.org",
            "value": "3a81d5d7-0f8b-482c-b718-f661202d4cc8"
          }
        ],
        "specimen": [
          {
            "reference": "urn:uuid:06c0fd94-22ba-4fd1-8211-280c5adbda5a"
          },
          {
            "reference": "urn:uuid:31eeb9f7-dce0-43be-b187-d555f6c8646b"
          },
          {
            "reference": "urn:uuid:2ce6f378-63fb-49c5-8dc1-f30574fb018a"
          }
        ],
        "reasonCode": [
          {
            "coding": [
              {
                "code": "55822004",
                "system": "http://snomed.info/sct",
                "display": "Hyperlipidemia"
              }
            ]
          },
          {
            "coding": [
              {
                "code": "433144002",
                "system": "http://snomed.info/sct",
                "display": "Chronic kidney disease stage 3"
              }
            ]
          },
          {
            "coding": [
              {
                "code": "157141000119108",
                "system": "http://snomed.info/sct",
                "display": "Proteinuria due to type 2 diabetes mellitus"
              }
            ]
          },
          {
            "coding": [
              {
                "code": "431856006",
                "system": "http://snomed.info/sct",
                "display": "Chronic kidney disease stage 2"
              }
            ]
          },
          {
            "coding": [
              {
                "code": "90781000119102",
                "system": "http://snomed.info/sct",
                "display": "Microalbuminuria due to type 2 diabetes mellitus"
              }
            ]
          },
          {
            "coding": [
              {
                "code": "127013003",
                "system": "http://snomed.info/sct",
                "display": "Disorder of kidney due to diabetes mellitus"
              }
            ]
          },
          {
            "coding": [
              {
                "code": "431855005",
                "system": "http://snomed.info/sct",
                "display": "Chronic kidney disease stage 1"
              }
            ]
          },
          {
            "coding": [
              {
                "code": "237602007",
                "system": "http://snomed.info/sct",
                "display": "Metabolic syndrome X"
              }
            ]
          },
          {
            "coding": [
              {
                "code": "271737000",
                "system": "http://snomed.info/sct",
                "display": "Anemia"
              }
            ]
          },
          {
            "coding": [
              {
                "code": "15777000",
                "system": "http://snomed.info/sct",
                "display": "Prediabetes"
              }
            ]
          },
          {
            "coding": [
              {
                "code": "59621000",
                "system": "http://snomed.info/sct",
                "display": "Essential hypertension"
              }
            ]
          }
        ],
        "status": "active",
        "intent": "order",
        "code": {
          "coding": [
            {
              "code": "108252007",
              "system": "http://snomed.info/sct",
              "display": "Laboratory procedure"
            }
          ]
        },
        "subject": {
          "reference": "urn:uuid:cc5ca0cf-4eac-4a4e-8bf8-29a4eee59c6a",
          "display": "Meaghan Neary"
        },
        "requester": {
          "reference": "urn:uuid:5c1711c4-b1bf-4f14-8335-7cb599d96070"
        }
      }
    },
    {
      "fullUrl": "urn:uuid:5c1711c4-b1bf-4f14-8335-7cb599d96070",
      "resource": {
        "resourceType": "PractitionerRole",
        "id": "5c1711c4-b1bf-4f14-8335-7cb599d96070",
        "meta": {
          "profile": [
            "http://hl7.eu/fhir/base/StructureDefinition/practitionerRole-eu"
          ]
        },
        "text": {
          "status": "generated",
          "div": "<div xmlns=\"http://www.w3.org/1999/xhtml\">Provider Role Id: 5c1711c4-b1bf-4f14-8335-7cb599d96070</div>"
        },
        "organization": {
          "reference": "urn:uuid:d73fbb2e-3eed-49aa-a391-79d2a5cbfa0a"
        }
      }
    },
    {
      "fullUrl": "urn:uuid:d73fbb2e-3eed-49aa-a391-79d2a5cbfa0a",
      "resource": {
        "resourceType": "Organization",
        "id": "d73fbb2e-3eed-49aa-a391-79d2a5cbfa0a",
        "meta": {
          "profile": [
            "http://hl7.eu/fhir/base/StructureDefinition/organization-eu"
          ]
        },
        "identifier": [
          {
            "assigner": {
              "display": "HL7 Europe"
            },
            "system": "urn:oid:2.16.840.1.113883.2.51.999",
            "value": "280ff090-3fb0-4287-8813-85d06a3c4f6b"
          }
        ],
        "address": [
          {
            "line": [
              "Parnell Square West nan"
            ],
            "city": "Dublin",
            "postalCode": "D01",
            "country": "Ireland"
          }
        ],
        "text": {
          "status": "generated",
          "div": "<div xmlns=\"http://www.w3.org/1999/xhtml\">Provider Organization: Rotunda Hospital</div>"
        },
        "name": "Rotunda Hospital"
      }
    },
    {
      "fullUrl": "urn:uuid:06c0fd94-22ba-4fd1-8211-280c5adbda5a",
      "resource": {
        "resourceType": "Specimen",
        "id": "06c0fd94-22ba-4fd1-8211-280c5adbda5a",
        "meta": {
          "profile": [
            "http://hl7.eu/fhir/laboratory/StructureDefinition/Specimen-eu-lab"
          ]
        },
        "collection": {
          "collectedDateTime": "2025-02-17"
        },
        "text": {
          "status": "generated",
          "div": "<div xmlns=\"http://www.w3.org/1999/xhtml\"><table class=\"hl7__eu__lab__report\"><tr><th>Specimen</th><th>Collection Date</th></tr><tr><td>Acellular blood (serum or plasma) specimen</td><td><span class=\"nb\">17-Feb-2025</span></td></tr></table></div>"
        },
        "type": {
          "coding": [
            {
              "code": "122592007",
              "system": "http://snomed.info/sct",
              "display": "Acellular blood (serum or plasma) specimen"
            }
          ]
        }
      }
    },
    {
      "fullUrl": "urn:uuid:31eeb9f7-dce0-43be-b187-d555f6c8646b",
      "resource": {
        "resourceType": "Specimen",
        "id": "31eeb9f7-dce0-43be-b187-d555f6c8646b",
        "meta": {
          "profile": [
            "http://hl7.eu/fhir/laboratory/StructureDefinition/Specimen-eu-lab"
          ]
        },
        "collection": {
          "collectedDateTime": "2025-02-17"
        },
        "text": {
          "status": "generated",
          "div": "<div xmlns=\"http://www.w3.org/1999/xhtml\"><table class=\"hl7__eu__lab__report\"><tr><th>Specimen</th><th>Collection Date</th></tr><tr><td>Urine specimen</td><td><span class=\"nb\">17-Feb-2025</span></td></tr></table></div>"
        },
        "type": {
          "coding": [
            {
              "code": "122575003",
              "system": "http://snomed.info/sct",
              "display": "Urine specimen"
            }
          ]
        }
      }
    },
    {
      "fullUrl": "urn:uuid:2ce6f378-63fb-49c5-8dc1-f30574fb018a",
      "resource": {
        "resourceType": "Specimen",
        "id": "2ce6f378-63fb-49c5-8dc1-f30574fb018a",
        "meta": {
          "profile": [
            "http://hl7.eu/fhir/laboratory/StructureDefinition/Specimen-eu-lab"
          ]
        },
        "collection": {
          "collectedDateTime": "2025-02-17"
        },
        "text": {
          "status": "generated",
          "div": "<div xmlns=\"http://www.w3.org/1999/xhtml\"><table class=\"hl7__eu__lab__report\"><tr><th>Specimen</th><th>Collection Date</th></tr><tr><td>Whole blood specimen (specimen)</td><td><span class=\"nb\">17-Feb-2025</span></td></tr></table></div>"
        },
        "type": {
          "coding": [
            {
              "code": "258580003",
              "system": "http://snomed.info/sct",
              "display": "Whole blood specimen (specimen)"
            }
          ]
        }
      }
    },
    {
      "fullUrl": "urn:uuid:73cc1510-bd32-4478-9770-a86be8bc0f3f",
      "resource": {
        "resourceType": "Observation",
        "id": "73cc1510-bd32-4478-9770-a86be8bc0f3f",
        "meta": {
          "profile": [
            "http://hl7.eu/fhir/laboratory/StructureDefinition/Observation-resultslab-eu-lab"
          ]
        },
        "performer": [
          {
            "display": "The Central European Lab"
          }
        ],
        "category": [
          {
            "coding": [
              {
                "system": "http://terminology.hl7.org/CodeSystem/observation-category",
                "code": "laboratory"
              }
            ]
          }
        ],
        "code": {
          "coding": [
            {
              "code": "2345-7",
              "system": "http://loinc.org",
              "display": "Glucose [Mass/volume] in Serum or Plasma"
            }
          ],
          "text": "Glucose [Mass/volume] in Serum or Plasma"
        },
        "valueQuantity": {
          "system": "http://unitsofmeasure.org",
          "value": 93.2,
          "unit": "mg/dL",
          "code": "mg/dL"
        },
        "referenceRange": [
          {
            "low": {
              "value": 70,
              "code": "mg/dL",
              "system": "http://unitsofmeasure.org"
            }
          },
          {
            "high": {
              "value": 99,
              "code": "mg/dL",
              "system": "http://unitsofmeasure.org"
            }
          }
        ],
        "text": {
          "status": "generated",
          "div": "<div xmlns=\"http://www.w3.org/1999/xhtml\"><table class=\"hl7__eu__lab__report\"><tr><th>Test</th><th>17-Feb-2025</th><th>Reference&#xA0;Range</th><th>Unit</th></tr><tr><td>Glucose [Mass/volume] in Serum or Plasma</td><td>93.2</td><td>70 - 99</td><td></td><td>mg/dL</td></tr></table></div>"
        },
        "status": "final",
        "subject": {
          "reference": "urn:uuid:cc5ca0cf-4eac-4a4e-8bf8-29a4eee59c6a",
          "display": "Meaghan Neary"
        },
        "effectiveDateTime": "2025-02-17T22:11:04Z",
        "specimen": {
          "reference": "urn:uuid:06c0fd94-22ba-4fd1-8211-280c5adbda5a"
        }
      }
    },
    {
      "fullUrl": "urn:uuid:8d5411ea-8c6d-449c-8e79-fab6daba17b8",
      "resource": {
        "resourceType": "Observation",
        "id": "8d5411ea-8c6d-449c-8e79-fab6daba17b8",
        "meta": {
          "profile": [
            "http://hl7.eu/fhir/laboratory/StructureDefinition/Observation-resultslab-eu-lab"
          ]
        },
        "performer": [
          {
            "display": "The Central European Lab"
          }
        ],
        "category": [
          {
            "coding": [
              {
                "system": "http://terminology.hl7.org/CodeSystem/observation-category",
                "code": "laboratory"
              }
            ]
          }
        ],
        "code": {
          "coding": [
            {
              "code": "3094-0",
              "system": "http://loinc.org",
              "display": "Urea nitrogen [Mass/volume] in Serum or Plasma"
            }
          ],
          "text": "Urea nitrogen [Mass/volume] in Serum or Plasma"
        },
        "valueQuantity": {
          "system": "http://unitsofmeasure.org",
          "value": 15.2,
          "unit": "mg/dL",
          "code": "mg/dL"
        },
        "referenceRange": [
          {
            "low": {
              "value": 7,
              "code": "mg/dL",
              "system": "http://unitsofmeasure.org"
            }
          },
          {
            "high": {
              "value": 50,
              "code": "mg/dL",
              "system": "http://unitsofmeasure.org"
            }
          }
        ],
        "text": {
          "status": "generated",
          "div": "<div xmlns=\"http://www.w3.org/1999/xhtml\"><table class=\"hl7__eu__lab__report\"><tr><th>Test</th><th>17-Feb-2025</th><th>Reference&#xA0;Range</th><th>Unit</th></tr><tr><td>Urea nitrogen [Mass/volume] in Serum or Plasma</td><td>15.2</td><td>7 - 50</td><td></td><td>mg/dL</td></tr></table></div>"
        },
        "status": "final",
        "subject": {
          "reference": "urn:uuid:cc5ca0cf-4eac-4a4e-8bf8-29a4eee59c6a",
          "display": "Meaghan Neary"
        },
        "effectiveDateTime": "2025-02-17T22:11:04Z",
        "specimen": {
          "reference": "urn:uuid:06c0fd94-22ba-4fd1-8211-280c5adbda5a"
        }
      }
    },
    {
      "fullUrl": "urn:uuid:7515a49f-0d58-4fcb-bde6-b09afd59980a",
      "resource": {
        "resourceType": "Observation",
        "id": "7515a49f-0d58-4fcb-bde6-b09afd59980a",
        "meta": {
          "profile": [
            "http://hl7.eu/fhir/laboratory/StructureDefinition/Observation-resultslab-eu-lab"
          ]
        },
        "performer": [
          {
            "display": "The Central European Lab"
          }
        ],
        "category": [
          {
            "coding": [
              {
                "system": "http://terminology.hl7.org/CodeSystem/observation-category",
                "code": "laboratory"
              }
            ]
          }
        ],
        "code": {
          "coding": [
            {
              "code": "2160-0",
              "system": "http://loinc.org",
              "display": "Creatinine [Mass/volume] in Serum or Plasma"
            }
          ],
          "text": "Creatinine [Mass/volume] in Serum or Plasma"
        },
        "valueQuantity": {
          "system": "http://unitsofmeasure.org",
          "value": 1.9,
          "unit": "mg/dL",
          "code": "mg/dL"
        },
        "referenceRange": [
          {
            "low": {
              "value": 0.6,
              "code": "mg/dL",
              "system": "http://unitsofmeasure.org"
            }
          },
          {
            "high": {
              "value": 1.1,
              "code": "mg/dL",
              "system": "http://unitsofmeasure.org"
            }
          }
        ],
        "interpretation": [
          {
            "coding": [
              {
                "code": "H",
                "system": "http://terminology.hl7.org/CodeSystem/v3-ObservationInterpretation",
                "display": "High"
              }
            ]
          }
        ],
        "text": {
          "status": "generated",
          "div": "<div xmlns=\"http://www.w3.org/1999/xhtml\"><table class=\"hl7__eu__lab__report\"><tr><th>Test</th><th>17-Feb-2025</th><th>Reference&#xA0;Range</th><th>Unit</th></tr><tr><td>Creatinine [Mass/volume] in Serum or Plasma</td><td>1.9</td><td>0.6 - 1.1</td><td>H</td><td>mg/dL</td></tr></table></div>"
        },
        "status": "final",
        "subject": {
          "reference": "urn:uuid:cc5ca0cf-4eac-4a4e-8bf8-29a4eee59c6a",
          "display": "Meaghan Neary"
        },
        "effectiveDateTime": "2025-02-17T22:11:04Z",
        "specimen": {
          "reference": "urn:uuid:06c0fd94-22ba-4fd1-8211-280c5adbda5a"
        }
      }
    },
    {
      "fullUrl": "urn:uuid:c6f279b6-6454-4b3e-b46d-738c18a35e73",
      "resource": {
        "resourceType": "Observation",
        "id": "c6f279b6-6454-4b3e-b46d-738c18a35e73",
        "meta": {
          "profile": [
            "http://hl7.eu/fhir/laboratory/StructureDefinition/Observation-resultslab-eu-lab"
          ]
        },
        "performer": [
          {
            "display": "The Central European Lab"
          }
        ],
        "category": [
          {
            "coding": [
              {
                "system": "http://terminology.hl7.org/CodeSystem/observation-category",
                "code": "laboratory"
              }
            ]
          }
        ],
        "code": {
          "coding": [
            {
              "code": "17861-6",
              "system": "http://loinc.org",
              "display": "Calcium [Mass/volume] in Serum or Plasma"
            }
          ],
          "text": "Calcium [Mass/volume] in Serum or Plasma"
        },
        "valueQuantity": {
          "system": "http://unitsofmeasure.org",
          "value": 9.9,
          "unit": "mg/dL",
          "code": "mg/dL"
        },
        "referenceRange": [
          {
            "low": {
              "value": 8.6,
              "code": "mg/dL",
              "system": "http://unitsofmeasure.org"
            }
          },
          {
            "high": {
              "value": 10.4,
              "code": "mg/dL",
              "system": "http://unitsofmeasure.org"
            }
          }
        ],
        "text": {
          "status": "generated",
          "div": "<div xmlns=\"http://www.w3.org/1999/xhtml\"><table class=\"hl7__eu__lab__report\"><tr><th>Test</th><th>17-Feb-2025</th><th>Reference&#xA0;Range</th><th>Unit</th></tr><tr><td>Calcium [Mass/volume] in Serum or Plasma</td><td>9.9</td><td>8.6 - 10.4</td><td></td><td>mg/dL</td></tr></table></div>"
        },
        "status": "final",
        "subject": {
          "reference": "urn:uuid:cc5ca0cf-4eac-4a4e-8bf8-29a4eee59c6a",
          "display": "Meaghan Neary"
        },
        "effectiveDateTime": "2025-02-17T22:11:04Z",
        "specimen": {
          "reference": "urn:uuid:06c0fd94-22ba-4fd1-8211-280c5adbda5a"
        }
      }
    },
    {
      "fullUrl": "urn:uuid:547d1d7e-0d62-4852-99bf-be674107d0d2",
      "resource": {
        "resourceType": "Observation",
        "id": "547d1d7e-0d62-4852-99bf-be674107d0d2",
        "meta": {
          "profile": [
            "http://hl7.eu/fhir/laboratory/StructureDefinition/Observation-resultslab-eu-lab"
          ]
        },
        "performer": [
          {
            "display": "The Central European Lab"
          }
        ],
        "category": [
          {
            "coding": [
              {
                "system": "http://terminology.hl7.org/CodeSystem/observation-category",
                "code": "laboratory"
              }
            ]
          }
        ],
        "code": {
          "coding": [
            {
              "code": "2951-2",
              "system": "http://loinc.org",
              "display": "Sodium [Moles/volume] in Serum or Plasma"
            }
          ],
          "text": "Sodium [Moles/volume] in Serum or Plasma"
        },
        "valueQuantity": {
          "system": "http://unitsofmeasure.org",
          "value": 137,
          "unit": "mmol/L",
          "code": "mmol/L"
        },
        "referenceRange": [
          {
            "low": {
              "value": 135,
              "code": "mmol/L",
              "system": "http://unitsofmeasure.org"
            }
          },
          {
            "high": {
              "value": 145,
              "code": "mmol/L",
              "system": "http://unitsofmeasure.org"
            }
          }
        ],
        "text": {
          "status": "generated",
          "div": "<div xmlns=\"http://www.w3.org/1999/xhtml\"><table class=\"hl7__eu__lab__report\"><tr><th>Test</th><th>17-Feb-2025</th><th>Reference&#xA0;Range</th><th>Unit</th></tr><tr><td>Sodium [Moles/volume] in Serum or Plasma</td><td>137.0</td><td>135 - 145</td><td></td><td>mmol/L</td></tr></table></div>"
        },
        "status": "final",
        "subject": {
          "reference": "urn:uuid:cc5ca0cf-4eac-4a4e-8bf8-29a4eee59c6a",
          "display": "Meaghan Neary"
        },
        "effectiveDateTime": "2025-02-17T22:11:04Z",
        "specimen": {
          "reference": "urn:uuid:06c0fd94-22ba-4fd1-8211-280c5adbda5a"
        }
      }
    },
    {
      "fullUrl": "urn:uuid:058ec0de-6fa8-4de8-9e69-27448b84eb4a",
      "resource": {
        "resourceType": "Observation",
        "id": "058ec0de-6fa8-4de8-9e69-27448b84eb4a",
        "meta": {
          "profile": [
            "http://hl7.eu/fhir/laboratory/StructureDefinition/Observation-resultslab-eu-lab"
          ]
        },
        "performer": [
          {
            "display": "The Central European Lab"
          }
        ],
        "category": [
          {
            "coding": [
              {
                "system": "http://terminology.hl7.org/CodeSystem/observation-category",
                "code": "laboratory"
              }
            ]
          }
        ],
        "code": {
          "coding": [
            {
              "code": "2823-3",
              "system": "http://loinc.org",
              "display": "Potassium [Moles/volume] in Serum or Plasma"
            }
          ],
          "text": "Potassium [Moles/volume] in Serum or Plasma"
        },
        "valueQuantity": {
          "system": "http://unitsofmeasure.org",
          "value": 5.2,
          "unit": "mmol/L",
          "code": "mmol/L"
        },
        "referenceRange": [
          {
            "low": {
              "value": 3.5,
              "code": "mmol/L",
              "system": "http://unitsofmeasure.org"
            }
          },
          {
            "high": {
              "value": 5.1,
              "code": "mmol/L",
              "system": "http://unitsofmeasure.org"
            }
          }
        ],
        "interpretation": [
          {
            "coding": [
              {
                "code": "H",
                "system": "http://terminology.hl7.org/CodeSystem/v3-ObservationInterpretation",
                "display": "High"
              }
            ]
          }
        ],
        "text": {
          "status": "generated",
          "div": "<div xmlns=\"http://www.w3.org/1999/xhtml\"><table class=\"hl7__eu__lab__report\"><tr><th>Test</th><th>17-Feb-2025</th><th>Reference&#xA0;Range</th><th>Unit</th></tr><tr><td>Potassium [Moles/volume] in Serum or Plasma</td><td>5.2</td><td>3.5 - 5.1</td><td>H</td><td>mmol/L</td></tr></table></div>"
        },
        "status": "final",
        "subject": {
          "reference": "urn:uuid:cc5ca0cf-4eac-4a4e-8bf8-29a4eee59c6a",
          "display": "Meaghan Neary"
        },
        "effectiveDateTime": "2025-02-17T22:11:04Z",
        "specimen": {
          "reference": "urn:uuid:06c0fd94-22ba-4fd1-8211-280c5adbda5a"
        }
      }
    },
    {
      "fullUrl": "urn:uuid:7a60de5d-8d94-45d7-bc7e-704c44198f92",
      "resource": {
        "resourceType": "Observation",
        "id": "7a60de5d-8d94-45d7-bc7e-704c44198f92",
        "meta": {
          "profile": [
            "http://hl7.eu/fhir/laboratory/StructureDefinition/Observation-resultslab-eu-lab"
          ]
        },
        "performer": [
          {
            "display": "The Central European Lab"
          }
        ],
        "category": [
          {
            "coding": [
              {
                "system": "http://terminology.hl7.org/CodeSystem/observation-category",
                "code": "laboratory"
              }
            ]
          }
        ],
        "code": {
          "coding": [
            {
              "code": "2075-0",
              "system": "http://loinc.org",
              "display": "Chloride [Moles/volume] in Serum or Plasma"
            }
          ],
          "text": "Chloride [Moles/volume] in Serum or Plasma"
        },
        "valueQuantity": {
          "system": "http://unitsofmeasure.org",
          "value": 110.3,
          "unit": "mmol/L",
          "code": "mmol/L"
        },
        "referenceRange": [
          {
            "low": {
              "value": 98,
              "code": "mmol/L",
              "system": "http://unitsofmeasure.org"
            }
          },
          {
            "high": {
              "value": 108,
              "code": "mmol/L",
              "system": "http://unitsofmeasure.org"
            }
          }
        ],
        "interpretation": [
          {
            "coding": [
              {
                "code": "H",
                "system": "http://terminology.hl7.org/CodeSystem/v3-ObservationInterpretation",
                "display": "High"
              }
            ]
          }
        ],
        "text": {
          "status": "generated",
          "div": "<div xmlns=\"http://www.w3.org/1999/xhtml\"><table class=\"hl7__eu__lab__report\"><tr><th>Test</th><th>17-Feb-2025</th><th>Reference&#xA0;Range</th><th>Unit</th></tr><tr><td>Chloride [Moles/volume] in Serum or Plasma</td><td>110.3</td><td>98 - 108</td><td>H</td><td>mmol/L</td></tr></table></div>"
        },
        "status": "final",
        "subject": {
          "reference": "urn:uuid:cc5ca0cf-4eac-4a4e-8bf8-29a4eee59c6a",
          "display": "Meaghan Neary"
        },
        "effectiveDateTime": "2025-02-17T22:11:04Z",
        "specimen": {
          "reference": "urn:uuid:06c0fd94-22ba-4fd1-8211-280c5adbda5a"
        }
      }
    },
    {
      "fullUrl": "urn:uuid:c48b8fb4-de2a-42a6-8521-ce5d8e37fb55",
      "resource": {
        "resourceType": "Observation",
        "id": "c48b8fb4-de2a-42a6-8521-ce5d8e37fb55",
        "meta": {
          "profile": [
            "http://hl7.eu/fhir/laboratory/StructureDefinition/Observation-resultslab-eu-lab"
          ]
        },
        "performer": [
          {
            "display": "The Central European Lab"
          }
        ],
        "category": [
          {
            "coding": [
              {
                "system": "http://terminology.hl7.org/CodeSystem/observation-category",
                "code": "laboratory"
              }
            ]
          }
        ],
        "code": {
          "coding": [
            {
              "code": "2028-9",
              "system": "http://loinc.org",
              "display": "Carbon dioxide, total [Moles/volume] in Serum or Plasma"
            }
          ],
          "text": "Carbon dioxide, total [Moles/volume] in Serum or Plasma"
        },
        "valueQuantity": {
          "system": "http://unitsofmeasure.org",
          "value": 24.9,
          "unit": "mmol/L",
          "code": "mmol/L"
        },
        "referenceRange": [
          {
            "low": {
              "value": 22,
              "code": "mmol/L",
              "system": "http://unitsofmeasure.org"
            }
          },
          {
            "high": {
              "value": 32,
              "code": "mmol/L",
              "system": "http://unitsofmeasure.org"
            }
          }
        ],
        "text": {
          "status": "generated",
          "div": "<div xmlns=\"http://www.w3.org/1999/xhtml\"><table class=\"hl7__eu__lab__report\"><tr><th>Test</th><th>17-Feb-2025</th><th>Reference&#xA0;Range</th><th>Unit</th></tr><tr><td>Carbon dioxide, total [Moles/volume] in Serum or Plasma</td><td>24.9</td><td>22 - 32</td><td></td><td>mmol/L</td></tr></table></div>"
        },
        "status": "final",
        "subject": {
          "reference": "urn:uuid:cc5ca0cf-4eac-4a4e-8bf8-29a4eee59c6a",
          "display": "Meaghan Neary"
        },
        "effectiveDateTime": "2025-02-17T22:11:04Z",
        "specimen": {
          "reference": "urn:uuid:06c0fd94-22ba-4fd1-8211-280c5adbda5a"
        }
      }
    },
    {
      "fullUrl": "urn:uuid:4181b37c-4c8b-46b3-bace-c6fdb8a044a9",
      "resource": {
        "resourceType": "Observation",
        "id": "4181b37c-4c8b-46b3-bace-c6fdb8a044a9",
        "meta": {
          "profile": [
            "http://hl7.eu/fhir/laboratory/StructureDefinition/Observation-resultslab-eu-lab"
          ]
        },
        "performer": [
          {
            "display": "The Central European Lab"
          }
        ],
        "category": [
          {
            "coding": [
              {
                "system": "http://terminology.hl7.org/CodeSystem/observation-category",
                "code": "laboratory"
              }
            ]
          }
        ],
        "code": {
          "coding": [
            {
              "code": "5767-9",
              "system": "http://loinc.org",
              "display": "Appearance of Urine"
            }
          ],
          "text": "Appearance of Urine"
        },
        "text": {
          "status": "generated",
          "div": "<div xmlns=\"http://www.w3.org/1999/xhtml\"><table class=\"hl7__eu__lab__report\"><tr><th>Test</th><th>17-Feb-2025</th><th>Reference&#xA0;Range</th><th>Unit</th></tr><tr><td>Appearance of Urine</td></tr></table></div>"
        },
        "status": "final",
        "subject": {
          "reference": "urn:uuid:cc5ca0cf-4eac-4a4e-8bf8-29a4eee59c6a",
          "display": "Meaghan Neary"
        },
        "effectiveDateTime": "2025-02-17T22:11:04Z",
        "specimen": {
          "reference": "urn:uuid:31eeb9f7-dce0-43be-b187-d555f6c8646b"
        }
      }
    },
    {
      "fullUrl": "urn:uuid:75cbeead-f632-4c57-be60-1919912fb810",
      "resource": {
        "resourceType": "Observation",
        "id": "75cbeead-f632-4c57-be60-1919912fb810",
        "meta": {
          "profile": [
            "http://hl7.eu/fhir/laboratory/StructureDefinition/Observation-resultslab-eu-lab"
          ]
        },
        "performer": [
          {
            "display": "The Central European Lab"
          }
        ],
        "category": [
          {
            "coding": [
              {
                "system": "http://terminology.hl7.org/CodeSystem/observation-category",
                "code": "laboratory"
              }
            ]
          }
        ],
        "code": {
          "coding": [
            {
              "code": "34533-0",
              "system": "http://loinc.org",
              "display": "Odor of Urine"
            }
          ],
          "text": "Odor of Urine"
        },
        "text": {
          "status": "generated",
          "div": "<div xmlns=\"http://www.w3.org/1999/xhtml\"><table class=\"hl7__eu__lab__report\"><tr><th>Test</th><th>17-Feb-2025</th><th>Reference&#xA0;Range</th><th>Unit</th></tr><tr><td>Odor of Urine</td></tr></table></div>"
        },
        "status": "final",
        "subject": {
          "reference": "urn:uuid:cc5ca0cf-4eac-4a4e-8bf8-29a4eee59c6a",
          "display": "Meaghan Neary"
        },
        "effectiveDateTime": "2025-02-17T22:11:04Z",
        "specimen": {
          "reference": "urn:uuid:31eeb9f7-dce0-43be-b187-d555f6c8646b"
        }
      }
    },
    {
      "fullUrl": "urn:uuid:4309fa27-4e14-485d-8f71-b31bcd393ad4",
      "resource": {
        "resourceType": "Observation",
        "id": "4309fa27-4e14-485d-8f71-b31bcd393ad4",
        "meta": {
          "profile": [
            "http://hl7.eu/fhir/laboratory/StructureDefinition/Observation-resultslab-eu-lab"
          ]
        },
        "performer": [
          {
            "display": "The Central European Lab"
          }
        ],
        "category": [
          {
            "coding": [
              {
                "system": "http://terminology.hl7.org/CodeSystem/observation-category",
                "code": "laboratory"
              }
            ]
          }
        ],
        "code": {
          "coding": [
            {
              "code": "32167-9",
              "system": "http://loinc.org",
              "display": "Clarity of Urine"
            }
          ],
          "text": "Clarity of Urine"
        },
        "text": {
          "status": "generated",
          "div": "<div xmlns=\"http://www.w3.org/1999/xhtml\"><table class=\"hl7__eu__lab__report\"><tr><th>Test</th><th>17-Feb-2025</th><th>Reference&#xA0;Range</th><th>Unit</th></tr><tr><td>Clarity of Urine</td></tr></table></div>"
        },
        "status": "final",
        "subject": {
          "reference": "urn:uuid:cc5ca0cf-4eac-4a4e-8bf8-29a4eee59c6a",
          "display": "Meaghan Neary"
        },
        "effectiveDateTime": "2025-02-17T22:11:04Z",
        "specimen": {
          "reference": "urn:uuid:31eeb9f7-dce0-43be-b187-d555f6c8646b"
        }
      }
    },
    {
      "fullUrl": "urn:uuid:a898d82c-04d8-46b4-8643-c9f747221ec5",
      "resource": {
        "resourceType": "Observation",
        "id": "a898d82c-04d8-46b4-8643-c9f747221ec5",
        "meta": {
          "profile": [
            "http://hl7.eu/fhir/laboratory/StructureDefinition/Observation-resultslab-eu-lab"
          ]
        },
        "performer": [
          {
            "display": "The Central European Lab"
          }
        ],
        "category": [
          {
            "coding": [
              {
                "system": "http://terminology.hl7.org/CodeSystem/observation-category",
                "code": "laboratory"
              }
            ]
          }
        ],
        "code": {
          "coding": [
            {
              "code": "5778-6",
              "system": "http://loinc.org",
              "display": "Color of Urine"
            }
          ],
          "text": "Color of Urine"
        },
        "text": {
          "status": "generated",
          "div": "<div xmlns=\"http://www.w3.org/1999/xhtml\"><table class=\"hl7__eu__lab__report\"><tr><th>Test</th><th>17-Feb-2025</th><th>Reference&#xA0;Range</th><th>Unit</th></tr><tr><td>Color of Urine</td></tr></table></div>"
        },
        "status": "final",
        "subject": {
          "reference": "urn:uuid:cc5ca0cf-4eac-4a4e-8bf8-29a4eee59c6a",
          "display": "Meaghan Neary"
        },
        "effectiveDateTime": "2025-02-17T22:11:04Z",
        "specimen": {
          "reference": "urn:uuid:31eeb9f7-dce0-43be-b187-d555f6c8646b"
        }
      }
    },
    {
      "fullUrl": "urn:uuid:e2bb323a-a54f-47b9-9c2e-00b7c85b1a52",
      "resource": {
        "resourceType": "Observation",
        "id": "e2bb323a-a54f-47b9-9c2e-00b7c85b1a52",
        "meta": {
          "profile": [
            "http://hl7.eu/fhir/laboratory/StructureDefinition/Observation-resultslab-eu-lab"
          ]
        },
        "performer": [
          {
            "display": "The Central European Lab"
          }
        ],
        "category": [
          {
            "coding": [
              {
                "system": "http://terminology.hl7.org/CodeSystem/observation-category",
                "code": "laboratory"
              }
            ]
          }
        ],
        "code": {
          "coding": [
            {
              "code": "5792-7",
              "system": "http://loinc.org",
              "display": "Glucose [Mass/volume] in Urine by Test strip"
            }
          ],
          "text": "Glucose [Mass/volume] in Urine by Test strip"
        },
        "valueQuantity": {
          "system": "http://unitsofmeasure.org",
          "value": 1.8,
          "unit": "mg/dL",
          "code": "mg/dL"
        },
        "referenceRange": [
          {
            "low": {
              "value": 0.8,
              "code": "mg/dL",
              "system": "http://unitsofmeasure.org"
            }
          },
          {
            "high": {
              "value": 0,
              "code": "mg/dL",
              "system": "http://unitsofmeasure.org"
            }
          }
        ],
        "interpretation": [
          {
            "coding": [
              {
                "code": "H",
                "system": "http://terminology.hl7.org/CodeSystem/v3-ObservationInterpretation",
                "display": "High"
              }
            ]
          }
        ],
        "text": {
          "status": "generated",
          "div": "<div xmlns=\"http://www.w3.org/1999/xhtml\"><table class=\"hl7__eu__lab__report\"><tr><th>Test</th><th>17-Feb-2025</th><th>Reference&#xA0;Range</th><th>Unit</th></tr><tr><td>Glucose [Mass/volume] in Urine by Test strip</td><td>1.8</td><td>0.8 - 0</td><td>H</td><td>mg/dL</td></tr></table></div>"
        },
        "status": "final",
        "subject": {
          "reference": "urn:uuid:cc5ca0cf-4eac-4a4e-8bf8-29a4eee59c6a",
          "display": "Meaghan Neary"
        },
        "effectiveDateTime": "2025-02-17T22:11:04Z",
        "specimen": {
          "reference": "urn:uuid:31eeb9f7-dce0-43be-b187-d555f6c8646b"
        }
      }
    },
    {
      "fullUrl": "urn:uuid:c89fd295-aaed-4b34-aa04-32902d83d018",
      "resource": {
        "resourceType": "Observation",
        "id": "c89fd295-aaed-4b34-aa04-32902d83d018",
        "meta": {
          "profile": [
            "http://hl7.eu/fhir/laboratory/StructureDefinition/Observation-resultslab-eu-lab"
          ]
        },
        "performer": [
          {
            "display": "The Central European Lab"
          }
        ],
        "category": [
          {
            "coding": [
              {
                "system": "http://terminology.hl7.org/CodeSystem/observation-category",
                "code": "laboratory"
              }
            ]
          }
        ],
        "code": {
          "coding": [
            {
              "code": "25428-4",
              "system": "http://loinc.org",
              "display": "Glucose [Presence] in Urine by Test strip"
            }
          ],
          "text": "Glucose [Presence] in Urine by Test strip"
        },
        "text": {
          "status": "generated",
          "div": "<div xmlns=\"http://www.w3.org/1999/xhtml\"><table class=\"hl7__eu__lab__report\"><tr><th>Test</th><th>17-Feb-2025</th><th>Reference&#xA0;Range</th><th>Unit</th></tr><tr><td>Glucose [Presence] in Urine by Test strip</td></tr></table></div>"
        },
        "status": "final",
        "subject": {
          "reference": "urn:uuid:cc5ca0cf-4eac-4a4e-8bf8-29a4eee59c6a",
          "display": "Meaghan Neary"
        },
        "effectiveDateTime": "2025-02-17T22:11:04Z",
        "specimen": {
          "reference": "urn:uuid:31eeb9f7-dce0-43be-b187-d555f6c8646b"
        }
      }
    },
    {
      "fullUrl": "urn:uuid:f35f2f0d-d9dd-4da4-aebf-4540e9caad8d",
      "resource": {
        "resourceType": "Observation",
        "id": "f35f2f0d-d9dd-4da4-aebf-4540e9caad8d",
        "meta": {
          "profile": [
            "http://hl7.eu/fhir/laboratory/StructureDefinition/Observation-resultslab-eu-lab"
          ]
        },
        "performer": [
          {
            "display": "The Central European Lab"
          }
        ],
        "category": [
          {
            "coding": [
              {
                "system": "http://terminology.hl7.org/CodeSystem/observation-category",
                "code": "laboratory"
              }
            ]
          }
        ],
        "code": {
          "coding": [
            {
              "code": "20505-4",
              "system": "http://loinc.org",
              "display": "Bilirubin.total [Mass/volume] in Urine by Test strip"
            }
          ],
          "text": "Bilirubin.total [Mass/volume] in Urine by Test strip"
        },
        "valueQuantity": {
          "system": "http://unitsofmeasure.org",
          "value": 1.2,
          "unit": "mg/dL",
          "code": "mg/dL"
        },
        "referenceRange": [
          {
            "low": {
              "value": 0,
              "code": "mg/dL",
              "system": "http://unitsofmeasure.org"
            }
          },
          {
            "high": {
              "value": 1,
              "code": "mg/dL",
              "system": "http://unitsofmeasure.org"
            }
          }
        ],
        "interpretation": [
          {
            "coding": [
              {
                "code": "H",
                "system": "http://terminology.hl7.org/CodeSystem/v3-ObservationInterpretation",
                "display": "High"
              }
            ]
          }
        ],
        "text": {
          "status": "generated",
          "div": "<div xmlns=\"http://www.w3.org/1999/xhtml\"><table class=\"hl7__eu__lab__report\"><tr><th>Test</th><th>17-Feb-2025</th><th>Reference&#xA0;Range</th><th>Unit</th></tr><tr><td>Bilirubin.total [Mass/volume] in Urine by Test strip</td><td>1.2</td><td>0 - 1</td><td>H</td><td>mg/dL</td></tr></table></div>"
        },
        "status": "final",
        "subject": {
          "reference": "urn:uuid:cc5ca0cf-4eac-4a4e-8bf8-29a4eee59c6a",
          "display": "Meaghan Neary"
        },
        "effectiveDateTime": "2025-02-17T22:11:04Z",
        "specimen": {
          "reference": "urn:uuid:31eeb9f7-dce0-43be-b187-d555f6c8646b"
        }
      }
    },
    {
      "fullUrl": "urn:uuid:1192e266-5016-4f7c-8a97-f252229299f8",
      "resource": {
        "resourceType": "Observation",
        "id": "1192e266-5016-4f7c-8a97-f252229299f8",
        "meta": {
          "profile": [
            "http://hl7.eu/fhir/laboratory/StructureDefinition/Observation-resultslab-eu-lab"
          ]
        },
        "performer": [
          {
            "display": "The Central European Lab"
          }
        ],
        "category": [
          {
            "coding": [
              {
                "system": "http://terminology.hl7.org/CodeSystem/observation-category",
                "code": "laboratory"
              }
            ]
          }
        ],
        "code": {
          "coding": [
            {
              "code": "5770-3",
              "system": "http://loinc.org",
              "display": "Bilirubin.total [Presence] in Urine by Test strip"
            }
          ],
          "text": "Bilirubin.total [Presence] in Urine by Test strip"
        },
        "text": {
          "status": "generated",
          "div": "<div xmlns=\"http://www.w3.org/1999/xhtml\"><table class=\"hl7__eu__lab__report\"><tr><th>Test</th><th>17-Feb-2025</th><th>Reference&#xA0;Range</th><th>Unit</th></tr><tr><td>Bilirubin.total [Presence] in Urine by Test strip</td></tr></table></div>"
        },
        "status": "final",
        "subject": {
          "reference": "urn:uuid:cc5ca0cf-4eac-4a4e-8bf8-29a4eee59c6a",
          "display": "Meaghan Neary"
        },
        "effectiveDateTime": "2025-02-17T22:11:04Z",
        "specimen": {
          "reference": "urn:uuid:31eeb9f7-dce0-43be-b187-d555f6c8646b"
        }
      }
    },
    {
      "fullUrl": "urn:uuid:48470788-e125-4abb-b1d3-caa9663a32ce",
      "resource": {
        "resourceType": "Observation",
        "id": "48470788-e125-4abb-b1d3-caa9663a32ce",
        "meta": {
          "profile": [
            "http://hl7.eu/fhir/laboratory/StructureDefinition/Observation-resultslab-eu-lab"
          ]
        },
        "performer": [
          {
            "display": "The Central European Lab"
          }
        ],
        "category": [
          {
            "coding": [
              {
                "system": "http://terminology.hl7.org/CodeSystem/observation-category",
                "code": "laboratory"
              }
            ]
          }
        ],
        "code": {
          "coding": [
            {
              "code": "5797-6",
              "system": "http://loinc.org",
              "display": "Ketones [Mass/volume] in Urine by Test strip"
            }
          ],
          "text": "Ketones [Mass/volume] in Urine by Test strip"
        },
        "valueQuantity": {
          "system": "http://unitsofmeasure.org",
          "value": 15.1,
          "unit": "mg/dL",
          "code": "mg/dL"
        },
        "referenceRange": [
          {
            "low": {
              "value": 0,
              "code": "mg/dL",
              "system": "http://unitsofmeasure.org"
            }
          },
          {
            "high": {
              "value": 4,
              "code": "mg/dL",
              "system": "http://unitsofmeasure.org"
            }
          }
        ],
        "interpretation": [
          {
            "coding": [
              {
                "code": "H",
                "system": "http://terminology.hl7.org/CodeSystem/v3-ObservationInterpretation",
                "display": "High"
              }
            ]
          }
        ],
        "text": {
          "status": "generated",
          "div": "<div xmlns=\"http://www.w3.org/1999/xhtml\"><table class=\"hl7__eu__lab__report\"><tr><th>Test</th><th>17-Feb-2025</th><th>Reference&#xA0;Range</th><th>Unit</th></tr><tr><td>Ketones [Mass/volume] in Urine by Test strip</td><td>15.1</td><td>0 - 4</td><td>H</td><td>mg/dL</td></tr></table></div>"
        },
        "status": "final",
        "subject": {
          "reference": "urn:uuid:cc5ca0cf-4eac-4a4e-8bf8-29a4eee59c6a",
          "display": "Meaghan Neary"
        },
        "effectiveDateTime": "2025-02-17T22:11:04Z",
        "specimen": {
          "reference": "urn:uuid:31eeb9f7-dce0-43be-b187-d555f6c8646b"
        }
      }
    },
    {
      "fullUrl": "urn:uuid:920b166c-2855-426d-88a7-8b6ae1008ac1",
      "resource": {
        "resourceType": "Observation",
        "id": "920b166c-2855-426d-88a7-8b6ae1008ac1",
        "meta": {
          "profile": [
            "http://hl7.eu/fhir/laboratory/StructureDefinition/Observation-resultslab-eu-lab"
          ]
        },
        "performer": [
          {
            "display": "The Central European Lab"
          }
        ],
        "category": [
          {
            "coding": [
              {
                "system": "http://terminology.hl7.org/CodeSystem/observation-category",
                "code": "laboratory"
              }
            ]
          }
        ],
        "code": {
          "coding": [
            {
              "code": "2514-8",
              "system": "http://loinc.org",
              "display": "Ketones [Presence] in Urine by Test strip"
            }
          ],
          "text": "Ketones [Presence] in Urine by Test strip"
        },
        "text": {
          "status": "generated",
          "div": "<div xmlns=\"http://www.w3.org/1999/xhtml\"><table class=\"hl7__eu__lab__report\"><tr><th>Test</th><th>17-Feb-2025</th><th>Reference&#xA0;Range</th><th>Unit</th></tr><tr><td>Ketones [Presence] in Urine by Test strip</td></tr></table></div>"
        },
        "status": "final",
        "subject": {
          "reference": "urn:uuid:cc5ca0cf-4eac-4a4e-8bf8-29a4eee59c6a",
          "display": "Meaghan Neary"
        },
        "effectiveDateTime": "2025-02-17T22:11:04Z",
        "specimen": {
          "reference": "urn:uuid:31eeb9f7-dce0-43be-b187-d555f6c8646b"
        }
      }
    },
    {
      "fullUrl": "urn:uuid:91a48daa-edbc-4ccf-ac74-0fef9be153d0",
      "resource": {
        "resourceType": "Observation",
        "id": "91a48daa-edbc-4ccf-ac74-0fef9be153d0",
        "meta": {
          "profile": [
            "http://hl7.eu/fhir/laboratory/StructureDefinition/Observation-resultslab-eu-lab"
          ]
        },
        "performer": [
          {
            "display": "The Central European Lab"
          }
        ],
        "category": [
          {
            "coding": [
              {
                "system": "http://terminology.hl7.org/CodeSystem/observation-category",
                "code": "laboratory"
              }
            ]
          }
        ],
        "code": {
          "coding": [
            {
              "code": "5811-5",
              "system": "http://loinc.org",
              "display": "Specific gravity of Urine by Test strip"
            }
          ],
          "text": "Specific gravity of Urine by Test strip"
        },
        "valueQuantity": {
          "system": "http://unitsofmeasure.org",
          "value": 1,
          "unit": "{nominal}",
          "code": "{nominal}"
        },
        "referenceRange": [
          {
            "low": {
              "value": 1.005,
              "code": "g/mL",
              "system": "http://unitsofmeasure.org"
            }
          },
          {
            "high": {
              "value": 1.03,
              "code": "g/mL",
              "system": "http://unitsofmeasure.org"
            }
          }
        ],
        "interpretation": [
          {
            "coding": [
              {
                "code": "L",
                "system": "http://terminology.hl7.org/CodeSystem/v3-ObservationInterpretation",
                "display": "Low"
              }
            ]
          }
        ],
        "text": {
          "status": "generated",
          "div": "<div xmlns=\"http://www.w3.org/1999/xhtml\"><table class=\"hl7__eu__lab__report\"><tr><th>Test</th><th>17-Feb-2025</th><th>Reference&#xA0;Range</th><th>Unit</th></tr><tr><td>Specific gravity of Urine by Test strip</td><td>1.0</td><td>1.005 - 1.03</td><td>L</td><td>{nominal}</td></tr></table></div>"
        },
        "status": "final",
        "subject": {
          "reference": "urn:uuid:cc5ca0cf-4eac-4a4e-8bf8-29a4eee59c6a",
          "display": "Meaghan Neary"
        },
        "effectiveDateTime": "2025-02-17T22:11:04Z",
        "specimen": {
          "reference": "urn:uuid:31eeb9f7-dce0-43be-b187-d555f6c8646b"
        }
      }
    },
    {
      "fullUrl": "urn:uuid:08dae269-7104-41a5-87bb-530eca061a99",
      "resource": {
        "resourceType": "Observation",
        "id": "08dae269-7104-41a5-87bb-530eca061a99",
        "meta": {
          "profile": [
            "http://hl7.eu/fhir/laboratory/StructureDefinition/Observation-resultslab-eu-lab"
          ]
        },
        "performer": [
          {
            "display": "The Central European Lab"
          }
        ],
        "category": [
          {
            "coding": [
              {
                "system": "http://terminology.hl7.org/CodeSystem/observation-category",
                "code": "laboratory"
              }
            ]
          }
        ],
        "code": {
          "coding": [
            {
              "code": "5803-2",
              "system": "http://loinc.org",
              "display": "pH of Urine by Test strip"
            }
          ],
          "text": "pH of Urine by Test strip"
        },
        "valueQuantity": {
          "system": "http://unitsofmeasure.org",
          "value": 6.2,
          "unit": "pH",
          "code": "pH"
        },
        "referenceRange": [
          {
            "low": {
              "value": 4.6,
              "code": "pH",
              "system": "http://unitsofmeasure.org"
            }
          },
          {
            "high": {
              "value": 7,
              "code": "pH",
              "system": "http://unitsofmeasure.org"
            }
          }
        ],
        "text": {
          "status": "generated",
          "div": "<div xmlns=\"http://www.w3.org/1999/xhtml\"><table class=\"hl7__eu__lab__report\"><tr><th>Test</th><th>17-Feb-2025</th><th>Reference&#xA0;Range</th><th>Unit</th></tr><tr><td>pH of Urine by Test strip</td><td>6.2</td><td>4.6 - 7</td><td></td><td>pH</td></tr></table></div>"
        },
        "status": "final",
        "subject": {
          "reference": "urn:uuid:cc5ca0cf-4eac-4a4e-8bf8-29a4eee59c6a",
          "display": "Meaghan Neary"
        },
        "effectiveDateTime": "2025-02-17T22:11:04Z",
        "specimen": {
          "reference": "urn:uuid:31eeb9f7-dce0-43be-b187-d555f6c8646b"
        }
      }
    },
    {
      "fullUrl": "urn:uuid:7e967a1b-3f11-4710-bb73-74dc7f2619db",
      "resource": {
        "resourceType": "Observation",
        "id": "7e967a1b-3f11-4710-bb73-74dc7f2619db",
        "meta": {
          "profile": [
            "http://hl7.eu/fhir/laboratory/StructureDefinition/Observation-resultslab-eu-lab"
          ]
        },
        "performer": [
          {
            "display": "The Central European Lab"
          }
        ],
        "category": [
          {
            "coding": [
              {
                "system": "http://terminology.hl7.org/CodeSystem/observation-category",
                "code": "laboratory"
              }
            ]
          }
        ],
        "code": {
          "coding": [
            {
              "code": "5804-0",
              "system": "http://loinc.org",
              "display": "Protein [Mass/volume] in Urine by Test strip"
            }
          ],
          "text": "Protein [Mass/volume] in Urine by Test strip"
        },
        "valueQuantity": {
          "system": "http://unitsofmeasure.org",
          "value": 351.3,
          "unit": "mg/dL",
          "code": "mg/dL"
        },
        "referenceRange": [
          {
            "low": {
              "value": 0,
              "code": "mg/dL",
              "system": "http://unitsofmeasure.org"
            }
          },
          {
            "high": {
              "value": 14,
              "code": "mg/dL",
              "system": "http://unitsofmeasure.org"
            }
          }
        ],
        "interpretation": [
          {
            "coding": [
              {
                "code": "H",
                "system": "http://terminology.hl7.org/CodeSystem/v3-ObservationInterpretation",
                "display": "High"
              }
            ]
          }
        ],
        "text": {
          "status": "generated",
          "div": "<div xmlns=\"http://www.w3.org/1999/xhtml\"><table class=\"hl7__eu__lab__report\"><tr><th>Test</th><th>17-Feb-2025</th><th>Reference&#xA0;Range</th><th>Unit</th></tr><tr><td>Protein [Mass/volume] in Urine by Test strip</td><td>351.3</td><td>0 - 14</td><td>H</td><td>mg/dL</td></tr></table></div>"
        },
        "status": "final",
        "subject": {
          "reference": "urn:uuid:cc5ca0cf-4eac-4a4e-8bf8-29a4eee59c6a",
          "display": "Meaghan Neary"
        },
        "effectiveDateTime": "2025-02-17T22:11:04Z",
        "specimen": {
          "reference": "urn:uuid:31eeb9f7-dce0-43be-b187-d555f6c8646b"
        }
      }
    },
    {
      "fullUrl": "urn:uuid:6cfbfd68-1be9-4ea8-93da-3e938cd1ccfb",
      "resource": {
        "resourceType": "Observation",
        "id": "6cfbfd68-1be9-4ea8-93da-3e938cd1ccfb",
        "meta": {
          "profile": [
            "http://hl7.eu/fhir/laboratory/StructureDefinition/Observation-resultslab-eu-lab"
          ]
        },
        "performer": [
          {
            "display": "The Central European Lab"
          }
        ],
        "category": [
          {
            "coding": [
              {
                "system": "http://terminology.hl7.org/CodeSystem/observation-category",
                "code": "laboratory"
              }
            ]
          }
        ],
        "code": {
          "coding": [
            {
              "code": "20454-5",
              "system": "http://loinc.org",
              "display": "Protein [Presence] in Urine by Test strip"
            }
          ],
          "text": "Protein [Presence] in Urine by Test strip"
        },
        "text": {
          "status": "generated",
          "div": "<div xmlns=\"http://www.w3.org/1999/xhtml\"><table class=\"hl7__eu__lab__report\"><tr><th>Test</th><th>17-Feb-2025</th><th>Reference&#xA0;Range</th><th>Unit</th></tr><tr><td>Protein [Presence] in Urine by Test strip</td></tr></table></div>"
        },
        "status": "final",
        "subject": {
          "reference": "urn:uuid:cc5ca0cf-4eac-4a4e-8bf8-29a4eee59c6a",
          "display": "Meaghan Neary"
        },
        "effectiveDateTime": "2025-02-17T22:11:04Z",
        "specimen": {
          "reference": "urn:uuid:31eeb9f7-dce0-43be-b187-d555f6c8646b"
        }
      }
    },
    {
      "fullUrl": "urn:uuid:ac4ae380-ee37-4036-b20d-6888478e0ef0",
      "resource": {
        "resourceType": "Observation",
        "id": "ac4ae380-ee37-4036-b20d-6888478e0ef0",
        "meta": {
          "profile": [
            "http://hl7.eu/fhir/laboratory/StructureDefinition/Observation-resultslab-eu-lab"
          ]
        },
        "performer": [
          {
            "display": "The Central European Lab"
          }
        ],
        "category": [
          {
            "coding": [
              {
                "system": "http://terminology.hl7.org/CodeSystem/observation-category",
                "code": "laboratory"
              }
            ]
          }
        ],
        "code": {
          "coding": [
            {
              "code": "5802-4",
              "system": "http://loinc.org",
              "display": "Nitrite [Presence] in Urine by Test strip"
            }
          ],
          "text": "Nitrite [Presence] in Urine by Test strip"
        },
        "text": {
          "status": "generated",
          "div": "<div xmlns=\"http://www.w3.org/1999/xhtml\"><table class=\"hl7__eu__lab__report\"><tr><th>Test</th><th>17-Feb-2025</th><th>Reference&#xA0;Range</th><th>Unit</th></tr><tr><td>Nitrite [Presence] in Urine by Test strip</td></tr></table></div>"
        },
        "status": "final",
        "subject": {
          "reference": "urn:uuid:cc5ca0cf-4eac-4a4e-8bf8-29a4eee59c6a",
          "display": "Meaghan Neary"
        },
        "effectiveDateTime": "2025-02-17T22:11:04Z",
        "specimen": {
          "reference": "urn:uuid:31eeb9f7-dce0-43be-b187-d555f6c8646b"
        }
      }
    },
    {
      "fullUrl": "urn:uuid:9cb9dabe-97ee-4d14-aa9f-76dfe113b49b",
      "resource": {
        "resourceType": "Observation",
        "id": "9cb9dabe-97ee-4d14-aa9f-76dfe113b49b",
        "meta": {
          "profile": [
            "http://hl7.eu/fhir/laboratory/StructureDefinition/Observation-resultslab-eu-lab"
          ]
        },
        "performer": [
          {
            "display": "The Central European Lab"
          }
        ],
        "category": [
          {
            "coding": [
              {
                "system": "http://terminology.hl7.org/CodeSystem/observation-category",
                "code": "laboratory"
              }
            ]
          }
        ],
        "code": {
          "coding": [
            {
              "code": "5794-3",
              "system": "http://loinc.org",
              "display": "Hemoglobin [Presence] in Urine by Test strip"
            }
          ],
          "text": "Hemoglobin [Presence] in Urine by Test strip"
        },
        "text": {
          "status": "generated",
          "div": "<div xmlns=\"http://www.w3.org/1999/xhtml\"><table class=\"hl7__eu__lab__report\"><tr><th>Test</th><th>17-Feb-2025</th><th>Reference&#xA0;Range</th><th>Unit</th></tr><tr><td>Hemoglobin [Presence] in Urine by Test strip</td></tr></table></div>"
        },
        "status": "final",
        "subject": {
          "reference": "urn:uuid:cc5ca0cf-4eac-4a4e-8bf8-29a4eee59c6a",
          "display": "Meaghan Neary"
        },
        "effectiveDateTime": "2025-02-17T22:11:04Z",
        "specimen": {
          "reference": "urn:uuid:31eeb9f7-dce0-43be-b187-d555f6c8646b"
        }
      }
    },
    {
      "fullUrl": "urn:uuid:985b4ba2-b8e2-457d-9c03-9866f7393e77",
      "resource": {
        "resourceType": "Observation",
        "id": "985b4ba2-b8e2-457d-9c03-9866f7393e77",
        "meta": {
          "profile": [
            "http://hl7.eu/fhir/laboratory/StructureDefinition/Observation-resultslab-eu-lab"
          ]
        },
        "performer": [
          {
            "display": "The Central European Lab"
          }
        ],
        "category": [
          {
            "coding": [
              {
                "system": "http://terminology.hl7.org/CodeSystem/observation-category",
                "code": "laboratory"
              }
            ]
          }
        ],
        "code": {
          "coding": [
            {
              "code": "5799-2",
              "system": "http://loinc.org",
              "display": "Leukocyte esterase [Presence] in Urine by Test strip"
            }
          ],
          "text": "Leukocyte esterase [Presence] in Urine by Test strip"
        },
        "text": {
          "status": "generated",
          "div": "<div xmlns=\"http://www.w3.org/1999/xhtml\"><table class=\"hl7__eu__lab__report\"><tr><th>Test</th><th>17-Feb-2025</th><th>Reference&#xA0;Range</th><th>Unit</th></tr><tr><td>Leukocyte esterase [Presence] in Urine by Test strip</td></tr></table></div>"
        },
        "status": "final",
        "subject": {
          "reference": "urn:uuid:cc5ca0cf-4eac-4a4e-8bf8-29a4eee59c6a",
          "display": "Meaghan Neary"
        },
        "effectiveDateTime": "2025-02-17T22:11:04Z",
        "specimen": {
          "reference": "urn:uuid:31eeb9f7-dce0-43be-b187-d555f6c8646b"
        }
      }
    },
    {
      "fullUrl": "urn:uuid:4c8e05ab-c946-4af5-8233-c3c0138c0bb0",
      "resource": {
        "resourceType": "Observation",
        "id": "4c8e05ab-c946-4af5-8233-c3c0138c0bb0",
        "meta": {
          "profile": [
            "http://hl7.eu/fhir/laboratory/StructureDefinition/Observation-resultslab-eu-lab"
          ]
        },
        "performer": [
          {
            "display": "The Central European Lab"
          }
        ],
        "category": [
          {
            "coding": [
              {
                "system": "http://terminology.hl7.org/CodeSystem/observation-category",
                "code": "laboratory"
              }
            ]
          }
        ],
        "code": {
          "coding": [
            {
              "code": "4548-4",
              "system": "http://loinc.org",
              "display": "Hemoglobin A1c/Hemoglobin.total in Blood"
            }
          ],
          "text": "Hemoglobin A1c/Hemoglobin.total in Blood"
        },
        "valueQuantity": {
          "system": "http://unitsofmeasure.org",
          "value": 4,
          "unit": "%",
          "code": "%"
        },
        "referenceRange": [
          {
            "low": {
              "value": 4,
              "code": "%",
              "system": "http://unitsofmeasure.org"
            }
          },
          {
            "high": {
              "value": 6.4,
              "code": "%",
              "system": "http://unitsofmeasure.org"
            }
          }
        ],
        "text": {
          "status": "generated",
          "div": "<div xmlns=\"http://www.w3.org/1999/xhtml\"><table class=\"hl7__eu__lab__report\"><tr><th>Test</th><th>17-Feb-2025</th><th>Reference&#xA0;Range</th><th>Unit</th></tr><tr><td>Hemoglobin A1c/Hemoglobin.total in Blood</td><td>4.0</td><td>4 - 6.4</td><td></td><td>%</td></tr></table></div>"
        },
        "status": "final",
        "subject": {
          "reference": "urn:uuid:cc5ca0cf-4eac-4a4e-8bf8-29a4eee59c6a",
          "display": "Meaghan Neary"
        },
        "effectiveDateTime": "2025-02-17T22:11:04Z",
        "specimen": {
          "reference": "urn:uuid:2ce6f378-63fb-49c5-8dc1-f30574fb018a"
        }
      }
    },
    {
      "fullUrl": "urn:uuid:f557fa00-1d28-4766-9b1d-031481503093",
      "resource": {
        "resourceType": "Observation",
        "id": "f557fa00-1d28-4766-9b1d-031481503093",
        "meta": {
          "profile": [
            "http://hl7.eu/fhir/laboratory/StructureDefinition/Observation-resultslab-eu-lab"
          ]
        },
        "performer": [
          {
            "display": "The Central European Lab"
          }
        ],
        "category": [
          {
            "coding": [
              {
                "system": "http://terminology.hl7.org/CodeSystem/observation-category",
                "code": "laboratory"
              }
            ]
          }
        ],
        "code": {
          "coding": [
            {
              "code": "2339-0",
              "system": "http://loinc.org",
              "display": "Glucose [Mass/volume] in Blood"
            }
          ],
          "text": "Glucose [Mass/volume] in Blood"
        },
        "valueQuantity": {
          "system": "http://unitsofmeasure.org",
          "value": 93.2,
          "unit": "mg/dL",
          "code": "mg/dL"
        },
        "referenceRange": [
          {
            "low": {
              "value": 70,
              "code": "mg/dL",
              "system": "http://unitsofmeasure.org"
            }
          },
          {
            "high": {
              "value": 100,
              "code": "mg/dL",
              "system": "http://unitsofmeasure.org"
            }
          }
        ],
        "text": {
          "status": "generated",
          "div": "<div xmlns=\"http://www.w3.org/1999/xhtml\"><table class=\"hl7__eu__lab__report\"><tr><th>Test</th><th>17-Feb-2025</th><th>Reference&#xA0;Range</th><th>Unit</th></tr><tr><td>Glucose [Mass/volume] in Blood</td><td>93.2</td><td>70 - 100</td><td></td><td>mg/dL</td></tr></table></div>"
        },
        "status": "final",
        "subject": {
          "reference": "urn:uuid:cc5ca0cf-4eac-4a4e-8bf8-29a4eee59c6a",
          "display": "Meaghan Neary"
        },
        "effectiveDateTime": "2025-02-17T22:11:04Z",
        "specimen": {
          "reference": "urn:uuid:2ce6f378-63fb-49c5-8dc1-f30574fb018a"
        }
      }
    },
    {
      "fullUrl": "urn:uuid:346ca861-f839-4e4e-b6b7-5977da47a15a",
      "resource": {
        "resourceType": "Observation",
        "id": "346ca861-f839-4e4e-b6b7-5977da47a15a",
        "meta": {
          "profile": [
            "http://hl7.eu/fhir/laboratory/StructureDefinition/Observation-resultslab-eu-lab"
          ]
        },
        "performer": [
          {
            "display": "The Central European Lab"
          }
        ],
        "category": [
          {
            "coding": [
              {
                "system": "http://terminology.hl7.org/CodeSystem/observation-category",
                "code": "laboratory"
              }
            ]
          }
        ],
        "code": {
          "coding": [
            {
              "code": "6299-2",
              "system": "http://loinc.org",
              "display": "Urea nitrogen [Mass/volume] in Blood"
            }
          ],
          "text": "Urea nitrogen [Mass/volume] in Blood"
        },
        "valueQuantity": {
          "system": "http://unitsofmeasure.org",
          "value": 15.2,
          "unit": "mg/dL",
          "code": "mg/dL"
        },
        "referenceRange": [
          {
            "low": {
              "value": 7,
              "code": "mg/dL",
              "system": "http://unitsofmeasure.org"
            }
          },
          {
            "high": {
              "value": 43,
              "code": "mg/dL",
              "system": "http://unitsofmeasure.org"
            }
          }
        ],
        "text": {
          "status": "generated",
          "div": "<div xmlns=\"http://www.w3.org/1999/xhtml\"><table class=\"hl7__eu__lab__report\"><tr><th>Test</th><th>17-Feb-2025</th><th>Reference&#xA0;Range</th><th>Unit</th></tr><tr><td>Urea nitrogen [Mass/volume] in Blood</td><td>15.2</td><td>7 - 43</td><td></td><td>mg/dL</td></tr></table></div>"
        },
        "status": "final",
        "subject": {
          "reference": "urn:uuid:cc5ca0cf-4eac-4a4e-8bf8-29a4eee59c6a",
          "display": "Meaghan Neary"
        },
        "effectiveDateTime": "2025-02-17T22:11:04Z",
        "specimen": {
          "reference": "urn:uuid:2ce6f378-63fb-49c5-8dc1-f30574fb018a"
        }
      }
    },
    {
      "fullUrl": "urn:uuid:168448db-2d62-4aea-9460-24f7b74e4018",
      "resource": {
        "resourceType": "Observation",
        "id": "168448db-2d62-4aea-9460-24f7b74e4018",
        "meta": {
          "profile": [
            "http://hl7.eu/fhir/laboratory/StructureDefinition/Observation-resultslab-eu-lab"
          ]
        },
        "performer": [
          {
            "display": "The Central European Lab"
          }
        ],
        "category": [
          {
            "coding": [
              {
                "system": "http://terminology.hl7.org/CodeSystem/observation-category",
                "code": "laboratory"
              }
            ]
          }
        ],
        "code": {
          "coding": [
            {
              "code": "38483-4",
              "system": "http://loinc.org",
              "display": "Creatinine [Mass/volume] in Blood"
            }
          ],
          "text": "Creatinine [Mass/volume] in Blood"
        },
        "valueQuantity": {
          "system": "http://unitsofmeasure.org",
          "value": 3.2,
          "unit": "mg/dL",
          "code": "mg/dL"
        },
        "referenceRange": [
          {
            "low": {
              "value": 0.6,
              "code": "mg/dL",
              "system": "http://unitsofmeasure.org"
            }
          },
          {
            "high": {
              "value": 1.1,
              "code": "mg/dL",
              "system": "http://unitsofmeasure.org"
            }
          }
        ],
        "interpretation": [
          {
            "coding": [
              {
                "code": "H",
                "system": "http://terminology.hl7.org/CodeSystem/v3-ObservationInterpretation",
                "display": "High"
              }
            ]
          }
        ],
        "text": {
          "status": "generated",
          "div": "<div xmlns=\"http://www.w3.org/1999/xhtml\"><table class=\"hl7__eu__lab__report\"><tr><th>Test</th><th>17-Feb-2025</th><th>Reference&#xA0;Range</th><th>Unit</th></tr><tr><td>Creatinine [Mass/volume] in Blood</td><td>3.2</td><td>0.6 - 1.1</td><td>H</td><td>mg/dL</td></tr></table></div>"
        },
        "status": "final",
        "subject": {
          "reference": "urn:uuid:cc5ca0cf-4eac-4a4e-8bf8-29a4eee59c6a",
          "display": "Meaghan Neary"
        },
        "effectiveDateTime": "2025-02-17T22:11:04Z",
        "specimen": {
          "reference": "urn:uuid:2ce6f378-63fb-49c5-8dc1-f30574fb018a"
        }
      }
    },
    {
      "fullUrl": "urn:uuid:c61253f1-c5b6-44eb-a2e6-ce87c79f67a7",
      "resource": {
        "resourceType": "Observation",
        "id": "c61253f1-c5b6-44eb-a2e6-ce87c79f67a7",
        "meta": {
          "profile": [
            "http://hl7.eu/fhir/laboratory/StructureDefinition/Observation-resultslab-eu-lab"
          ]
        },
        "performer": [
          {
            "display": "The Central European Lab"
          }
        ],
        "category": [
          {
            "coding": [
              {
                "system": "http://terminology.hl7.org/CodeSystem/observation-category",
                "code": "laboratory"
              }
            ]
          }
        ],
        "code": {
          "coding": [
            {
              "code": "49765-1",
              "system": "http://loinc.org",
              "display": "Calcium [Mass/volume] in Blood"
            }
          ],
          "text": "Calcium [Mass/volume] in Blood"
        },
        "valueQuantity": {
          "system": "http://unitsofmeasure.org",
          "value": 9.9,
          "unit": "mg/dL",
          "code": "mg/dL"
        },
        "referenceRange": [
          {
            "low": {
              "value": 8.5,
              "code": "mg/dL",
              "system": "http://unitsofmeasure.org"
            }
          },
          {
            "high": {
              "value": 10.5,
              "code": "mg/dL",
              "system": "http://unitsofmeasure.org"
            }
          }
        ],
        "text": {
          "status": "generated",
          "div": "<div xmlns=\"http://www.w3.org/1999/xhtml\"><table class=\"hl7__eu__lab__report\"><tr><th>Test</th><th>17-Feb-2025</th><th>Reference&#xA0;Range</th><th>Unit</th></tr><tr><td>Calcium [Mass/volume] in Blood</td><td>9.9</td><td>8.5 - 10.5</td><td></td><td>mg/dL</td></tr></table></div>"
        },
        "status": "final",
        "subject": {
          "reference": "urn:uuid:cc5ca0cf-4eac-4a4e-8bf8-29a4eee59c6a",
          "display": "Meaghan Neary"
        },
        "effectiveDateTime": "2025-02-17T22:11:04Z",
        "specimen": {
          "reference": "urn:uuid:2ce6f378-63fb-49c5-8dc1-f30574fb018a"
        }
      }
    },
    {
      "fullUrl": "urn:uuid:b895205b-d958-4e43-b345-4297b100808a",
      "resource": {
        "resourceType": "Observation",
        "id": "b895205b-d958-4e43-b345-4297b100808a",
        "meta": {
          "profile": [
            "http://hl7.eu/fhir/laboratory/StructureDefinition/Observation-resultslab-eu-lab"
          ]
        },
        "performer": [
          {
            "display": "The Central European Lab"
          }
        ],
        "category": [
          {
            "coding": [
              {
                "system": "http://terminology.hl7.org/CodeSystem/observation-category",
                "code": "laboratory"
              }
            ]
          }
        ],
        "code": {
          "coding": [
            {
              "code": "2947-0",
              "system": "http://loinc.org",
              "display": "Sodium [Moles/volume] in Blood"
            }
          ],
          "text": "Sodium [Moles/volume] in Blood"
        },
        "valueQuantity": {
          "system": "http://unitsofmeasure.org",
          "value": 137,
          "unit": "mmol/L",
          "code": "mmol/L"
        },
        "referenceRange": [
          {
            "low": {
              "value": 135,
              "code": "mmol/L",
              "system": "http://unitsofmeasure.org"
            }
          },
          {
            "high": {
              "value": 145,
              "code": "mmol/L",
              "system": "http://unitsofmeasure.org"
            }
          }
        ],
        "text": {
          "status": "generated",
          "div": "<div xmlns=\"http://www.w3.org/1999/xhtml\"><table class=\"hl7__eu__lab__report\"><tr><th>Test</th><th>17-Feb-2025</th><th>Reference&#xA0;Range</th><th>Unit</th></tr><tr><td>Sodium [Moles/volume] in Blood</td><td>137.0</td><td>135 - 145</td><td></td><td>mmol/L</td></tr></table></div>"
        },
        "status": "final",
        "subject": {
          "reference": "urn:uuid:cc5ca0cf-4eac-4a4e-8bf8-29a4eee59c6a",
          "display": "Meaghan Neary"
        },
        "effectiveDateTime": "2025-02-17T22:11:04Z",
        "specimen": {
          "reference": "urn:uuid:2ce6f378-63fb-49c5-8dc1-f30574fb018a"
        }
      }
    },
    {
      "fullUrl": "urn:uuid:5b733855-4f22-47c9-974e-89b1f97d86f4",
      "resource": {
        "resourceType": "Observation",
        "id": "5b733855-4f22-47c9-974e-89b1f97d86f4",
        "meta": {
          "profile": [
            "http://hl7.eu/fhir/laboratory/StructureDefinition/Observation-resultslab-eu-lab"
          ]
        },
        "performer": [
          {
            "display": "The Central European Lab"
          }
        ],
        "category": [
          {
            "coding": [
              {
                "system": "http://terminology.hl7.org/CodeSystem/observation-category",
                "code": "laboratory"
              }
            ]
          }
        ],
        "code": {
          "coding": [
            {
              "code": "6298-4",
              "system": "http://loinc.org",
              "display": "Potassium [Moles/volume] in Blood"
            }
          ],
          "text": "Potassium [Moles/volume] in Blood"
        },
        "valueQuantity": {
          "system": "http://unitsofmeasure.org",
          "value": 5.2,
          "unit": "mmol/L",
          "code": "mmol/L"
        },
        "referenceRange": [
          {
            "low": {
              "value": 3.5,
              "code": "mmol/L",
              "system": "http://unitsofmeasure.org"
            }
          },
          {
            "high": {
              "value": 5.1,
              "code": "mmol/L",
              "system": "http://unitsofmeasure.org"
            }
          }
        ],
        "interpretation": [
          {
            "coding": [
              {
                "code": "H",
                "system": "http://terminology.hl7.org/CodeSystem/v3-ObservationInterpretation",
                "display": "High"
              }
            ]
          }
        ],
        "text": {
          "status": "generated",
          "div": "<div xmlns=\"http://www.w3.org/1999/xhtml\"><table class=\"hl7__eu__lab__report\"><tr><th>Test</th><th>17-Feb-2025</th><th>Reference&#xA0;Range</th><th>Unit</th></tr><tr><td>Potassium [Moles/volume] in Blood</td><td>5.2</td><td>3.5 - 5.1</td><td>H</td><td>mmol/L</td></tr></table></div>"
        },
        "status": "final",
        "subject": {
          "reference": "urn:uuid:cc5ca0cf-4eac-4a4e-8bf8-29a4eee59c6a",
          "display": "Meaghan Neary"
        },
        "effectiveDateTime": "2025-02-17T22:11:04Z",
        "specimen": {
          "reference": "urn:uuid:2ce6f378-63fb-49c5-8dc1-f30574fb018a"
        }
      }
    },
    {
      "fullUrl": "urn:uuid:1c1398e9-34ac-4369-b8b1-514d9e528a6b",
      "resource": {
        "resourceType": "Observation",
        "id": "1c1398e9-34ac-4369-b8b1-514d9e528a6b",
        "meta": {
          "profile": [
            "http://hl7.eu/fhir/laboratory/StructureDefinition/Observation-resultslab-eu-lab"
          ]
        },
        "performer": [
          {
            "display": "The Central European Lab"
          }
        ],
        "category": [
          {
            "coding": [
              {
                "system": "http://terminology.hl7.org/CodeSystem/observation-category",
                "code": "laboratory"
              }
            ]
          }
        ],
        "code": {
          "coding": [
            {
              "code": "2069-3",
              "system": "http://loinc.org",
              "display": "Chloride [Moles/volume] in Blood"
            }
          ],
          "text": "Chloride [Moles/volume] in Blood"
        },
        "valueQuantity": {
          "system": "http://unitsofmeasure.org",
          "value": 110.3,
          "unit": "mmol/L",
          "code": "mmol/L"
        },
        "referenceRange": [
          {
            "low": {
              "value": 98,
              "code": "mmol/L",
              "system": "http://unitsofmeasure.org"
            }
          },
          {
            "high": {
              "value": 108,
              "code": "mmol/L",
              "system": "http://unitsofmeasure.org"
            }
          }
        ],
        "interpretation": [
          {
            "coding": [
              {
                "code": "H",
                "system": "http://terminology.hl7.org/CodeSystem/v3-ObservationInterpretation",
                "display": "High"
              }
            ]
          }
        ],
        "text": {
          "status": "generated",
          "div": "<div xmlns=\"http://www.w3.org/1999/xhtml\"><table class=\"hl7__eu__lab__report\"><tr><th>Test</th><th>17-Feb-2025</th><th>Reference&#xA0;Range</th><th>Unit</th></tr><tr><td>Chloride [Moles/volume] in Blood</td><td>110.3</td><td>98 - 108</td><td>H</td><td>mmol/L</td></tr></table></div>"
        },
        "status": "final",
        "subject": {
          "reference": "urn:uuid:cc5ca0cf-4eac-4a4e-8bf8-29a4eee59c6a",
          "display": "Meaghan Neary"
        },
        "effectiveDateTime": "2025-02-17T22:11:04Z",
        "specimen": {
          "reference": "urn:uuid:2ce6f378-63fb-49c5-8dc1-f30574fb018a"
        }
      }
    },
    {
      "fullUrl": "urn:uuid:21bc606c-c1f6-4f1d-891b-4aac3c0b4a12",
      "resource": {
        "resourceType": "Observation",
        "id": "21bc606c-c1f6-4f1d-891b-4aac3c0b4a12",
        "meta": {
          "profile": [
            "http://hl7.eu/fhir/laboratory/StructureDefinition/Observation-resultslab-eu-lab"
          ]
        },
        "performer": [
          {
            "display": "The Central European Lab"
          }
        ],
        "category": [
          {
            "coding": [
              {
                "system": "http://terminology.hl7.org/CodeSystem/observation-category",
                "code": "laboratory"
              }
            ]
          }
        ],
        "code": {
          "coding": [
            {
              "code": "20565-8",
              "system": "http://loinc.org",
              "display": "Carbon dioxide, total [Moles/volume] in Blood"
            }
          ],
          "text": "Carbon dioxide, total [Moles/volume] in Blood"
        },
        "valueQuantity": {
          "system": "http://unitsofmeasure.org",
          "value": 24.9,
          "unit": "mmol/L",
          "code": "mmol/L"
        },
        "referenceRange": [
          {
            "low": {
              "value": 22,
              "code": "mmol/L",
              "system": "http://unitsofmeasure.org"
            }
          },
          {
            "high": {
              "value": 29,
              "code": "mmol/L",
              "system": "http://unitsofmeasure.org"
            }
          }
        ],
        "text": {
          "status": "generated",
          "div": "<div xmlns=\"http://www.w3.org/1999/xhtml\"><table class=\"hl7__eu__lab__report\"><tr><th>Test</th><th>17-Feb-2025</th><th>Reference&#xA0;Range</th><th>Unit</th></tr><tr><td>Carbon dioxide, total [Moles/volume] in Blood</td><td>24.9</td><td>22 - 29</td><td></td><td>mmol/L</td></tr></table></div>"
        },
        "status": "final",
        "subject": {
          "reference": "urn:uuid:cc5ca0cf-4eac-4a4e-8bf8-29a4eee59c6a",
          "display": "Meaghan Neary"
        },
        "effectiveDateTime": "2025-02-17T22:11:04Z",
        "specimen": {
          "reference": "urn:uuid:2ce6f378-63fb-49c5-8dc1-f30574fb018a"
        }
      }
    },
    {
      "fullUrl": "urn:uuid:01c819f5-dd5e-4032-8dce-eff7a13b2731",
      "resource": {
        "resourceType": "Device",
        "id": "01c819f5-dd5e-4032-8dce-eff7a13b2731",
        "deviceName": [
          {
            "name": "SYNDERAI Synthetic Generator",
            "type": "manufacturer-name"
          }
        ],
        "version": [
          {
            "value": "5.0"
          }
        ],
        "text": {
          "status": "generated",
          "div": "<div xmlns=\"http://www.w3.org/1999/xhtml\">SYNDERAI Synthetic Generator v5.0</div>"
        },
        "status": "active\"",
        "distinctIdentifier": "synderai-generator-50",
        "manufacturer": "SYNDERAI Project"
      }
    },
    {
      "fullUrl": "urn:uuid:1917f13a-5848-4455-8c5c-c7d959f4b73d",
      "resource": {
        "resourceType": "Provenance",
        "id": "1917f13a-5848-4455-8c5c-c7d959f4b73d",
        "target": [
          {
            "reference": "Patient/cc5ca0cf-4eac-4a4e-8bf8-29a4eee59c6a"
          },
          {
            "reference": "Bundle/b1f587ad-a9c1-4681-b462-fb1a2e99b431"
          },
          {
            "reference": "Composition/df904131-4a04-4a11-ad13-51e322b0c326"
          },
          {
            "reference": "PractitionerRole/a2c05e76-3697-4585-b747-e067fa4ab267"
          },
          {
            "reference": "Practitioner/547e3158-85e2-456d-8678-b26badb28f89"
          },
          {
            "reference": "PractitionerRole/5c1711c4-b1bf-4f14-8335-7cb599d96070"
          },
          {
            "reference": "Organization/d73fbb2e-3eed-49aa-a391-79d2a5cbfa0a"
          }
        ],
        "activity": {
          "text": "Synthetic Example Data Generation"
        },
        "policy": [
          "https://synderai.net/synderai-synthetic-data-policy"
        ],
        "agent": [
          {
            "type": {
              "text": "author"
            },
            "who": {
              "reference": "Device/01c819f5-dd5e-4032-8dce-eff7a13b2731"
            }
          }
        ],
        "reason": [
          {
            "text": "Interoperability Testing and Training (non-clinical use)"
          }
        ],
        "text": {
          "status": "generated",
          "div": "<div xmlns=\"http://www.w3.org/1999/xhtml\">Provenance for SYNDERAI Synthetic Example Data Resource</div>"
        },
        "recorded": "2025-02-17T23:11:04Z"
      }
    },
    {
      "fullUrl": "urn:uuid:a2c05e76-3697-4585-b747-e067fa4ab267",
      "resource": {
        "resourceType": "PractitionerRole",
        "id": "a2c05e76-3697-4585-b747-e067fa4ab267",
        "meta": {
          "profile": [
            "http://hl7.eu/fhir/base/StructureDefinition/practitionerRole-eu"
          ]
        },
        "text": {
          "status": "generated",
          "div": "<div xmlns=\"http://www.w3.org/1999/xhtml\">Laboratory Role Id: a2c05e76-3697-4585-b747-e067fa4ab267</div>"
        },
        "practitioner": {
          "reference": "urn:uuid:547e3158-85e2-456d-8678-b26badb28f89"
        }
      }
    },
    {
      "fullUrl": "urn:uuid:547e3158-85e2-456d-8678-b26badb28f89",
      "resource": {
        "resourceType": "Practitioner",
        "id": "547e3158-85e2-456d-8678-b26badb28f89",
        "meta": {
          "profile": [
            "http://hl7.eu/fhir/base/StructureDefinition/practitioner-eu"
          ]
        },
        "identifier": [
          {
            "assigner": {
              "display": "HL7 Europe"
            },
            "system": "urn:oid:2.16.840.1.113883.2.51.999",
            "value": "e671c46c-38c0-4ad3-a5d7-350d0a362fc3"
          }
        ],
        "name": [
          {
            "prefix": [
              "dr"
            ],
            "given": [
              "Ex"
            ],
            "family": "Ample"
          }
        ],
        "address": [
          {
            "line": [
              "Laboratoire Central Europenne",
              "Boulevard du Jardin Botanique 32"
            ],
            "postalCode": "1000",
            "city": "Brussels",
            "country": "Belgium"
          }
        ],
        "text": {
          "status": "generated",
          "div": "<div xmlns=\"http://www.w3.org/1999/xhtml\">Laboratory: Laboratoire Central Europenne, 1000 Brussels, Belgium</div>"
        }
      }
    }
  ],
  "type": "document",
  "timestamp": "2025-02-17T23:11:04Z"
}
