{
  "resourceType": "Bundle",
  "id": "17683413-25c5-4a83-b41f-e97dcd45ba73",
  "meta": {
    "profile": [
      "http://hl7.eu/fhir/laboratory/StructureDefinition/Bundle-eu-lab"
    ]
  },
  "identifier": {
    "assigner": {
      "display": "HL7 Europe"
    },
    "system": "urn:oid:2.16.840.1.113883.2.51.999",
    "value": "a289c68d-005f-41af-91fb-a156c6cfee27"
  },
  "entry": [
    {
      "fullUrl": "urn:uuid:3197e5ab-17ae-40a2-aea5-9bb3873987f8",
      "resource": {
        "resourceType": "Composition",
        "id": "3197e5ab-17ae-40a2-aea5-9bb3873987f8",
        "meta": {
          "profile": [
            "http://hl7.eu/fhir/laboratory/StructureDefinition/Composition-eu-lab"
          ]
        },
        "identifier": {
          "assigner": {
            "display": "HL7 Europe"
          },
          "system": "urn:oid:2.16.840.1.113883.2.51.999",
          "value": "267afabd-6d3c-44ea-8a96-0ba57e157f04"
        },
        "author": [
          {
            "reference": "urn:uuid:cc80ee59-ae33-4ae4-9b19-81a2725aebcd"
          }
        ],
        "category": [
          {
            "coding": [
              {
                "code": "26436-6",
                "system": "http://loinc.org",
                "display": "Laboratory studies (set)"
              }
            ]
          }
        ],
        "type": {
          "coding": [
            {
              "code": "11502-2",
              "system": "http://loinc.org",
              "display": "Laboratory report"
            }
          ],
          "text": "Laboratory Report"
        },
        "section": [
          {
            "code": {
              "coding": [
                {
                  "code": "26436-6",
                  "system": "http://loinc.org",
                  "display": "Laboratory studies (set)"
                }
              ],
              "text": "Laboratory studies"
            },
            "section": [
              {
                "code": {
                  "coding": [
                    {
                      "code": "$18719-5",
                      "system": "http://loinc.org",
                      "display": "Chemistry studies (set)"
                    }
                  ],
                  "text": "Chemistry"
                },
                "entry": [
                  {
                    "reference": "urn:uuid:146d67e4-350c-4827-bebc-9f1560464c99"
                  },
                  {
                    "reference": "urn:uuid:840e519e-ddc9-4698-9bf4-0d27ea9ba6bb"
                  },
                  {
                    "reference": "urn:uuid:f6538e13-2d65-412f-b3da-472c4e1d530f"
                  },
                  {
                    "reference": "urn:uuid:02a03c0a-4553-40b5-a3b2-3ab76cf7146e"
                  },
                  {
                    "reference": "urn:uuid:5e0f8386-3563-4437-9383-1dbc8ed05c41"
                  },
                  {
                    "reference": "urn:uuid:64b67329-df48-4993-813e-450036c97cab"
                  },
                  {
                    "reference": "urn:uuid:59e8ae03-7184-4806-9d7c-cf731b56cf0b"
                  },
                  {
                    "reference": "urn:uuid:c313e37a-7c47-4e3b-afb2-e6830ff17f39"
                  },
                  {
                    "reference": "urn:uuid:9677fc3d-f8d1-4668-a0cb-3fb1abbcc49d"
                  },
                  {
                    "reference": "urn:uuid:90904a38-f73f-4047-8a9c-85bb79ccecf7"
                  },
                  {
                    "reference": "urn:uuid:f1be4665-2e44-4a94-984e-21e1c21a6062"
                  },
                  {
                    "reference": "urn:uuid:f8e9b552-3341-41e2-86eb-1493814f0142"
                  },
                  {
                    "reference": "urn:uuid:c4198e24-88a6-413a-a605-870456f6d15f"
                  },
                  {
                    "reference": "urn:uuid:611bd214-f43c-422b-8ec7-9ae9eb5648b8"
                  },
                  {
                    "reference": "urn:uuid:3905260b-d510-4c7b-816e-9adc99a2f6a0"
                  },
                  {
                    "reference": "urn:uuid:2ac632cf-3e78-4e8b-a08e-69665914e993"
                  },
                  {
                    "reference": "urn:uuid:fdc356fc-6859-4934-b909-f91abed1e55f"
                  },
                  {
                    "reference": "urn:uuid:e126e83d-87f2-46c8-b44f-3ed5afd6af23"
                  }
                ],
                "text": {
                  "status": "generated",
                  "div": "<div xmlns=\"http://www.w3.org/1999/xhtml\"><h3>Chemistry</h3><table class=\"hl7__eu__lab__report\"><thead><tr><th>Test</th><th>24-JAN-2019</th><th>Reference&#xA0;Range</th><th>Unit</th></tr></thead><tbody><tr><td>Glucose [Mass/volume] in Serum or Plasma</td><td>99.2</td><td>70 - 139</td><td>mg/dL</td></tr><tr><td>Urea nitrogen [Mass/volume] in Serum or Plasma</td><td>10.7</td><td>7 - 20</td><td>mg/dL</td></tr><tr><td>Creatinine [Mass/volume] in Serum or Plasma</td><td><strong>2.0 H</strong></td><td>0.6 - 1.1</td><td>mg/dL</td></tr><tr><td>Calcium [Mass/volume] in Serum or Plasma</td><td>9.1</td><td>8.5 - 10.4</td><td>mg/dL</td></tr><tr><td>Sodium [Moles/volume] in Serum or Plasma</td><td>143.6</td><td>135 - 145</td><td>mmol/L</td></tr><tr><td>Potassium [Moles/volume] in Serum or Plasma</td><td>4.3</td><td>3.5 - 5.1</td><td>mmol/L</td></tr><tr><td>Chloride [Moles/volume] in Serum or Plasma</td><td>108.7</td><td>98 - 110</td><td>mmol/L</td></tr><tr><td>Carbon dioxide, total [Moles/volume] in Serum or Plasma</td><td>28.6</td><td>22 - 32</td><td>mmol/L</td></tr><tr><td>Ketones [Presence] in Urine by Test strip</td><td>Urine ketone test = +</td><td></td><td></td></tr><tr><td>Hemoglobin A1c/Hemoglobin.total in Blood</td><td><strong>2.9 L</strong></td><td>4 - 6</td><td>%</td></tr><tr><td>Glucose [Mass/volume] in Blood</td><td>99.2</td><td>70 - 100</td><td>mg/dL</td></tr><tr><td>Urea nitrogen [Mass/volume] in Blood</td><td>10.7</td><td>7 - 20</td><td>mg/dL</td></tr><tr><td>Creatinine [Mass/volume] in Blood</td><td><strong>1.4 H</strong></td><td>0.6 - 1.3</td><td>mg/dL</td></tr><tr><td>Calcium [Mass/volume] in Blood</td><td>9.1</td><td>8.6 - 10.4</td><td>mg/dL</td></tr><tr><td>Sodium [Moles/volume] in Blood</td><td>143.6</td><td>135 - 145</td><td>mmol/L</td></tr><tr><td>Potassium [Moles/volume] in Blood</td><td>4.3</td><td>3.5 - 5.1</td><td>mmol/L</td></tr><tr><td>Chloride [Moles/volume] in Blood</td><td>108.7</td><td>98 - 110</td><td>mmol/L</td></tr><tr><td>Carbon dioxide, total [Moles/volume] in Blood</td><td>28.6</td><td>22 - 29</td><td>mmol/L</td></tr></tbody></table></div>"
                },
                "title": "Chemistry"
              },
              {
                "code": {
                  "coding": [
                    {
                      "code": "$18729-4",
                      "system": "http://loinc.org",
                      "display": "Urinalysis studies (set)"
                    }
                  ],
                  "text": "Urinalysis"
                },
                "entry": [
                  {
                    "reference": "urn:uuid:52776d59-3c7e-4d7b-82e5-8250da3bf2de"
                  },
                  {
                    "reference": "urn:uuid:2af37e2d-5923-48c7-9a4d-f73d13536d2b"
                  },
                  {
                    "reference": "urn:uuid:9ce1f260-77fc-4356-94ec-835f3b3e0b69"
                  },
                  {
                    "reference": "urn:uuid:50be2497-4407-4f75-81d9-90d1c5045eac"
                  },
                  {
                    "reference": "urn:uuid:2db7a86a-78fe-475c-85a6-3fb3fd78930f"
                  },
                  {
                    "reference": "urn:uuid:5ccb1556-d640-4157-b9fb-5de0e395a3c9"
                  },
                  {
                    "reference": "urn:uuid:aec2c194-222f-4aff-b76d-1bc43661d063"
                  },
                  {
                    "reference": "urn:uuid:a73a8241-6585-4957-95a3-e19b5c4569ab"
                  },
                  {
                    "reference": "urn:uuid:ce36dc0d-2e26-42d6-b98d-e5091b8b7bf0"
                  },
                  {
                    "reference": "urn:uuid:33977de5-172a-433e-ba2b-d14f638648c9"
                  },
                  {
                    "reference": "urn:uuid:097adbed-0695-4bb8-bb9e-b564cef2a147"
                  },
                  {
                    "reference": "urn:uuid:dfa88a8a-ee9b-4eb4-ac34-8c244d4d3515"
                  }
                ],
                "text": {
                  "status": "generated",
                  "div": "<div xmlns=\"http://www.w3.org/1999/xhtml\"><h3>Urinalysis</h3><table class=\"hl7__eu__lab__report\"><thead><tr><th>Test</th><th>24-JAN-2019</th><th>Reference&#xA0;Range</th><th>Unit</th></tr></thead><tbody><tr><td>Glucose [Mass/volume] in Urine by Test strip</td><td><strong>1.0 H</strong></td><td>0 - 0</td><td>mg/dL</td></tr><tr><td>Glucose [Presence] in Urine by Test strip</td><td>++</td><td></td><td></td></tr><tr><td>Bilirubin.total [Mass/volume] in Urine by Test strip</td><td>1.5</td><td>0 - 1.6</td><td>mg/dL</td></tr><tr><td>Bilirubin.total [Presence] in Urine by Test strip</td><td>Finding of bilirubin in urine</td><td></td><td></td></tr><tr><td>Ketones [Mass/volume] in Urine by Test strip</td><td><strong>11.7 H</strong></td><td>0 - 0.5</td><td>mg/dL</td></tr><tr><td>Specific gravity of Urine by Test strip</td><td><strong>1.0 L</strong></td><td>1.005 - 1.03</td><td>{nominal}</td></tr><tr><td>pH of Urine by Test strip</td><td>6.6</td><td>4.5 - 7.5</td><td>pH</td></tr><tr><td>Protein [Mass/volume] in Urine by Test strip</td><td><strong>295.3 H</strong></td><td>0 - 15</td><td>mg/dL</td></tr><tr><td>Protein [Presence] in Urine by Test strip</td><td>Urine protein test = ++</td><td></td><td></td></tr><tr><td>Nitrite [Presence] in Urine by Test strip</td><td>Urine nitrite negative</td><td></td><td></td></tr><tr><td>Hemoglobin [Presence] in Urine by Test strip</td><td>Urine blood test = negative</td><td></td><td></td></tr><tr><td>Leukocyte esterase [Presence] in Urine by Test strip</td><td>Urine leukocyte test negative</td><td></td><td></td></tr></tbody></table></div>"
                },
                "title": "Urinalysis"
              },
              {
                "code": {
                  "coding": [
                    {
                      "code": "$LP7846-1",
                      "system": "http://loinc.org",
                      "display": "Specimen information"
                    }
                  ],
                  "text": "Specimen information"
                },
                "entry": [
                  {
                    "reference": "urn:uuid:37de870a-7003-446b-a4b9-77e0a185b26b"
                  },
                  {
                    "reference": "urn:uuid:754b4963-2c86-49c1-a1a2-e08a489532fb"
                  },
                  {
                    "reference": "urn:uuid:fc074173-d24c-4a2d-a208-3da93bc48be5"
                  },
                  {
                    "reference": "urn:uuid:e4702292-8e4b-4919-b442-05c0230ebc8e"
                  }
                ],
                "text": {
                  "status": "generated",
                  "div": "<div xmlns=\"http://www.w3.org/1999/xhtml\"><h3>Specimen information</h3><table class=\"hl7__eu__lab__report\"><thead><tr><th>Test</th><th>24-JAN-2019</th><th>Specimen</th><th></th></tr></thead><tbody><tr><td>Appearance of Urine</td><td>Cloudy urine</td><td>Urine</td><td></td></tr><tr><td>Odor of Urine</td><td>Urine smell ammoniacal</td><td>Urine</td><td></td></tr><tr><td>Clarity of Urine</td><td>Translucent</td><td>Urine</td><td></td></tr><tr><td>Color of Urine</td><td>Brown color</td><td>Urine</td><td></td></tr></tbody></table></div>"
                },
                "title": "Specimen information"
              }
            ],
            "title": "Laboratory Report"
          },
          {
            "text": {
              "status": "generated",
              "div": "<div xmlns=\"http://www.w3.org/1999/xhtml\"><h3>Annotation</h3><table class=\"hl7__eu__lab__report\"><tr><th>Conclusion and Recommendations based on this report and previous findings known to us</th></tr><tr><td>The patient shows elevated creatinine, significant proteinuria, glycosuria, and ketonuria, with low urine specific gravity and abnormal urine appearance, suggesting possible renal impairment and poor glycemic control. Hemoglobin A1c is unexpectedly low, possibly due to analytical or clinical factors (e.g., anemia, hemoglobinopathy). Recommend further evaluation for renal dysfunction and diabetes, and correlation with clinical findings. No evidence of urinary tract infection. Prompt nephrology and endocrinology assessment advised.</td></tr></table></div>"
            },
            "code": {
              "coding": [
                {
                  "system": "http://loinc.org",
                  "code": "48767-8",
                  "display": "Annotation comment"
                }
              ]
            },
            "title": "Annotation comment"
          }
        ],
        "status": "final",
        "subject": {
          "reference": "urn:uuid:321251b2-e848-41e1-8ab6-48c86fbd474b",
          "display": "Molly Jenkins"
        },
        "date": "2019-01-24T15:42:11Z",
        "title": "Laboratory Report",
        "confidentiality": "N"
      }
    },
    {
      "fullUrl": "urn:uuid:531e4976-41c5-40ad-9529-935f9eadb69a",
      "resource": {
        "resourceType": "DiagnosticReport",
        "id": "531e4976-41c5-40ad-9529-935f9eadb69a",
        "meta": {
          "profile": [
            "http://hl7.eu/fhir/laboratory/StructureDefinition/DiagnosticReport-eu-lab"
          ]
        },
        "identifier": [
          {
            "assigner": {
              "display": "HL7 Europe"
            },
            "system": "urn:oid:2.16.840.1.113883.2.51.999",
            "value": "23589b09-9cee-4e4a-a7c8-9808dd4fae8e"
          }
        ],
        "extension": [
          {
            "url": "http://hl7.org/fhir/5.0/StructureDefinition/extension-DiagnosticReport.composition",
            "valueReference": {
              "reference": "urn:uuid:267afabd-6d3c-44ea-8a96-0ba57e157f04"
            }
          }
        ],
        "category": [
          {
            "coding": [
              {
                "code": "26436-6",
                "system": "http://loinc.org",
                "display": "Laboratory studies (set)"
              }
            ]
          }
        ],
        "specimen": [
          {
            "reference": "urn:uuid:279d22a5-3ff7-44f6-beba-84e90b7e3b09"
          },
          {
            "reference": "urn:uuid:e61d38f0-5df4-4a95-9e29-1836a4a356c1"
          },
          {
            "reference": "urn:uuid:304b45b3-083e-47e5-96a0-c60ad317b7a7"
          }
        ],
        "result": [
          {
            "reference": "urn:uuid:146d67e4-350c-4827-bebc-9f1560464c99"
          },
          {
            "reference": "urn:uuid:840e519e-ddc9-4698-9bf4-0d27ea9ba6bb"
          },
          {
            "reference": "urn:uuid:f6538e13-2d65-412f-b3da-472c4e1d530f"
          },
          {
            "reference": "urn:uuid:02a03c0a-4553-40b5-a3b2-3ab76cf7146e"
          },
          {
            "reference": "urn:uuid:5e0f8386-3563-4437-9383-1dbc8ed05c41"
          },
          {
            "reference": "urn:uuid:64b67329-df48-4993-813e-450036c97cab"
          },
          {
            "reference": "urn:uuid:59e8ae03-7184-4806-9d7c-cf731b56cf0b"
          },
          {
            "reference": "urn:uuid:c313e37a-7c47-4e3b-afb2-e6830ff17f39"
          },
          {
            "reference": "urn:uuid:37de870a-7003-446b-a4b9-77e0a185b26b"
          },
          {
            "reference": "urn:uuid:754b4963-2c86-49c1-a1a2-e08a489532fb"
          },
          {
            "reference": "urn:uuid:fc074173-d24c-4a2d-a208-3da93bc48be5"
          },
          {
            "reference": "urn:uuid:e4702292-8e4b-4919-b442-05c0230ebc8e"
          },
          {
            "reference": "urn:uuid:52776d59-3c7e-4d7b-82e5-8250da3bf2de"
          },
          {
            "reference": "urn:uuid:2af37e2d-5923-48c7-9a4d-f73d13536d2b"
          },
          {
            "reference": "urn:uuid:9ce1f260-77fc-4356-94ec-835f3b3e0b69"
          },
          {
            "reference": "urn:uuid:50be2497-4407-4f75-81d9-90d1c5045eac"
          },
          {
            "reference": "urn:uuid:2db7a86a-78fe-475c-85a6-3fb3fd78930f"
          },
          {
            "reference": "urn:uuid:9677fc3d-f8d1-4668-a0cb-3fb1abbcc49d"
          },
          {
            "reference": "urn:uuid:5ccb1556-d640-4157-b9fb-5de0e395a3c9"
          },
          {
            "reference": "urn:uuid:aec2c194-222f-4aff-b76d-1bc43661d063"
          },
          {
            "reference": "urn:uuid:a73a8241-6585-4957-95a3-e19b5c4569ab"
          },
          {
            "reference": "urn:uuid:ce36dc0d-2e26-42d6-b98d-e5091b8b7bf0"
          },
          {
            "reference": "urn:uuid:33977de5-172a-433e-ba2b-d14f638648c9"
          },
          {
            "reference": "urn:uuid:097adbed-0695-4bb8-bb9e-b564cef2a147"
          },
          {
            "reference": "urn:uuid:dfa88a8a-ee9b-4eb4-ac34-8c244d4d3515"
          },
          {
            "reference": "urn:uuid:90904a38-f73f-4047-8a9c-85bb79ccecf7"
          },
          {
            "reference": "urn:uuid:f1be4665-2e44-4a94-984e-21e1c21a6062"
          },
          {
            "reference": "urn:uuid:f8e9b552-3341-41e2-86eb-1493814f0142"
          },
          {
            "reference": "urn:uuid:c4198e24-88a6-413a-a605-870456f6d15f"
          },
          {
            "reference": "urn:uuid:611bd214-f43c-422b-8ec7-9ae9eb5648b8"
          },
          {
            "reference": "urn:uuid:3905260b-d510-4c7b-816e-9adc99a2f6a0"
          },
          {
            "reference": "urn:uuid:2ac632cf-3e78-4e8b-a08e-69665914e993"
          },
          {
            "reference": "urn:uuid:fdc356fc-6859-4934-b909-f91abed1e55f"
          },
          {
            "reference": "urn:uuid:e126e83d-87f2-46c8-b44f-3ed5afd6af23"
          }
        ],
        "status": "registered",
        "code": {
          "coding": [
            {
              "code": "11502-2",
              "system": "http://loinc.org",
              "display": "Laboratory report"
            }
          ]
        },
        "subject": {
          "reference": "urn:uuid:321251b2-e848-41e1-8ab6-48c86fbd474b",
          "display": "Molly Jenkins"
        }
      }
    },
    {
      "fullUrl": "urn:uuid:321251b2-e848-41e1-8ab6-48c86fbd474b",
      "resource": {
        "resourceType": "Patient",
        "id": "321251b2-e848-41e1-8ab6-48c86fbd474b",
        "meta": {
          "security": [
            {
              "system": "http://terminology.hl7.org/CodeSystem/v3-ActReason",
              "code": "HTEST"
            },
            {
              "system": "http://terminology.hl7.org/CodeSystem/v3-ActReason",
              "code": "TRAIN"
            }
          ],
          "tag": [
            {
              "system": "https://synderai.net/fhir/CodeSystem/tags",
              "code": "synthetic",
              "display": "SYNDERAI Synthetic data"
            }
          ],
          "profile": [
            "http://hl7.eu/fhir/base/StructureDefinition/patient-eu-core"
          ]
        },
        "identifier": [
          {
            "type": {
              "coding": [
                {
                  "code": "PT",
                  "system": "http://terminology.hl7.org/CodeSystem/v2-0203"
                }
              ]
            },
            "system": "http://ec.europa.eu/identifier/eci",
            "value": "7634-012682-0"
          },
          {
            "type": {
              "coding": [
                {
                  "code": "MR",
                  "system": "http://terminology.hl7.org/CodeSystem/v2-0203"
                }
              ]
            },
            "system": "http://local.setting.eu/identifier",
            "value": "9934a8eb-b6e1-34e1-edf5-57a0262d1bea"
          }
        ],
        "name": [
          {
            "family": "Jenkins"
          },
          {
            "given": [
              "Molly"
            ]
          },
          {
            "text": "Molly Jenkins"
          }
        ],
        "address": [
          {
            "line": [
              "98 Ali field"
            ],
            "use": "home",
            "type": "physical",
            "postalCode": "AB42",
            "city": "Port Jennamouth",
            "country": "United Kingdom"
          }
        ],
        "telecom": [
          {
            "system": "phone",
            "value": "(0118) 496 0334"
          }
        ],
        "extension": [
          {
            "url": "http://hl7.org/fhir/StructureDefinition/patient-nationality",
            "valueCodeableConcept": {
              "coding": [
                {
                  "code": "GB",
                  "system": "http://hl7.org/fhir/ValueSet/country"
                }
              ]
            }
          }
        ],
        "text": {
          "status": "generated",
          "div": "<div xmlns=\"http://www.w3.org/1999/xhtml\"><table class=\"hl7__ips\"><tr><td>Molly Jenkins</td><td>female</td><td>14-Aug-1967</td></tr></table></div>"
        },
        "gender": "female",
        "birthDate": "1967-08-14"
      }
    },
    {
      "fullUrl": "urn:uuid:f7f48e4e-f884-4fd4-83b3-4ecd3dcc1aab",
      "resource": {
        "resourceType": "ServiceRequest",
        "id": "f7f48e4e-f884-4fd4-83b3-4ecd3dcc1aab",
        "meta": {
          "profile": [
            "http://hl7.eu/fhir/laboratory/StructureDefinition/ServiceRequest-eu-lab"
          ]
        },
        "identifier": [
          {
            "system": "http://example.org",
            "value": "308515f9-cce6-4e5e-8f6a-5c12febba96f"
          }
        ],
        "specimen": [
          {
            "reference": "urn:uuid:279d22a5-3ff7-44f6-beba-84e90b7e3b09"
          },
          {
            "reference": "urn:uuid:e61d38f0-5df4-4a95-9e29-1836a4a356c1"
          },
          {
            "reference": "urn:uuid:304b45b3-083e-47e5-96a0-c60ad317b7a7"
          }
        ],
        "reasonCode": [
          {
            "coding": [
              {
                "code": "431856006",
                "system": "http://snomed.info/sct",
                "display": "Chronic kidney disease stage 2"
              }
            ]
          },
          {
            "coding": [
              {
                "code": "90781000119102",
                "system": "http://snomed.info/sct",
                "display": "Microalbuminuria due to type 2 diabetes mellitus"
              }
            ]
          },
          {
            "coding": [
              {
                "code": "127013003",
                "system": "http://snomed.info/sct",
                "display": "Disorder of kidney due to diabetes mellitus"
              }
            ]
          },
          {
            "coding": [
              {
                "code": "431855005",
                "system": "http://snomed.info/sct",
                "display": "Chronic kidney disease stage 1"
              }
            ]
          },
          {
            "coding": [
              {
                "code": "15777000",
                "system": "http://snomed.info/sct",
                "display": "Prediabetes"
              }
            ]
          },
          {
            "coding": [
              {
                "code": "59621000",
                "system": "http://snomed.info/sct",
                "display": "Essential hypertension"
              }
            ]
          },
          {
            "coding": [
              {
                "code": "53827007",
                "system": "http://snomed.info/sct",
                "display": "Excessive salivation"
              }
            ]
          },
          {
            "coding": [
              {
                "code": "64859006",
                "system": "http://snomed.info/sct",
                "display": "Osteoporosis"
              }
            ]
          },
          {
            "coding": [
              {
                "code": "128188000",
                "system": "http://snomed.info/sct",
                "display": "Cerebral palsy"
              }
            ]
          },
          {
            "coding": [
              {
                "code": "235595009",
                "system": "http://snomed.info/sct",
                "display": "Gastroesophageal reflux disease"
              }
            ]
          }
        ],
        "status": "active",
        "intent": "order",
        "code": {
          "coding": [
            {
              "code": "108252007",
              "system": "http://snomed.info/sct",
              "display": "Laboratory procedure"
            }
          ]
        },
        "subject": {
          "reference": "urn:uuid:321251b2-e848-41e1-8ab6-48c86fbd474b",
          "display": "Molly Jenkins"
        },
        "requester": {
          "reference": "urn:uuid:3028dae5-c353-498b-9a81-e831d806422b"
        }
      }
    },
    {
      "fullUrl": "urn:uuid:3028dae5-c353-498b-9a81-e831d806422b",
      "resource": {
        "resourceType": "PractitionerRole",
        "id": "3028dae5-c353-498b-9a81-e831d806422b",
        "meta": {
          "profile": [
            "http://hl7.eu/fhir/base/StructureDefinition/practitionerRole-eu"
          ]
        },
        "text": {
          "status": "generated",
          "div": "<div xmlns=\"http://www.w3.org/1999/xhtml\">Provider Role Id: 3028dae5-c353-498b-9a81-e831d806422b</div>"
        },
        "organization": {
          "reference": "urn:uuid:40d13b59-4826-4b0b-8da7-41d719ba7301"
        }
      }
    },
    {
      "fullUrl": "urn:uuid:40d13b59-4826-4b0b-8da7-41d719ba7301",
      "resource": {
        "resourceType": "Organization",
        "id": "40d13b59-4826-4b0b-8da7-41d719ba7301",
        "meta": {
          "profile": [
            "http://hl7.eu/fhir/base/StructureDefinition/organization-eu"
          ]
        },
        "identifier": [
          {
            "assigner": {
              "display": "HL7 Europe"
            },
            "system": "urn:oid:2.16.840.1.113883.2.51.999",
            "value": "4efd123c-0e06-4392-bffd-3f72fb02788f"
          }
        ],
        "address": [
          {
            "city": "Aberdeen",
            "postalCode": "AB11 6",
            "country": "United Kingdom"
          }
        ],
        "text": {
          "status": "generated",
          "div": "<div xmlns=\"http://www.w3.org/1999/xhtml\">Provider Organization: Aberdeen Community Health and Care Village</div>"
        },
        "name": "Aberdeen Community Health and Care Village"
      }
    },
    {
      "fullUrl": "urn:uuid:279d22a5-3ff7-44f6-beba-84e90b7e3b09",
      "resource": {
        "resourceType": "Specimen",
        "id": "279d22a5-3ff7-44f6-beba-84e90b7e3b09",
        "meta": {
          "profile": [
            "http://hl7.eu/fhir/laboratory/StructureDefinition/Specimen-eu-lab"
          ]
        },
        "collection": {
          "collectedDateTime": "2019-01-24"
        },
        "text": {
          "status": "generated",
          "div": "<div xmlns=\"http://www.w3.org/1999/xhtml\"><table class=\"hl7__eu__lab__report\"><tr><th>Specimen</th><th>Collection Date</th></tr><tr><td>Acellular blood (serum or plasma) specimen</td><td><span class=\"nb\">24-Jan-2019</span></td></tr></table></div>"
        },
        "type": {
          "coding": [
            {
              "code": "122592007",
              "system": "http://snomed.info/sct",
              "display": "Acellular blood (serum or plasma) specimen"
            }
          ]
        }
      }
    },
    {
      "fullUrl": "urn:uuid:e61d38f0-5df4-4a95-9e29-1836a4a356c1",
      "resource": {
        "resourceType": "Specimen",
        "id": "e61d38f0-5df4-4a95-9e29-1836a4a356c1",
        "meta": {
          "profile": [
            "http://hl7.eu/fhir/laboratory/StructureDefinition/Specimen-eu-lab"
          ]
        },
        "collection": {
          "collectedDateTime": "2019-01-24"
        },
        "text": {
          "status": "generated",
          "div": "<div xmlns=\"http://www.w3.org/1999/xhtml\"><table class=\"hl7__eu__lab__report\"><tr><th>Specimen</th><th>Collection Date</th></tr><tr><td>Urine specimen</td><td><span class=\"nb\">24-Jan-2019</span></td></tr></table></div>"
        },
        "type": {
          "coding": [
            {
              "code": "122575003",
              "system": "http://snomed.info/sct",
              "display": "Urine specimen"
            }
          ]
        }
      }
    },
    {
      "fullUrl": "urn:uuid:304b45b3-083e-47e5-96a0-c60ad317b7a7",
      "resource": {
        "resourceType": "Specimen",
        "id": "304b45b3-083e-47e5-96a0-c60ad317b7a7",
        "meta": {
          "profile": [
            "http://hl7.eu/fhir/laboratory/StructureDefinition/Specimen-eu-lab"
          ]
        },
        "collection": {
          "collectedDateTime": "2019-01-24"
        },
        "text": {
          "status": "generated",
          "div": "<div xmlns=\"http://www.w3.org/1999/xhtml\"><table class=\"hl7__eu__lab__report\"><tr><th>Specimen</th><th>Collection Date</th></tr><tr><td>Whole blood specimen (specimen)</td><td><span class=\"nb\">24-Jan-2019</span></td></tr></table></div>"
        },
        "type": {
          "coding": [
            {
              "code": "258580003",
              "system": "http://snomed.info/sct",
              "display": "Whole blood specimen (specimen)"
            }
          ]
        }
      }
    },
    {
      "fullUrl": "urn:uuid:146d67e4-350c-4827-bebc-9f1560464c99",
      "resource": {
        "resourceType": "Observation",
        "id": "146d67e4-350c-4827-bebc-9f1560464c99",
        "meta": {
          "profile": [
            "http://hl7.eu/fhir/laboratory/StructureDefinition/Observation-resultslab-eu-lab"
          ]
        },
        "performer": [
          {
            "display": "The Central European Lab"
          }
        ],
        "category": [
          {
            "coding": [
              {
                "system": "http://terminology.hl7.org/CodeSystem/observation-category",
                "code": "laboratory"
              }
            ]
          }
        ],
        "code": {
          "coding": [
            {
              "code": "2345-7",
              "system": "http://loinc.org",
              "display": "Glucose [Mass/volume] in Serum or Plasma"
            }
          ],
          "text": "Glucose [Mass/volume] in Serum or Plasma"
        },
        "valueQuantity": {
          "system": "http://unitsofmeasure.org",
          "value": 99.2,
          "unit": "mg/dL",
          "code": "mg/dL"
        },
        "referenceRange": [
          {
            "low": {
              "value": 70,
              "code": "mg/dL",
              "system": "http://unitsofmeasure.org"
            }
          },
          {
            "high": {
              "value": 139,
              "code": "mg/dL",
              "system": "http://unitsofmeasure.org"
            }
          }
        ],
        "text": {
          "status": "generated",
          "div": "<div xmlns=\"http://www.w3.org/1999/xhtml\"><table class=\"hl7__eu__lab__report\"><tr><th>Test</th><th>24-Jan-2019</th><th>Reference&#xA0;Range</th><th>Unit</th></tr><tr><td>Glucose [Mass/volume] in Serum or Plasma</td><td>99.2</td><td>70 - 139</td><td></td><td>mg/dL</td></tr></table></div>"
        },
        "status": "final",
        "subject": {
          "reference": "urn:uuid:321251b2-e848-41e1-8ab6-48c86fbd474b",
          "display": "Molly Jenkins"
        },
        "effectiveDateTime": "2019-01-24T14:42:11Z",
        "specimen": {
          "reference": "urn:uuid:279d22a5-3ff7-44f6-beba-84e90b7e3b09"
        }
      }
    },
    {
      "fullUrl": "urn:uuid:840e519e-ddc9-4698-9bf4-0d27ea9ba6bb",
      "resource": {
        "resourceType": "Observation",
        "id": "840e519e-ddc9-4698-9bf4-0d27ea9ba6bb",
        "meta": {
          "profile": [
            "http://hl7.eu/fhir/laboratory/StructureDefinition/Observation-resultslab-eu-lab"
          ]
        },
        "performer": [
          {
            "display": "The Central European Lab"
          }
        ],
        "category": [
          {
            "coding": [
              {
                "system": "http://terminology.hl7.org/CodeSystem/observation-category",
                "code": "laboratory"
              }
            ]
          }
        ],
        "code": {
          "coding": [
            {
              "code": "3094-0",
              "system": "http://loinc.org",
              "display": "Urea nitrogen [Mass/volume] in Serum or Plasma"
            }
          ],
          "text": "Urea nitrogen [Mass/volume] in Serum or Plasma"
        },
        "valueQuantity": {
          "system": "http://unitsofmeasure.org",
          "value": 10.7,
          "unit": "mg/dL",
          "code": "mg/dL"
        },
        "referenceRange": [
          {
            "low": {
              "value": 7,
              "code": "mg/dL",
              "system": "http://unitsofmeasure.org"
            }
          },
          {
            "high": {
              "value": 20,
              "code": "mg/dL",
              "system": "http://unitsofmeasure.org"
            }
          }
        ],
        "text": {
          "status": "generated",
          "div": "<div xmlns=\"http://www.w3.org/1999/xhtml\"><table class=\"hl7__eu__lab__report\"><tr><th>Test</th><th>24-Jan-2019</th><th>Reference&#xA0;Range</th><th>Unit</th></tr><tr><td>Urea nitrogen [Mass/volume] in Serum or Plasma</td><td>10.7</td><td>7 - 20</td><td></td><td>mg/dL</td></tr></table></div>"
        },
        "status": "final",
        "subject": {
          "reference": "urn:uuid:321251b2-e848-41e1-8ab6-48c86fbd474b",
          "display": "Molly Jenkins"
        },
        "effectiveDateTime": "2019-01-24T14:42:11Z",
        "specimen": {
          "reference": "urn:uuid:279d22a5-3ff7-44f6-beba-84e90b7e3b09"
        }
      }
    },
    {
      "fullUrl": "urn:uuid:f6538e13-2d65-412f-b3da-472c4e1d530f",
      "resource": {
        "resourceType": "Observation",
        "id": "f6538e13-2d65-412f-b3da-472c4e1d530f",
        "meta": {
          "profile": [
            "http://hl7.eu/fhir/laboratory/StructureDefinition/Observation-resultslab-eu-lab"
          ]
        },
        "performer": [
          {
            "display": "The Central European Lab"
          }
        ],
        "category": [
          {
            "coding": [
              {
                "system": "http://terminology.hl7.org/CodeSystem/observation-category",
                "code": "laboratory"
              }
            ]
          }
        ],
        "code": {
          "coding": [
            {
              "code": "2160-0",
              "system": "http://loinc.org",
              "display": "Creatinine [Mass/volume] in Serum or Plasma"
            }
          ],
          "text": "Creatinine [Mass/volume] in Serum or Plasma"
        },
        "valueQuantity": {
          "system": "http://unitsofmeasure.org",
          "value": 2,
          "unit": "mg/dL",
          "code": "mg/dL"
        },
        "referenceRange": [
          {
            "low": {
              "value": 0.6,
              "code": "mg/dL",
              "system": "http://unitsofmeasure.org"
            }
          },
          {
            "high": {
              "value": 1.1,
              "code": "mg/dL",
              "system": "http://unitsofmeasure.org"
            }
          }
        ],
        "interpretation": [
          {
            "coding": [
              {
                "code": "H",
                "system": "http://terminology.hl7.org/CodeSystem/v3-ObservationInterpretation",
                "display": "High"
              }
            ]
          }
        ],
        "text": {
          "status": "generated",
          "div": "<div xmlns=\"http://www.w3.org/1999/xhtml\"><table class=\"hl7__eu__lab__report\"><tr><th>Test</th><th>24-Jan-2019</th><th>Reference&#xA0;Range</th><th>Unit</th></tr><tr><td>Creatinine [Mass/volume] in Serum or Plasma</td><td>2.0</td><td>0.6 - 1.1</td><td>H</td><td>mg/dL</td></tr></table></div>"
        },
        "status": "final",
        "subject": {
          "reference": "urn:uuid:321251b2-e848-41e1-8ab6-48c86fbd474b",
          "display": "Molly Jenkins"
        },
        "effectiveDateTime": "2019-01-24T14:42:11Z",
        "specimen": {
          "reference": "urn:uuid:279d22a5-3ff7-44f6-beba-84e90b7e3b09"
        }
      }
    },
    {
      "fullUrl": "urn:uuid:02a03c0a-4553-40b5-a3b2-3ab76cf7146e",
      "resource": {
        "resourceType": "Observation",
        "id": "02a03c0a-4553-40b5-a3b2-3ab76cf7146e",
        "meta": {
          "profile": [
            "http://hl7.eu/fhir/laboratory/StructureDefinition/Observation-resultslab-eu-lab"
          ]
        },
        "performer": [
          {
            "display": "The Central European Lab"
          }
        ],
        "category": [
          {
            "coding": [
              {
                "system": "http://terminology.hl7.org/CodeSystem/observation-category",
                "code": "laboratory"
              }
            ]
          }
        ],
        "code": {
          "coding": [
            {
              "code": "17861-6",
              "system": "http://loinc.org",
              "display": "Calcium [Mass/volume] in Serum or Plasma"
            }
          ],
          "text": "Calcium [Mass/volume] in Serum or Plasma"
        },
        "valueQuantity": {
          "system": "http://unitsofmeasure.org",
          "value": 9.1,
          "unit": "mg/dL",
          "code": "mg/dL"
        },
        "referenceRange": [
          {
            "low": {
              "value": 8.5,
              "code": "mg/dL",
              "system": "http://unitsofmeasure.org"
            }
          },
          {
            "high": {
              "value": 10.4,
              "code": "mg/dL",
              "system": "http://unitsofmeasure.org"
            }
          }
        ],
        "text": {
          "status": "generated",
          "div": "<div xmlns=\"http://www.w3.org/1999/xhtml\"><table class=\"hl7__eu__lab__report\"><tr><th>Test</th><th>24-Jan-2019</th><th>Reference&#xA0;Range</th><th>Unit</th></tr><tr><td>Calcium [Mass/volume] in Serum or Plasma</td><td>9.1</td><td>8.5 - 10.4</td><td></td><td>mg/dL</td></tr></table></div>"
        },
        "status": "final",
        "subject": {
          "reference": "urn:uuid:321251b2-e848-41e1-8ab6-48c86fbd474b",
          "display": "Molly Jenkins"
        },
        "effectiveDateTime": "2019-01-24T14:42:11Z",
        "specimen": {
          "reference": "urn:uuid:279d22a5-3ff7-44f6-beba-84e90b7e3b09"
        }
      }
    },
    {
      "fullUrl": "urn:uuid:5e0f8386-3563-4437-9383-1dbc8ed05c41",
      "resource": {
        "resourceType": "Observation",
        "id": "5e0f8386-3563-4437-9383-1dbc8ed05c41",
        "meta": {
          "profile": [
            "http://hl7.eu/fhir/laboratory/StructureDefinition/Observation-resultslab-eu-lab"
          ]
        },
        "performer": [
          {
            "display": "The Central European Lab"
          }
        ],
        "category": [
          {
            "coding": [
              {
                "system": "http://terminology.hl7.org/CodeSystem/observation-category",
                "code": "laboratory"
              }
            ]
          }
        ],
        "code": {
          "coding": [
            {
              "code": "2951-2",
              "system": "http://loinc.org",
              "display": "Sodium [Moles/volume] in Serum or Plasma"
            }
          ],
          "text": "Sodium [Moles/volume] in Serum or Plasma"
        },
        "valueQuantity": {
          "system": "http://unitsofmeasure.org",
          "value": 143.6,
          "unit": "mmol/L",
          "code": "mmol/L"
        },
        "referenceRange": [
          {
            "low": {
              "value": 135,
              "code": "mmol/L",
              "system": "http://unitsofmeasure.org"
            }
          },
          {
            "high": {
              "value": 145,
              "code": "mmol/L",
              "system": "http://unitsofmeasure.org"
            }
          }
        ],
        "text": {
          "status": "generated",
          "div": "<div xmlns=\"http://www.w3.org/1999/xhtml\"><table class=\"hl7__eu__lab__report\"><tr><th>Test</th><th>24-Jan-2019</th><th>Reference&#xA0;Range</th><th>Unit</th></tr><tr><td>Sodium [Moles/volume] in Serum or Plasma</td><td>143.6</td><td>135 - 145</td><td></td><td>mmol/L</td></tr></table></div>"
        },
        "status": "final",
        "subject": {
          "reference": "urn:uuid:321251b2-e848-41e1-8ab6-48c86fbd474b",
          "display": "Molly Jenkins"
        },
        "effectiveDateTime": "2019-01-24T14:42:11Z",
        "specimen": {
          "reference": "urn:uuid:279d22a5-3ff7-44f6-beba-84e90b7e3b09"
        }
      }
    },
    {
      "fullUrl": "urn:uuid:64b67329-df48-4993-813e-450036c97cab",
      "resource": {
        "resourceType": "Observation",
        "id": "64b67329-df48-4993-813e-450036c97cab",
        "meta": {
          "profile": [
            "http://hl7.eu/fhir/laboratory/StructureDefinition/Observation-resultslab-eu-lab"
          ]
        },
        "performer": [
          {
            "display": "The Central European Lab"
          }
        ],
        "category": [
          {
            "coding": [
              {
                "system": "http://terminology.hl7.org/CodeSystem/observation-category",
                "code": "laboratory"
              }
            ]
          }
        ],
        "code": {
          "coding": [
            {
              "code": "2823-3",
              "system": "http://loinc.org",
              "display": "Potassium [Moles/volume] in Serum or Plasma"
            }
          ],
          "text": "Potassium [Moles/volume] in Serum or Plasma"
        },
        "valueQuantity": {
          "system": "http://unitsofmeasure.org",
          "value": 4.3,
          "unit": "mmol/L",
          "code": "mmol/L"
        },
        "referenceRange": [
          {
            "low": {
              "value": 3.5,
              "code": "mmol/L",
              "system": "http://unitsofmeasure.org"
            }
          },
          {
            "high": {
              "value": 5.1,
              "code": "mmol/L",
              "system": "http://unitsofmeasure.org"
            }
          }
        ],
        "text": {
          "status": "generated",
          "div": "<div xmlns=\"http://www.w3.org/1999/xhtml\"><table class=\"hl7__eu__lab__report\"><tr><th>Test</th><th>24-Jan-2019</th><th>Reference&#xA0;Range</th><th>Unit</th></tr><tr><td>Potassium [Moles/volume] in Serum or Plasma</td><td>4.3</td><td>3.5 - 5.1</td><td></td><td>mmol/L</td></tr></table></div>"
        },
        "status": "final",
        "subject": {
          "reference": "urn:uuid:321251b2-e848-41e1-8ab6-48c86fbd474b",
          "display": "Molly Jenkins"
        },
        "effectiveDateTime": "2019-01-24T14:42:11Z",
        "specimen": {
          "reference": "urn:uuid:279d22a5-3ff7-44f6-beba-84e90b7e3b09"
        }
      }
    },
    {
      "fullUrl": "urn:uuid:59e8ae03-7184-4806-9d7c-cf731b56cf0b",
      "resource": {
        "resourceType": "Observation",
        "id": "59e8ae03-7184-4806-9d7c-cf731b56cf0b",
        "meta": {
          "profile": [
            "http://hl7.eu/fhir/laboratory/StructureDefinition/Observation-resultslab-eu-lab"
          ]
        },
        "performer": [
          {
            "display": "The Central European Lab"
          }
        ],
        "category": [
          {
            "coding": [
              {
                "system": "http://terminology.hl7.org/CodeSystem/observation-category",
                "code": "laboratory"
              }
            ]
          }
        ],
        "code": {
          "coding": [
            {
              "code": "2075-0",
              "system": "http://loinc.org",
              "display": "Chloride [Moles/volume] in Serum or Plasma"
            }
          ],
          "text": "Chloride [Moles/volume] in Serum or Plasma"
        },
        "valueQuantity": {
          "system": "http://unitsofmeasure.org",
          "value": 108.7,
          "unit": "mmol/L",
          "code": "mmol/L"
        },
        "referenceRange": [
          {
            "low": {
              "value": 98,
              "code": "mmol/L",
              "system": "http://unitsofmeasure.org"
            }
          },
          {
            "high": {
              "value": 110,
              "code": "mmol/L",
              "system": "http://unitsofmeasure.org"
            }
          }
        ],
        "text": {
          "status": "generated",
          "div": "<div xmlns=\"http://www.w3.org/1999/xhtml\"><table class=\"hl7__eu__lab__report\"><tr><th>Test</th><th>24-Jan-2019</th><th>Reference&#xA0;Range</th><th>Unit</th></tr><tr><td>Chloride [Moles/volume] in Serum or Plasma</td><td>108.7</td><td>98 - 110</td><td></td><td>mmol/L</td></tr></table></div>"
        },
        "status": "final",
        "subject": {
          "reference": "urn:uuid:321251b2-e848-41e1-8ab6-48c86fbd474b",
          "display": "Molly Jenkins"
        },
        "effectiveDateTime": "2019-01-24T14:42:11Z",
        "specimen": {
          "reference": "urn:uuid:279d22a5-3ff7-44f6-beba-84e90b7e3b09"
        }
      }
    },
    {
      "fullUrl": "urn:uuid:c313e37a-7c47-4e3b-afb2-e6830ff17f39",
      "resource": {
        "resourceType": "Observation",
        "id": "c313e37a-7c47-4e3b-afb2-e6830ff17f39",
        "meta": {
          "profile": [
            "http://hl7.eu/fhir/laboratory/StructureDefinition/Observation-resultslab-eu-lab"
          ]
        },
        "performer": [
          {
            "display": "The Central European Lab"
          }
        ],
        "category": [
          {
            "coding": [
              {
                "system": "http://terminology.hl7.org/CodeSystem/observation-category",
                "code": "laboratory"
              }
            ]
          }
        ],
        "code": {
          "coding": [
            {
              "code": "2028-9",
              "system": "http://loinc.org",
              "display": "Carbon dioxide, total [Moles/volume] in Serum or Plasma"
            }
          ],
          "text": "Carbon dioxide, total [Moles/volume] in Serum or Plasma"
        },
        "valueQuantity": {
          "system": "http://unitsofmeasure.org",
          "value": 28.6,
          "unit": "mmol/L",
          "code": "mmol/L"
        },
        "referenceRange": [
          {
            "low": {
              "value": 22,
              "code": "mmol/L",
              "system": "http://unitsofmeasure.org"
            }
          },
          {
            "high": {
              "value": 32,
              "code": "mmol/L",
              "system": "http://unitsofmeasure.org"
            }
          }
        ],
        "text": {
          "status": "generated",
          "div": "<div xmlns=\"http://www.w3.org/1999/xhtml\"><table class=\"hl7__eu__lab__report\"><tr><th>Test</th><th>24-Jan-2019</th><th>Reference&#xA0;Range</th><th>Unit</th></tr><tr><td>Carbon dioxide, total [Moles/volume] in Serum or Plasma</td><td>28.6</td><td>22 - 32</td><td></td><td>mmol/L</td></tr></table></div>"
        },
        "status": "final",
        "subject": {
          "reference": "urn:uuid:321251b2-e848-41e1-8ab6-48c86fbd474b",
          "display": "Molly Jenkins"
        },
        "effectiveDateTime": "2019-01-24T14:42:11Z",
        "specimen": {
          "reference": "urn:uuid:279d22a5-3ff7-44f6-beba-84e90b7e3b09"
        }
      }
    },
    {
      "fullUrl": "urn:uuid:37de870a-7003-446b-a4b9-77e0a185b26b",
      "resource": {
        "resourceType": "Observation",
        "id": "37de870a-7003-446b-a4b9-77e0a185b26b",
        "meta": {
          "profile": [
            "http://hl7.eu/fhir/laboratory/StructureDefinition/Observation-resultslab-eu-lab"
          ]
        },
        "performer": [
          {
            "display": "The Central European Lab"
          }
        ],
        "category": [
          {
            "coding": [
              {
                "system": "http://terminology.hl7.org/CodeSystem/observation-category",
                "code": "laboratory"
              }
            ]
          }
        ],
        "code": {
          "coding": [
            {
              "code": "5767-9",
              "system": "http://loinc.org",
              "display": "Appearance of Urine"
            }
          ],
          "text": "Appearance of Urine"
        },
        "text": {
          "status": "generated",
          "div": "<div xmlns=\"http://www.w3.org/1999/xhtml\"><table class=\"hl7__eu__lab__report\"><tr><th>Test</th><th>24-Jan-2019</th><th>Reference&#xA0;Range</th><th>Unit</th></tr><tr><td>Appearance of Urine</td></tr></table></div>"
        },
        "status": "final",
        "subject": {
          "reference": "urn:uuid:321251b2-e848-41e1-8ab6-48c86fbd474b",
          "display": "Molly Jenkins"
        },
        "effectiveDateTime": "2019-01-24T14:42:11Z",
        "specimen": {
          "reference": "urn:uuid:e61d38f0-5df4-4a95-9e29-1836a4a356c1"
        }
      }
    },
    {
      "fullUrl": "urn:uuid:754b4963-2c86-49c1-a1a2-e08a489532fb",
      "resource": {
        "resourceType": "Observation",
        "id": "754b4963-2c86-49c1-a1a2-e08a489532fb",
        "meta": {
          "profile": [
            "http://hl7.eu/fhir/laboratory/StructureDefinition/Observation-resultslab-eu-lab"
          ]
        },
        "performer": [
          {
            "display": "The Central European Lab"
          }
        ],
        "category": [
          {
            "coding": [
              {
                "system": "http://terminology.hl7.org/CodeSystem/observation-category",
                "code": "laboratory"
              }
            ]
          }
        ],
        "code": {
          "coding": [
            {
              "code": "34533-0",
              "system": "http://loinc.org",
              "display": "Odor of Urine"
            }
          ],
          "text": "Odor of Urine"
        },
        "text": {
          "status": "generated",
          "div": "<div xmlns=\"http://www.w3.org/1999/xhtml\"><table class=\"hl7__eu__lab__report\"><tr><th>Test</th><th>24-Jan-2019</th><th>Reference&#xA0;Range</th><th>Unit</th></tr><tr><td>Odor of Urine</td></tr></table></div>"
        },
        "status": "final",
        "subject": {
          "reference": "urn:uuid:321251b2-e848-41e1-8ab6-48c86fbd474b",
          "display": "Molly Jenkins"
        },
        "effectiveDateTime": "2019-01-24T14:42:11Z",
        "specimen": {
          "reference": "urn:uuid:e61d38f0-5df4-4a95-9e29-1836a4a356c1"
        }
      }
    },
    {
      "fullUrl": "urn:uuid:fc074173-d24c-4a2d-a208-3da93bc48be5",
      "resource": {
        "resourceType": "Observation",
        "id": "fc074173-d24c-4a2d-a208-3da93bc48be5",
        "meta": {
          "profile": [
            "http://hl7.eu/fhir/laboratory/StructureDefinition/Observation-resultslab-eu-lab"
          ]
        },
        "performer": [
          {
            "display": "The Central European Lab"
          }
        ],
        "category": [
          {
            "coding": [
              {
                "system": "http://terminology.hl7.org/CodeSystem/observation-category",
                "code": "laboratory"
              }
            ]
          }
        ],
        "code": {
          "coding": [
            {
              "code": "32167-9",
              "system": "http://loinc.org",
              "display": "Clarity of Urine"
            }
          ],
          "text": "Clarity of Urine"
        },
        "text": {
          "status": "generated",
          "div": "<div xmlns=\"http://www.w3.org/1999/xhtml\"><table class=\"hl7__eu__lab__report\"><tr><th>Test</th><th>24-Jan-2019</th><th>Reference&#xA0;Range</th><th>Unit</th></tr><tr><td>Clarity of Urine</td></tr></table></div>"
        },
        "status": "final",
        "subject": {
          "reference": "urn:uuid:321251b2-e848-41e1-8ab6-48c86fbd474b",
          "display": "Molly Jenkins"
        },
        "effectiveDateTime": "2019-01-24T14:42:11Z",
        "specimen": {
          "reference": "urn:uuid:e61d38f0-5df4-4a95-9e29-1836a4a356c1"
        }
      }
    },
    {
      "fullUrl": "urn:uuid:e4702292-8e4b-4919-b442-05c0230ebc8e",
      "resource": {
        "resourceType": "Observation",
        "id": "e4702292-8e4b-4919-b442-05c0230ebc8e",
        "meta": {
          "profile": [
            "http://hl7.eu/fhir/laboratory/StructureDefinition/Observation-resultslab-eu-lab"
          ]
        },
        "performer": [
          {
            "display": "The Central European Lab"
          }
        ],
        "category": [
          {
            "coding": [
              {
                "system": "http://terminology.hl7.org/CodeSystem/observation-category",
                "code": "laboratory"
              }
            ]
          }
        ],
        "code": {
          "coding": [
            {
              "code": "5778-6",
              "system": "http://loinc.org",
              "display": "Color of Urine"
            }
          ],
          "text": "Color of Urine"
        },
        "text": {
          "status": "generated",
          "div": "<div xmlns=\"http://www.w3.org/1999/xhtml\"><table class=\"hl7__eu__lab__report\"><tr><th>Test</th><th>24-Jan-2019</th><th>Reference&#xA0;Range</th><th>Unit</th></tr><tr><td>Color of Urine</td></tr></table></div>"
        },
        "status": "final",
        "subject": {
          "reference": "urn:uuid:321251b2-e848-41e1-8ab6-48c86fbd474b",
          "display": "Molly Jenkins"
        },
        "effectiveDateTime": "2019-01-24T14:42:11Z",
        "specimen": {
          "reference": "urn:uuid:e61d38f0-5df4-4a95-9e29-1836a4a356c1"
        }
      }
    },
    {
      "fullUrl": "urn:uuid:52776d59-3c7e-4d7b-82e5-8250da3bf2de",
      "resource": {
        "resourceType": "Observation",
        "id": "52776d59-3c7e-4d7b-82e5-8250da3bf2de",
        "meta": {
          "profile": [
            "http://hl7.eu/fhir/laboratory/StructureDefinition/Observation-resultslab-eu-lab"
          ]
        },
        "performer": [
          {
            "display": "The Central European Lab"
          }
        ],
        "category": [
          {
            "coding": [
              {
                "system": "http://terminology.hl7.org/CodeSystem/observation-category",
                "code": "laboratory"
              }
            ]
          }
        ],
        "code": {
          "coding": [
            {
              "code": "5792-7",
              "system": "http://loinc.org",
              "display": "Glucose [Mass/volume] in Urine by Test strip"
            }
          ],
          "text": "Glucose [Mass/volume] in Urine by Test strip"
        },
        "valueQuantity": {
          "system": "http://unitsofmeasure.org",
          "value": 1,
          "unit": "mg/dL",
          "code": "mg/dL"
        },
        "referenceRange": [
          {
            "low": {
              "value": 0,
              "code": "mg/dL",
              "system": "http://unitsofmeasure.org"
            }
          },
          {
            "high": {
              "value": 0,
              "code": "mg/dL",
              "system": "http://unitsofmeasure.org"
            }
          }
        ],
        "interpretation": [
          {
            "coding": [
              {
                "code": "H",
                "system": "http://terminology.hl7.org/CodeSystem/v3-ObservationInterpretation",
                "display": "High"
              }
            ]
          }
        ],
        "text": {
          "status": "generated",
          "div": "<div xmlns=\"http://www.w3.org/1999/xhtml\"><table class=\"hl7__eu__lab__report\"><tr><th>Test</th><th>24-Jan-2019</th><th>Reference&#xA0;Range</th><th>Unit</th></tr><tr><td>Glucose [Mass/volume] in Urine by Test strip</td><td>1.0</td><td>0 - 0</td><td>H</td><td>mg/dL</td></tr></table></div>"
        },
        "status": "final",
        "subject": {
          "reference": "urn:uuid:321251b2-e848-41e1-8ab6-48c86fbd474b",
          "display": "Molly Jenkins"
        },
        "effectiveDateTime": "2019-01-24T14:42:11Z",
        "specimen": {
          "reference": "urn:uuid:e61d38f0-5df4-4a95-9e29-1836a4a356c1"
        }
      }
    },
    {
      "fullUrl": "urn:uuid:2af37e2d-5923-48c7-9a4d-f73d13536d2b",
      "resource": {
        "resourceType": "Observation",
        "id": "2af37e2d-5923-48c7-9a4d-f73d13536d2b",
        "meta": {
          "profile": [
            "http://hl7.eu/fhir/laboratory/StructureDefinition/Observation-resultslab-eu-lab"
          ]
        },
        "performer": [
          {
            "display": "The Central European Lab"
          }
        ],
        "category": [
          {
            "coding": [
              {
                "system": "http://terminology.hl7.org/CodeSystem/observation-category",
                "code": "laboratory"
              }
            ]
          }
        ],
        "code": {
          "coding": [
            {
              "code": "25428-4",
              "system": "http://loinc.org",
              "display": "Glucose [Presence] in Urine by Test strip"
            }
          ],
          "text": "Glucose [Presence] in Urine by Test strip"
        },
        "text": {
          "status": "generated",
          "div": "<div xmlns=\"http://www.w3.org/1999/xhtml\"><table class=\"hl7__eu__lab__report\"><tr><th>Test</th><th>24-Jan-2019</th><th>Reference&#xA0;Range</th><th>Unit</th></tr><tr><td>Glucose [Presence] in Urine by Test strip</td></tr></table></div>"
        },
        "status": "final",
        "subject": {
          "reference": "urn:uuid:321251b2-e848-41e1-8ab6-48c86fbd474b",
          "display": "Molly Jenkins"
        },
        "effectiveDateTime": "2019-01-24T14:42:11Z",
        "specimen": {
          "reference": "urn:uuid:e61d38f0-5df4-4a95-9e29-1836a4a356c1"
        }
      }
    },
    {
      "fullUrl": "urn:uuid:9ce1f260-77fc-4356-94ec-835f3b3e0b69",
      "resource": {
        "resourceType": "Observation",
        "id": "9ce1f260-77fc-4356-94ec-835f3b3e0b69",
        "meta": {
          "profile": [
            "http://hl7.eu/fhir/laboratory/StructureDefinition/Observation-resultslab-eu-lab"
          ]
        },
        "performer": [
          {
            "display": "The Central European Lab"
          }
        ],
        "category": [
          {
            "coding": [
              {
                "system": "http://terminology.hl7.org/CodeSystem/observation-category",
                "code": "laboratory"
              }
            ]
          }
        ],
        "code": {
          "coding": [
            {
              "code": "20505-4",
              "system": "http://loinc.org",
              "display": "Bilirubin.total [Mass/volume] in Urine by Test strip"
            }
          ],
          "text": "Bilirubin.total [Mass/volume] in Urine by Test strip"
        },
        "valueQuantity": {
          "system": "http://unitsofmeasure.org",
          "value": 1.5,
          "unit": "mg/dL",
          "code": "mg/dL"
        },
        "referenceRange": [
          {
            "low": {
              "value": 0,
              "code": "mg/dL",
              "system": "http://unitsofmeasure.org"
            }
          },
          {
            "high": {
              "value": 1.6,
              "code": "mg/dL",
              "system": "http://unitsofmeasure.org"
            }
          }
        ],
        "text": {
          "status": "generated",
          "div": "<div xmlns=\"http://www.w3.org/1999/xhtml\"><table class=\"hl7__eu__lab__report\"><tr><th>Test</th><th>24-Jan-2019</th><th>Reference&#xA0;Range</th><th>Unit</th></tr><tr><td>Bilirubin.total [Mass/volume] in Urine by Test strip</td><td>1.5</td><td>0 - 1.6</td><td></td><td>mg/dL</td></tr></table></div>"
        },
        "status": "final",
        "subject": {
          "reference": "urn:uuid:321251b2-e848-41e1-8ab6-48c86fbd474b",
          "display": "Molly Jenkins"
        },
        "effectiveDateTime": "2019-01-24T14:42:11Z",
        "specimen": {
          "reference": "urn:uuid:e61d38f0-5df4-4a95-9e29-1836a4a356c1"
        }
      }
    },
    {
      "fullUrl": "urn:uuid:50be2497-4407-4f75-81d9-90d1c5045eac",
      "resource": {
        "resourceType": "Observation",
        "id": "50be2497-4407-4f75-81d9-90d1c5045eac",
        "meta": {
          "profile": [
            "http://hl7.eu/fhir/laboratory/StructureDefinition/Observation-resultslab-eu-lab"
          ]
        },
        "performer": [
          {
            "display": "The Central European Lab"
          }
        ],
        "category": [
          {
            "coding": [
              {
                "system": "http://terminology.hl7.org/CodeSystem/observation-category",
                "code": "laboratory"
              }
            ]
          }
        ],
        "code": {
          "coding": [
            {
              "code": "5770-3",
              "system": "http://loinc.org",
              "display": "Bilirubin.total [Presence] in Urine by Test strip"
            }
          ],
          "text": "Bilirubin.total [Presence] in Urine by Test strip"
        },
        "text": {
          "status": "generated",
          "div": "<div xmlns=\"http://www.w3.org/1999/xhtml\"><table class=\"hl7__eu__lab__report\"><tr><th>Test</th><th>24-Jan-2019</th><th>Reference&#xA0;Range</th><th>Unit</th></tr><tr><td>Bilirubin.total [Presence] in Urine by Test strip</td></tr></table></div>"
        },
        "status": "final",
        "subject": {
          "reference": "urn:uuid:321251b2-e848-41e1-8ab6-48c86fbd474b",
          "display": "Molly Jenkins"
        },
        "effectiveDateTime": "2019-01-24T14:42:11Z",
        "specimen": {
          "reference": "urn:uuid:e61d38f0-5df4-4a95-9e29-1836a4a356c1"
        }
      }
    },
    {
      "fullUrl": "urn:uuid:2db7a86a-78fe-475c-85a6-3fb3fd78930f",
      "resource": {
        "resourceType": "Observation",
        "id": "2db7a86a-78fe-475c-85a6-3fb3fd78930f",
        "meta": {
          "profile": [
            "http://hl7.eu/fhir/laboratory/StructureDefinition/Observation-resultslab-eu-lab"
          ]
        },
        "performer": [
          {
            "display": "The Central European Lab"
          }
        ],
        "category": [
          {
            "coding": [
              {
                "system": "http://terminology.hl7.org/CodeSystem/observation-category",
                "code": "laboratory"
              }
            ]
          }
        ],
        "code": {
          "coding": [
            {
              "code": "5797-6",
              "system": "http://loinc.org",
              "display": "Ketones [Mass/volume] in Urine by Test strip"
            }
          ],
          "text": "Ketones [Mass/volume] in Urine by Test strip"
        },
        "valueQuantity": {
          "system": "http://unitsofmeasure.org",
          "value": 11.7,
          "unit": "mg/dL",
          "code": "mg/dL"
        },
        "referenceRange": [
          {
            "low": {
              "value": 0,
              "code": "mg/dL",
              "system": "http://unitsofmeasure.org"
            }
          },
          {
            "high": {
              "value": 0.5,
              "code": "mg/dL",
              "system": "http://unitsofmeasure.org"
            }
          }
        ],
        "interpretation": [
          {
            "coding": [
              {
                "code": "H",
                "system": "http://terminology.hl7.org/CodeSystem/v3-ObservationInterpretation",
                "display": "High"
              }
            ]
          }
        ],
        "text": {
          "status": "generated",
          "div": "<div xmlns=\"http://www.w3.org/1999/xhtml\"><table class=\"hl7__eu__lab__report\"><tr><th>Test</th><th>24-Jan-2019</th><th>Reference&#xA0;Range</th><th>Unit</th></tr><tr><td>Ketones [Mass/volume] in Urine by Test strip</td><td>11.7</td><td>0 - 0.5</td><td>H</td><td>mg/dL</td></tr></table></div>"
        },
        "status": "final",
        "subject": {
          "reference": "urn:uuid:321251b2-e848-41e1-8ab6-48c86fbd474b",
          "display": "Molly Jenkins"
        },
        "effectiveDateTime": "2019-01-24T14:42:11Z",
        "specimen": {
          "reference": "urn:uuid:e61d38f0-5df4-4a95-9e29-1836a4a356c1"
        }
      }
    },
    {
      "fullUrl": "urn:uuid:9677fc3d-f8d1-4668-a0cb-3fb1abbcc49d",
      "resource": {
        "resourceType": "Observation",
        "id": "9677fc3d-f8d1-4668-a0cb-3fb1abbcc49d",
        "meta": {
          "profile": [
            "http://hl7.eu/fhir/laboratory/StructureDefinition/Observation-resultslab-eu-lab"
          ]
        },
        "performer": [
          {
            "display": "The Central European Lab"
          }
        ],
        "category": [
          {
            "coding": [
              {
                "system": "http://terminology.hl7.org/CodeSystem/observation-category",
                "code": "laboratory"
              }
            ]
          }
        ],
        "code": {
          "coding": [
            {
              "code": "2514-8",
              "system": "http://loinc.org",
              "display": "Ketones [Presence] in Urine by Test strip"
            }
          ],
          "text": "Ketones [Presence] in Urine by Test strip"
        },
        "text": {
          "status": "generated",
          "div": "<div xmlns=\"http://www.w3.org/1999/xhtml\"><table class=\"hl7__eu__lab__report\"><tr><th>Test</th><th>24-Jan-2019</th><th>Reference&#xA0;Range</th><th>Unit</th></tr><tr><td>Ketones [Presence] in Urine by Test strip</td></tr></table></div>"
        },
        "status": "final",
        "subject": {
          "reference": "urn:uuid:321251b2-e848-41e1-8ab6-48c86fbd474b",
          "display": "Molly Jenkins"
        },
        "effectiveDateTime": "2019-01-24T14:42:11Z",
        "specimen": {
          "reference": "urn:uuid:e61d38f0-5df4-4a95-9e29-1836a4a356c1"
        }
      }
    },
    {
      "fullUrl": "urn:uuid:5ccb1556-d640-4157-b9fb-5de0e395a3c9",
      "resource": {
        "resourceType": "Observation",
        "id": "5ccb1556-d640-4157-b9fb-5de0e395a3c9",
        "meta": {
          "profile": [
            "http://hl7.eu/fhir/laboratory/StructureDefinition/Observation-resultslab-eu-lab"
          ]
        },
        "performer": [
          {
            "display": "The Central European Lab"
          }
        ],
        "category": [
          {
            "coding": [
              {
                "system": "http://terminology.hl7.org/CodeSystem/observation-category",
                "code": "laboratory"
              }
            ]
          }
        ],
        "code": {
          "coding": [
            {
              "code": "5811-5",
              "system": "http://loinc.org",
              "display": "Specific gravity of Urine by Test strip"
            }
          ],
          "text": "Specific gravity of Urine by Test strip"
        },
        "valueQuantity": {
          "system": "http://unitsofmeasure.org",
          "value": 1,
          "unit": "{nominal}",
          "code": "{nominal}"
        },
        "referenceRange": [
          {
            "low": {
              "value": 1.005,
              "code": "g/mL",
              "system": "http://unitsofmeasure.org"
            }
          },
          {
            "high": {
              "value": 1.03,
              "code": "g/mL",
              "system": "http://unitsofmeasure.org"
            }
          }
        ],
        "interpretation": [
          {
            "coding": [
              {
                "code": "L",
                "system": "http://terminology.hl7.org/CodeSystem/v3-ObservationInterpretation",
                "display": "Low"
              }
            ]
          }
        ],
        "text": {
          "status": "generated",
          "div": "<div xmlns=\"http://www.w3.org/1999/xhtml\"><table class=\"hl7__eu__lab__report\"><tr><th>Test</th><th>24-Jan-2019</th><th>Reference&#xA0;Range</th><th>Unit</th></tr><tr><td>Specific gravity of Urine by Test strip</td><td>1.0</td><td>1.005 - 1.03</td><td>L</td><td>{nominal}</td></tr></table></div>"
        },
        "status": "final",
        "subject": {
          "reference": "urn:uuid:321251b2-e848-41e1-8ab6-48c86fbd474b",
          "display": "Molly Jenkins"
        },
        "effectiveDateTime": "2019-01-24T14:42:11Z",
        "specimen": {
          "reference": "urn:uuid:e61d38f0-5df4-4a95-9e29-1836a4a356c1"
        }
      }
    },
    {
      "fullUrl": "urn:uuid:aec2c194-222f-4aff-b76d-1bc43661d063",
      "resource": {
        "resourceType": "Observation",
        "id": "aec2c194-222f-4aff-b76d-1bc43661d063",
        "meta": {
          "profile": [
            "http://hl7.eu/fhir/laboratory/StructureDefinition/Observation-resultslab-eu-lab"
          ]
        },
        "performer": [
          {
            "display": "The Central European Lab"
          }
        ],
        "category": [
          {
            "coding": [
              {
                "system": "http://terminology.hl7.org/CodeSystem/observation-category",
                "code": "laboratory"
              }
            ]
          }
        ],
        "code": {
          "coding": [
            {
              "code": "5803-2",
              "system": "http://loinc.org",
              "display": "pH of Urine by Test strip"
            }
          ],
          "text": "pH of Urine by Test strip"
        },
        "valueQuantity": {
          "system": "http://unitsofmeasure.org",
          "value": 6.6,
          "unit": "pH",
          "code": "pH"
        },
        "referenceRange": [
          {
            "low": {
              "value": 4.5,
              "code": "pH",
              "system": "http://unitsofmeasure.org"
            }
          },
          {
            "high": {
              "value": 7.5,
              "code": "pH",
              "system": "http://unitsofmeasure.org"
            }
          }
        ],
        "text": {
          "status": "generated",
          "div": "<div xmlns=\"http://www.w3.org/1999/xhtml\"><table class=\"hl7__eu__lab__report\"><tr><th>Test</th><th>24-Jan-2019</th><th>Reference&#xA0;Range</th><th>Unit</th></tr><tr><td>pH of Urine by Test strip</td><td>6.6</td><td>4.5 - 7.5</td><td></td><td>pH</td></tr></table></div>"
        },
        "status": "final",
        "subject": {
          "reference": "urn:uuid:321251b2-e848-41e1-8ab6-48c86fbd474b",
          "display": "Molly Jenkins"
        },
        "effectiveDateTime": "2019-01-24T14:42:11Z",
        "specimen": {
          "reference": "urn:uuid:e61d38f0-5df4-4a95-9e29-1836a4a356c1"
        }
      }
    },
    {
      "fullUrl": "urn:uuid:a73a8241-6585-4957-95a3-e19b5c4569ab",
      "resource": {
        "resourceType": "Observation",
        "id": "a73a8241-6585-4957-95a3-e19b5c4569ab",
        "meta": {
          "profile": [
            "http://hl7.eu/fhir/laboratory/StructureDefinition/Observation-resultslab-eu-lab"
          ]
        },
        "performer": [
          {
            "display": "The Central European Lab"
          }
        ],
        "category": [
          {
            "coding": [
              {
                "system": "http://terminology.hl7.org/CodeSystem/observation-category",
                "code": "laboratory"
              }
            ]
          }
        ],
        "code": {
          "coding": [
            {
              "code": "5804-0",
              "system": "http://loinc.org",
              "display": "Protein [Mass/volume] in Urine by Test strip"
            }
          ],
          "text": "Protein [Mass/volume] in Urine by Test strip"
        },
        "valueQuantity": {
          "system": "http://unitsofmeasure.org",
          "value": 295.3,
          "unit": "mg/dL",
          "code": "mg/dL"
        },
        "referenceRange": [
          {
            "low": {
              "value": 0,
              "code": "mg/dL",
              "system": "http://unitsofmeasure.org"
            }
          },
          {
            "high": {
              "value": 15,
              "code": "mg/dL",
              "system": "http://unitsofmeasure.org"
            }
          }
        ],
        "interpretation": [
          {
            "coding": [
              {
                "code": "H",
                "system": "http://terminology.hl7.org/CodeSystem/v3-ObservationInterpretation",
                "display": "High"
              }
            ]
          }
        ],
        "text": {
          "status": "generated",
          "div": "<div xmlns=\"http://www.w3.org/1999/xhtml\"><table class=\"hl7__eu__lab__report\"><tr><th>Test</th><th>24-Jan-2019</th><th>Reference&#xA0;Range</th><th>Unit</th></tr><tr><td>Protein [Mass/volume] in Urine by Test strip</td><td>295.3</td><td>0 - 15</td><td>H</td><td>mg/dL</td></tr></table></div>"
        },
        "status": "final",
        "subject": {
          "reference": "urn:uuid:321251b2-e848-41e1-8ab6-48c86fbd474b",
          "display": "Molly Jenkins"
        },
        "effectiveDateTime": "2019-01-24T14:42:11Z",
        "specimen": {
          "reference": "urn:uuid:e61d38f0-5df4-4a95-9e29-1836a4a356c1"
        }
      }
    },
    {
      "fullUrl": "urn:uuid:ce36dc0d-2e26-42d6-b98d-e5091b8b7bf0",
      "resource": {
        "resourceType": "Observation",
        "id": "ce36dc0d-2e26-42d6-b98d-e5091b8b7bf0",
        "meta": {
          "profile": [
            "http://hl7.eu/fhir/laboratory/StructureDefinition/Observation-resultslab-eu-lab"
          ]
        },
        "performer": [
          {
            "display": "The Central European Lab"
          }
        ],
        "category": [
          {
            "coding": [
              {
                "system": "http://terminology.hl7.org/CodeSystem/observation-category",
                "code": "laboratory"
              }
            ]
          }
        ],
        "code": {
          "coding": [
            {
              "code": "20454-5",
              "system": "http://loinc.org",
              "display": "Protein [Presence] in Urine by Test strip"
            }
          ],
          "text": "Protein [Presence] in Urine by Test strip"
        },
        "text": {
          "status": "generated",
          "div": "<div xmlns=\"http://www.w3.org/1999/xhtml\"><table class=\"hl7__eu__lab__report\"><tr><th>Test</th><th>24-Jan-2019</th><th>Reference&#xA0;Range</th><th>Unit</th></tr><tr><td>Protein [Presence] in Urine by Test strip</td></tr></table></div>"
        },
        "status": "final",
        "subject": {
          "reference": "urn:uuid:321251b2-e848-41e1-8ab6-48c86fbd474b",
          "display": "Molly Jenkins"
        },
        "effectiveDateTime": "2019-01-24T14:42:11Z",
        "specimen": {
          "reference": "urn:uuid:e61d38f0-5df4-4a95-9e29-1836a4a356c1"
        }
      }
    },
    {
      "fullUrl": "urn:uuid:33977de5-172a-433e-ba2b-d14f638648c9",
      "resource": {
        "resourceType": "Observation",
        "id": "33977de5-172a-433e-ba2b-d14f638648c9",
        "meta": {
          "profile": [
            "http://hl7.eu/fhir/laboratory/StructureDefinition/Observation-resultslab-eu-lab"
          ]
        },
        "performer": [
          {
            "display": "The Central European Lab"
          }
        ],
        "category": [
          {
            "coding": [
              {
                "system": "http://terminology.hl7.org/CodeSystem/observation-category",
                "code": "laboratory"
              }
            ]
          }
        ],
        "code": {
          "coding": [
            {
              "code": "5802-4",
              "system": "http://loinc.org",
              "display": "Nitrite [Presence] in Urine by Test strip"
            }
          ],
          "text": "Nitrite [Presence] in Urine by Test strip"
        },
        "text": {
          "status": "generated",
          "div": "<div xmlns=\"http://www.w3.org/1999/xhtml\"><table class=\"hl7__eu__lab__report\"><tr><th>Test</th><th>24-Jan-2019</th><th>Reference&#xA0;Range</th><th>Unit</th></tr><tr><td>Nitrite [Presence] in Urine by Test strip</td></tr></table></div>"
        },
        "status": "final",
        "subject": {
          "reference": "urn:uuid:321251b2-e848-41e1-8ab6-48c86fbd474b",
          "display": "Molly Jenkins"
        },
        "effectiveDateTime": "2019-01-24T14:42:11Z",
        "specimen": {
          "reference": "urn:uuid:e61d38f0-5df4-4a95-9e29-1836a4a356c1"
        }
      }
    },
    {
      "fullUrl": "urn:uuid:097adbed-0695-4bb8-bb9e-b564cef2a147",
      "resource": {
        "resourceType": "Observation",
        "id": "097adbed-0695-4bb8-bb9e-b564cef2a147",
        "meta": {
          "profile": [
            "http://hl7.eu/fhir/laboratory/StructureDefinition/Observation-resultslab-eu-lab"
          ]
        },
        "performer": [
          {
            "display": "The Central European Lab"
          }
        ],
        "category": [
          {
            "coding": [
              {
                "system": "http://terminology.hl7.org/CodeSystem/observation-category",
                "code": "laboratory"
              }
            ]
          }
        ],
        "code": {
          "coding": [
            {
              "code": "5794-3",
              "system": "http://loinc.org",
              "display": "Hemoglobin [Presence] in Urine by Test strip"
            }
          ],
          "text": "Hemoglobin [Presence] in Urine by Test strip"
        },
        "text": {
          "status": "generated",
          "div": "<div xmlns=\"http://www.w3.org/1999/xhtml\"><table class=\"hl7__eu__lab__report\"><tr><th>Test</th><th>24-Jan-2019</th><th>Reference&#xA0;Range</th><th>Unit</th></tr><tr><td>Hemoglobin [Presence] in Urine by Test strip</td></tr></table></div>"
        },
        "status": "final",
        "subject": {
          "reference": "urn:uuid:321251b2-e848-41e1-8ab6-48c86fbd474b",
          "display": "Molly Jenkins"
        },
        "effectiveDateTime": "2019-01-24T14:42:11Z",
        "specimen": {
          "reference": "urn:uuid:e61d38f0-5df4-4a95-9e29-1836a4a356c1"
        }
      }
    },
    {
      "fullUrl": "urn:uuid:dfa88a8a-ee9b-4eb4-ac34-8c244d4d3515",
      "resource": {
        "resourceType": "Observation",
        "id": "dfa88a8a-ee9b-4eb4-ac34-8c244d4d3515",
        "meta": {
          "profile": [
            "http://hl7.eu/fhir/laboratory/StructureDefinition/Observation-resultslab-eu-lab"
          ]
        },
        "performer": [
          {
            "display": "The Central European Lab"
          }
        ],
        "category": [
          {
            "coding": [
              {
                "system": "http://terminology.hl7.org/CodeSystem/observation-category",
                "code": "laboratory"
              }
            ]
          }
        ],
        "code": {
          "coding": [
            {
              "code": "5799-2",
              "system": "http://loinc.org",
              "display": "Leukocyte esterase [Presence] in Urine by Test strip"
            }
          ],
          "text": "Leukocyte esterase [Presence] in Urine by Test strip"
        },
        "text": {
          "status": "generated",
          "div": "<div xmlns=\"http://www.w3.org/1999/xhtml\"><table class=\"hl7__eu__lab__report\"><tr><th>Test</th><th>24-Jan-2019</th><th>Reference&#xA0;Range</th><th>Unit</th></tr><tr><td>Leukocyte esterase [Presence] in Urine by Test strip</td></tr></table></div>"
        },
        "status": "final",
        "subject": {
          "reference": "urn:uuid:321251b2-e848-41e1-8ab6-48c86fbd474b",
          "display": "Molly Jenkins"
        },
        "effectiveDateTime": "2019-01-24T14:42:11Z",
        "specimen": {
          "reference": "urn:uuid:e61d38f0-5df4-4a95-9e29-1836a4a356c1"
        }
      }
    },
    {
      "fullUrl": "urn:uuid:90904a38-f73f-4047-8a9c-85bb79ccecf7",
      "resource": {
        "resourceType": "Observation",
        "id": "90904a38-f73f-4047-8a9c-85bb79ccecf7",
        "meta": {
          "profile": [
            "http://hl7.eu/fhir/laboratory/StructureDefinition/Observation-resultslab-eu-lab"
          ]
        },
        "performer": [
          {
            "display": "The Central European Lab"
          }
        ],
        "category": [
          {
            "coding": [
              {
                "system": "http://terminology.hl7.org/CodeSystem/observation-category",
                "code": "laboratory"
              }
            ]
          }
        ],
        "code": {
          "coding": [
            {
              "code": "4548-4",
              "system": "http://loinc.org",
              "display": "Hemoglobin A1c/Hemoglobin.total in Blood"
            }
          ],
          "text": "Hemoglobin A1c/Hemoglobin.total in Blood"
        },
        "valueQuantity": {
          "system": "http://unitsofmeasure.org",
          "value": 2.9,
          "unit": "%",
          "code": "%"
        },
        "referenceRange": [
          {
            "low": {
              "value": 4,
              "code": "%",
              "system": "http://unitsofmeasure.org"
            }
          },
          {
            "high": {
              "value": 6,
              "code": "%",
              "system": "http://unitsofmeasure.org"
            }
          }
        ],
        "interpretation": [
          {
            "coding": [
              {
                "code": "L",
                "system": "http://terminology.hl7.org/CodeSystem/v3-ObservationInterpretation",
                "display": "Low"
              }
            ]
          }
        ],
        "text": {
          "status": "generated",
          "div": "<div xmlns=\"http://www.w3.org/1999/xhtml\"><table class=\"hl7__eu__lab__report\"><tr><th>Test</th><th>24-Jan-2019</th><th>Reference&#xA0;Range</th><th>Unit</th></tr><tr><td>Hemoglobin A1c/Hemoglobin.total in Blood</td><td>2.9</td><td>4 - 6</td><td>L</td><td>%</td></tr></table></div>"
        },
        "status": "final",
        "subject": {
          "reference": "urn:uuid:321251b2-e848-41e1-8ab6-48c86fbd474b",
          "display": "Molly Jenkins"
        },
        "effectiveDateTime": "2019-01-24T14:42:11Z",
        "specimen": {
          "reference": "urn:uuid:304b45b3-083e-47e5-96a0-c60ad317b7a7"
        }
      }
    },
    {
      "fullUrl": "urn:uuid:f1be4665-2e44-4a94-984e-21e1c21a6062",
      "resource": {
        "resourceType": "Observation",
        "id": "f1be4665-2e44-4a94-984e-21e1c21a6062",
        "meta": {
          "profile": [
            "http://hl7.eu/fhir/laboratory/StructureDefinition/Observation-resultslab-eu-lab"
          ]
        },
        "performer": [
          {
            "display": "The Central European Lab"
          }
        ],
        "category": [
          {
            "coding": [
              {
                "system": "http://terminology.hl7.org/CodeSystem/observation-category",
                "code": "laboratory"
              }
            ]
          }
        ],
        "code": {
          "coding": [
            {
              "code": "2339-0",
              "system": "http://loinc.org",
              "display": "Glucose [Mass/volume] in Blood"
            }
          ],
          "text": "Glucose [Mass/volume] in Blood"
        },
        "valueQuantity": {
          "system": "http://unitsofmeasure.org",
          "value": 99.2,
          "unit": "mg/dL",
          "code": "mg/dL"
        },
        "referenceRange": [
          {
            "low": {
              "value": 70,
              "code": "mg/dL",
              "system": "http://unitsofmeasure.org"
            }
          },
          {
            "high": {
              "value": 100,
              "code": "mg/dL",
              "system": "http://unitsofmeasure.org"
            }
          }
        ],
        "text": {
          "status": "generated",
          "div": "<div xmlns=\"http://www.w3.org/1999/xhtml\"><table class=\"hl7__eu__lab__report\"><tr><th>Test</th><th>24-Jan-2019</th><th>Reference&#xA0;Range</th><th>Unit</th></tr><tr><td>Glucose [Mass/volume] in Blood</td><td>99.2</td><td>70 - 100</td><td></td><td>mg/dL</td></tr></table></div>"
        },
        "status": "final",
        "subject": {
          "reference": "urn:uuid:321251b2-e848-41e1-8ab6-48c86fbd474b",
          "display": "Molly Jenkins"
        },
        "effectiveDateTime": "2019-01-24T14:42:11Z",
        "specimen": {
          "reference": "urn:uuid:304b45b3-083e-47e5-96a0-c60ad317b7a7"
        }
      }
    },
    {
      "fullUrl": "urn:uuid:f8e9b552-3341-41e2-86eb-1493814f0142",
      "resource": {
        "resourceType": "Observation",
        "id": "f8e9b552-3341-41e2-86eb-1493814f0142",
        "meta": {
          "profile": [
            "http://hl7.eu/fhir/laboratory/StructureDefinition/Observation-resultslab-eu-lab"
          ]
        },
        "performer": [
          {
            "display": "The Central European Lab"
          }
        ],
        "category": [
          {
            "coding": [
              {
                "system": "http://terminology.hl7.org/CodeSystem/observation-category",
                "code": "laboratory"
              }
            ]
          }
        ],
        "code": {
          "coding": [
            {
              "code": "6299-2",
              "system": "http://loinc.org",
              "display": "Urea nitrogen [Mass/volume] in Blood"
            }
          ],
          "text": "Urea nitrogen [Mass/volume] in Blood"
        },
        "valueQuantity": {
          "system": "http://unitsofmeasure.org",
          "value": 10.7,
          "unit": "mg/dL",
          "code": "mg/dL"
        },
        "referenceRange": [
          {
            "low": {
              "value": 7,
              "code": "mg/dL",
              "system": "http://unitsofmeasure.org"
            }
          },
          {
            "high": {
              "value": 20,
              "code": "mg/dL",
              "system": "http://unitsofmeasure.org"
            }
          }
        ],
        "text": {
          "status": "generated",
          "div": "<div xmlns=\"http://www.w3.org/1999/xhtml\"><table class=\"hl7__eu__lab__report\"><tr><th>Test</th><th>24-Jan-2019</th><th>Reference&#xA0;Range</th><th>Unit</th></tr><tr><td>Urea nitrogen [Mass/volume] in Blood</td><td>10.7</td><td>7 - 20</td><td></td><td>mg/dL</td></tr></table></div>"
        },
        "status": "final",
        "subject": {
          "reference": "urn:uuid:321251b2-e848-41e1-8ab6-48c86fbd474b",
          "display": "Molly Jenkins"
        },
        "effectiveDateTime": "2019-01-24T14:42:11Z",
        "specimen": {
          "reference": "urn:uuid:304b45b3-083e-47e5-96a0-c60ad317b7a7"
        }
      }
    },
    {
      "fullUrl": "urn:uuid:c4198e24-88a6-413a-a605-870456f6d15f",
      "resource": {
        "resourceType": "Observation",
        "id": "c4198e24-88a6-413a-a605-870456f6d15f",
        "meta": {
          "profile": [
            "http://hl7.eu/fhir/laboratory/StructureDefinition/Observation-resultslab-eu-lab"
          ]
        },
        "performer": [
          {
            "display": "The Central European Lab"
          }
        ],
        "category": [
          {
            "coding": [
              {
                "system": "http://terminology.hl7.org/CodeSystem/observation-category",
                "code": "laboratory"
              }
            ]
          }
        ],
        "code": {
          "coding": [
            {
              "code": "38483-4",
              "system": "http://loinc.org",
              "display": "Creatinine [Mass/volume] in Blood"
            }
          ],
          "text": "Creatinine [Mass/volume] in Blood"
        },
        "valueQuantity": {
          "system": "http://unitsofmeasure.org",
          "value": 1.4,
          "unit": "mg/dL",
          "code": "mg/dL"
        },
        "referenceRange": [
          {
            "low": {
              "value": 0.6,
              "code": "mg/dL",
              "system": "http://unitsofmeasure.org"
            }
          },
          {
            "high": {
              "value": 1.3,
              "code": "mg/dL",
              "system": "http://unitsofmeasure.org"
            }
          }
        ],
        "interpretation": [
          {
            "coding": [
              {
                "code": "H",
                "system": "http://terminology.hl7.org/CodeSystem/v3-ObservationInterpretation",
                "display": "High"
              }
            ]
          }
        ],
        "text": {
          "status": "generated",
          "div": "<div xmlns=\"http://www.w3.org/1999/xhtml\"><table class=\"hl7__eu__lab__report\"><tr><th>Test</th><th>24-Jan-2019</th><th>Reference&#xA0;Range</th><th>Unit</th></tr><tr><td>Creatinine [Mass/volume] in Blood</td><td>1.4</td><td>0.6 - 1.3</td><td>H</td><td>mg/dL</td></tr></table></div>"
        },
        "status": "final",
        "subject": {
          "reference": "urn:uuid:321251b2-e848-41e1-8ab6-48c86fbd474b",
          "display": "Molly Jenkins"
        },
        "effectiveDateTime": "2019-01-24T14:42:11Z",
        "specimen": {
          "reference": "urn:uuid:304b45b3-083e-47e5-96a0-c60ad317b7a7"
        }
      }
    },
    {
      "fullUrl": "urn:uuid:611bd214-f43c-422b-8ec7-9ae9eb5648b8",
      "resource": {
        "resourceType": "Observation",
        "id": "611bd214-f43c-422b-8ec7-9ae9eb5648b8",
        "meta": {
          "profile": [
            "http://hl7.eu/fhir/laboratory/StructureDefinition/Observation-resultslab-eu-lab"
          ]
        },
        "performer": [
          {
            "display": "The Central European Lab"
          }
        ],
        "category": [
          {
            "coding": [
              {
                "system": "http://terminology.hl7.org/CodeSystem/observation-category",
                "code": "laboratory"
              }
            ]
          }
        ],
        "code": {
          "coding": [
            {
              "code": "49765-1",
              "system": "http://loinc.org",
              "display": "Calcium [Mass/volume] in Blood"
            }
          ],
          "text": "Calcium [Mass/volume] in Blood"
        },
        "valueQuantity": {
          "system": "http://unitsofmeasure.org",
          "value": 9.1,
          "unit": "mg/dL",
          "code": "mg/dL"
        },
        "referenceRange": [
          {
            "low": {
              "value": 8.6,
              "code": "mg/dL",
              "system": "http://unitsofmeasure.org"
            }
          },
          {
            "high": {
              "value": 10.4,
              "code": "mg/dL",
              "system": "http://unitsofmeasure.org"
            }
          }
        ],
        "text": {
          "status": "generated",
          "div": "<div xmlns=\"http://www.w3.org/1999/xhtml\"><table class=\"hl7__eu__lab__report\"><tr><th>Test</th><th>24-Jan-2019</th><th>Reference&#xA0;Range</th><th>Unit</th></tr><tr><td>Calcium [Mass/volume] in Blood</td><td>9.1</td><td>8.6 - 10.4</td><td></td><td>mg/dL</td></tr></table></div>"
        },
        "status": "final",
        "subject": {
          "reference": "urn:uuid:321251b2-e848-41e1-8ab6-48c86fbd474b",
          "display": "Molly Jenkins"
        },
        "effectiveDateTime": "2019-01-24T14:42:11Z",
        "specimen": {
          "reference": "urn:uuid:304b45b3-083e-47e5-96a0-c60ad317b7a7"
        }
      }
    },
    {
      "fullUrl": "urn:uuid:3905260b-d510-4c7b-816e-9adc99a2f6a0",
      "resource": {
        "resourceType": "Observation",
        "id": "3905260b-d510-4c7b-816e-9adc99a2f6a0",
        "meta": {
          "profile": [
            "http://hl7.eu/fhir/laboratory/StructureDefinition/Observation-resultslab-eu-lab"
          ]
        },
        "performer": [
          {
            "display": "The Central European Lab"
          }
        ],
        "category": [
          {
            "coding": [
              {
                "system": "http://terminology.hl7.org/CodeSystem/observation-category",
                "code": "laboratory"
              }
            ]
          }
        ],
        "code": {
          "coding": [
            {
              "code": "2947-0",
              "system": "http://loinc.org",
              "display": "Sodium [Moles/volume] in Blood"
            }
          ],
          "text": "Sodium [Moles/volume] in Blood"
        },
        "valueQuantity": {
          "system": "http://unitsofmeasure.org",
          "value": 143.6,
          "unit": "mmol/L",
          "code": "mmol/L"
        },
        "referenceRange": [
          {
            "low": {
              "value": 135,
              "code": "mmol/L",
              "system": "http://unitsofmeasure.org"
            }
          },
          {
            "high": {
              "value": 145,
              "code": "mmol/L",
              "system": "http://unitsofmeasure.org"
            }
          }
        ],
        "text": {
          "status": "generated",
          "div": "<div xmlns=\"http://www.w3.org/1999/xhtml\"><table class=\"hl7__eu__lab__report\"><tr><th>Test</th><th>24-Jan-2019</th><th>Reference&#xA0;Range</th><th>Unit</th></tr><tr><td>Sodium [Moles/volume] in Blood</td><td>143.6</td><td>135 - 145</td><td></td><td>mmol/L</td></tr></table></div>"
        },
        "status": "final",
        "subject": {
          "reference": "urn:uuid:321251b2-e848-41e1-8ab6-48c86fbd474b",
          "display": "Molly Jenkins"
        },
        "effectiveDateTime": "2019-01-24T14:42:11Z",
        "specimen": {
          "reference": "urn:uuid:304b45b3-083e-47e5-96a0-c60ad317b7a7"
        }
      }
    },
    {
      "fullUrl": "urn:uuid:2ac632cf-3e78-4e8b-a08e-69665914e993",
      "resource": {
        "resourceType": "Observation",
        "id": "2ac632cf-3e78-4e8b-a08e-69665914e993",
        "meta": {
          "profile": [
            "http://hl7.eu/fhir/laboratory/StructureDefinition/Observation-resultslab-eu-lab"
          ]
        },
        "performer": [
          {
            "display": "The Central European Lab"
          }
        ],
        "category": [
          {
            "coding": [
              {
                "system": "http://terminology.hl7.org/CodeSystem/observation-category",
                "code": "laboratory"
              }
            ]
          }
        ],
        "code": {
          "coding": [
            {
              "code": "6298-4",
              "system": "http://loinc.org",
              "display": "Potassium [Moles/volume] in Blood"
            }
          ],
          "text": "Potassium [Moles/volume] in Blood"
        },
        "valueQuantity": {
          "system": "http://unitsofmeasure.org",
          "value": 4.3,
          "unit": "mmol/L",
          "code": "mmol/L"
        },
        "referenceRange": [
          {
            "low": {
              "value": 3.5,
              "code": "mmol/L",
              "system": "http://unitsofmeasure.org"
            }
          },
          {
            "high": {
              "value": 5.1,
              "code": "mmol/L",
              "system": "http://unitsofmeasure.org"
            }
          }
        ],
        "text": {
          "status": "generated",
          "div": "<div xmlns=\"http://www.w3.org/1999/xhtml\"><table class=\"hl7__eu__lab__report\"><tr><th>Test</th><th>24-Jan-2019</th><th>Reference&#xA0;Range</th><th>Unit</th></tr><tr><td>Potassium [Moles/volume] in Blood</td><td>4.3</td><td>3.5 - 5.1</td><td></td><td>mmol/L</td></tr></table></div>"
        },
        "status": "final",
        "subject": {
          "reference": "urn:uuid:321251b2-e848-41e1-8ab6-48c86fbd474b",
          "display": "Molly Jenkins"
        },
        "effectiveDateTime": "2019-01-24T14:42:11Z",
        "specimen": {
          "reference": "urn:uuid:304b45b3-083e-47e5-96a0-c60ad317b7a7"
        }
      }
    },
    {
      "fullUrl": "urn:uuid:fdc356fc-6859-4934-b909-f91abed1e55f",
      "resource": {
        "resourceType": "Observation",
        "id": "fdc356fc-6859-4934-b909-f91abed1e55f",
        "meta": {
          "profile": [
            "http://hl7.eu/fhir/laboratory/StructureDefinition/Observation-resultslab-eu-lab"
          ]
        },
        "performer": [
          {
            "display": "The Central European Lab"
          }
        ],
        "category": [
          {
            "coding": [
              {
                "system": "http://terminology.hl7.org/CodeSystem/observation-category",
                "code": "laboratory"
              }
            ]
          }
        ],
        "code": {
          "coding": [
            {
              "code": "2069-3",
              "system": "http://loinc.org",
              "display": "Chloride [Moles/volume] in Blood"
            }
          ],
          "text": "Chloride [Moles/volume] in Blood"
        },
        "valueQuantity": {
          "system": "http://unitsofmeasure.org",
          "value": 108.7,
          "unit": "mmol/L",
          "code": "mmol/L"
        },
        "referenceRange": [
          {
            "low": {
              "value": 98,
              "code": "mmol/L",
              "system": "http://unitsofmeasure.org"
            }
          },
          {
            "high": {
              "value": 110,
              "code": "mmol/L",
              "system": "http://unitsofmeasure.org"
            }
          }
        ],
        "text": {
          "status": "generated",
          "div": "<div xmlns=\"http://www.w3.org/1999/xhtml\"><table class=\"hl7__eu__lab__report\"><tr><th>Test</th><th>24-Jan-2019</th><th>Reference&#xA0;Range</th><th>Unit</th></tr><tr><td>Chloride [Moles/volume] in Blood</td><td>108.7</td><td>98 - 110</td><td></td><td>mmol/L</td></tr></table></div>"
        },
        "status": "final",
        "subject": {
          "reference": "urn:uuid:321251b2-e848-41e1-8ab6-48c86fbd474b",
          "display": "Molly Jenkins"
        },
        "effectiveDateTime": "2019-01-24T14:42:11Z",
        "specimen": {
          "reference": "urn:uuid:304b45b3-083e-47e5-96a0-c60ad317b7a7"
        }
      }
    },
    {
      "fullUrl": "urn:uuid:e126e83d-87f2-46c8-b44f-3ed5afd6af23",
      "resource": {
        "resourceType": "Observation",
        "id": "e126e83d-87f2-46c8-b44f-3ed5afd6af23",
        "meta": {
          "profile": [
            "http://hl7.eu/fhir/laboratory/StructureDefinition/Observation-resultslab-eu-lab"
          ]
        },
        "performer": [
          {
            "display": "The Central European Lab"
          }
        ],
        "category": [
          {
            "coding": [
              {
                "system": "http://terminology.hl7.org/CodeSystem/observation-category",
                "code": "laboratory"
              }
            ]
          }
        ],
        "code": {
          "coding": [
            {
              "code": "20565-8",
              "system": "http://loinc.org",
              "display": "Carbon dioxide, total [Moles/volume] in Blood"
            }
          ],
          "text": "Carbon dioxide, total [Moles/volume] in Blood"
        },
        "valueQuantity": {
          "system": "http://unitsofmeasure.org",
          "value": 28.6,
          "unit": "mmol/L",
          "code": "mmol/L"
        },
        "referenceRange": [
          {
            "low": {
              "value": 22,
              "code": "mmol/L",
              "system": "http://unitsofmeasure.org"
            }
          },
          {
            "high": {
              "value": 29,
              "code": "mmol/L",
              "system": "http://unitsofmeasure.org"
            }
          }
        ],
        "text": {
          "status": "generated",
          "div": "<div xmlns=\"http://www.w3.org/1999/xhtml\"><table class=\"hl7__eu__lab__report\"><tr><th>Test</th><th>24-Jan-2019</th><th>Reference&#xA0;Range</th><th>Unit</th></tr><tr><td>Carbon dioxide, total [Moles/volume] in Blood</td><td>28.6</td><td>22 - 29</td><td></td><td>mmol/L</td></tr></table></div>"
        },
        "status": "final",
        "subject": {
          "reference": "urn:uuid:321251b2-e848-41e1-8ab6-48c86fbd474b",
          "display": "Molly Jenkins"
        },
        "effectiveDateTime": "2019-01-24T14:42:11Z",
        "specimen": {
          "reference": "urn:uuid:304b45b3-083e-47e5-96a0-c60ad317b7a7"
        }
      }
    },
    {
      "fullUrl": "urn:uuid:8be265e8-a216-442a-8f1f-6b3bd57f99f8",
      "resource": {
        "resourceType": "Device",
        "id": "8be265e8-a216-442a-8f1f-6b3bd57f99f8",
        "deviceName": [
          {
            "name": "SYNDERAI Synthetic Generator",
            "type": "manufacturer-name"
          }
        ],
        "version": [
          {
            "value": "5.0"
          }
        ],
        "text": {
          "status": "generated",
          "div": "<div xmlns=\"http://www.w3.org/1999/xhtml\">SYNDERAI Synthetic Generator v5.0</div>"
        },
        "status": "active\"",
        "distinctIdentifier": "synderai-generator-50",
        "manufacturer": "SYNDERAI Project"
      }
    },
    {
      "fullUrl": "urn:uuid:db103841-1f03-4d08-9de0-085ba03c13fc",
      "resource": {
        "resourceType": "Provenance",
        "id": "db103841-1f03-4d08-9de0-085ba03c13fc",
        "target": [
          {
            "reference": "Patient/321251b2-e848-41e1-8ab6-48c86fbd474b"
          },
          {
            "reference": "Bundle/17683413-25c5-4a83-b41f-e97dcd45ba73"
          },
          {
            "reference": "Composition/3197e5ab-17ae-40a2-aea5-9bb3873987f8"
          },
          {
            "reference": "PractitionerRole/cc80ee59-ae33-4ae4-9b19-81a2725aebcd"
          },
          {
            "reference": "Practitioner/b0a6b8d7-7ca3-4b3b-bd2e-ca46c33bf89f"
          },
          {
            "reference": "PractitionerRole/3028dae5-c353-498b-9a81-e831d806422b"
          },
          {
            "reference": "Organization/40d13b59-4826-4b0b-8da7-41d719ba7301"
          }
        ],
        "activity": {
          "text": "Synthetic Example Data Generation"
        },
        "policy": [
          "https://synderai.net/synderai-synthetic-data-policy"
        ],
        "agent": [
          {
            "type": {
              "text": "author"
            },
            "who": {
              "reference": "Device/8be265e8-a216-442a-8f1f-6b3bd57f99f8"
            }
          }
        ],
        "reason": [
          {
            "text": "Interoperability Testing and Training (non-clinical use)"
          }
        ],
        "text": {
          "status": "generated",
          "div": "<div xmlns=\"http://www.w3.org/1999/xhtml\">Provenance for SYNDERAI Synthetic Example Data Resource</div>"
        },
        "recorded": "2019-01-24T15:42:11Z"
      }
    },
    {
      "fullUrl": "urn:uuid:cc80ee59-ae33-4ae4-9b19-81a2725aebcd",
      "resource": {
        "resourceType": "PractitionerRole",
        "id": "cc80ee59-ae33-4ae4-9b19-81a2725aebcd",
        "meta": {
          "profile": [
            "http://hl7.eu/fhir/base/StructureDefinition/practitionerRole-eu"
          ]
        },
        "text": {
          "status": "generated",
          "div": "<div xmlns=\"http://www.w3.org/1999/xhtml\">Laboratory Role Id: cc80ee59-ae33-4ae4-9b19-81a2725aebcd</div>"
        },
        "practitioner": {
          "reference": "urn:uuid:b0a6b8d7-7ca3-4b3b-bd2e-ca46c33bf89f"
        }
      }
    },
    {
      "fullUrl": "urn:uuid:b0a6b8d7-7ca3-4b3b-bd2e-ca46c33bf89f",
      "resource": {
        "resourceType": "Practitioner",
        "id": "b0a6b8d7-7ca3-4b3b-bd2e-ca46c33bf89f",
        "meta": {
          "profile": [
            "http://hl7.eu/fhir/base/StructureDefinition/practitioner-eu"
          ]
        },
        "identifier": [
          {
            "assigner": {
              "display": "HL7 Europe"
            },
            "system": "urn:oid:2.16.840.1.113883.2.51.999",
            "value": "dbbd4a1c-ad36-4c13-b8b5-e8e5bdd8b00c"
          }
        ],
        "name": [
          {
            "prefix": [
              "dr"
            ],
            "given": [
              "Ex"
            ],
            "family": "Ample"
          }
        ],
        "address": [
          {
            "line": [
              "Laboratoire Central Europenne",
              "Boulevard du Jardin Botanique 32"
            ],
            "postalCode": "1000",
            "city": "Brussels",
            "country": "Belgium"
          }
        ],
        "text": {
          "status": "generated",
          "div": "<div xmlns=\"http://www.w3.org/1999/xhtml\">Laboratory: Laboratoire Central Europenne, 1000 Brussels, Belgium</div>"
        }
      }
    }
  ],
  "type": "document",
  "timestamp": "2019-01-24T15:42:11Z"
}
