{
  "resourceType": "Bundle",
  "id": "73372749-8dd8-4d17-ae3c-ad197ea74b4d",
  "meta": {
    "profile": [
      "http://hl7.eu/fhir/laboratory/StructureDefinition/Bundle-eu-lab"
    ]
  },
  "identifier": {
    "assigner": {
      "display": "HL7 Europe"
    },
    "system": "urn:oid:2.16.840.1.113883.2.51.999",
    "value": "22ef7304-f650-4035-a65a-5deaf1fe3efa"
  },
  "entry": [
    {
      "fullUrl": "urn:uuid:93a51fb4-d971-455d-a5aa-b113bee685a1",
      "resource": {
        "resourceType": "Composition",
        "id": "93a51fb4-d971-455d-a5aa-b113bee685a1",
        "meta": {
          "profile": [
            "http://hl7.eu/fhir/laboratory/StructureDefinition/Composition-eu-lab"
          ]
        },
        "identifier": {
          "assigner": {
            "display": "HL7 Europe"
          },
          "system": "urn:oid:2.16.840.1.113883.2.51.999",
          "value": "9cee6b2f-3caa-488c-9a09-11fc4c306d1b"
        },
        "author": [
          {
            "reference": "urn:uuid:4895c35e-7f9b-4f2e-bcd2-512206398ffc"
          }
        ],
        "category": [
          {
            "coding": [
              {
                "code": "26436-6",
                "system": "http://loinc.org",
                "display": "Laboratory studies (set)"
              }
            ]
          }
        ],
        "type": {
          "coding": [
            {
              "code": "11502-2",
              "system": "http://loinc.org",
              "display": "Laboratory report"
            }
          ],
          "text": "Laboratory Report"
        },
        "section": [
          {
            "code": {
              "coding": [
                {
                  "code": "26436-6",
                  "system": "http://loinc.org",
                  "display": "Laboratory studies (set)"
                }
              ],
              "text": "Laboratory studies"
            },
            "section": [
              {
                "code": {
                  "coding": [
                    {
                      "code": "$18719-5",
                      "system": "http://loinc.org",
                      "display": "Chemistry studies (set)"
                    }
                  ],
                  "text": "Chemistry"
                },
                "entry": [
                  {
                    "reference": "urn:uuid:a1eca0ea-b995-4b8b-b991-8aa8522f925b"
                  },
                  {
                    "reference": "urn:uuid:062b6b2c-a3aa-405d-a8d0-3f03fcdea619"
                  },
                  {
                    "reference": "urn:uuid:42ff3484-f877-44c9-a0cc-7f703f492872"
                  },
                  {
                    "reference": "urn:uuid:d69f8690-1342-4d79-beb2-4bf9acf7cf16"
                  },
                  {
                    "reference": "urn:uuid:9507c5b3-608a-4341-94f3-f68cf6b5e9e5"
                  },
                  {
                    "reference": "urn:uuid:b1c01863-0a1c-4585-a269-5de425c4795e"
                  },
                  {
                    "reference": "urn:uuid:9fd55e9c-6ae2-4b44-a37c-f88ed014f953"
                  },
                  {
                    "reference": "urn:uuid:4c2111d1-0860-4bf8-bcd5-3238ca6e4f1b"
                  },
                  {
                    "reference": "urn:uuid:617129e5-58e8-4799-b065-d8303ea557a7"
                  },
                  {
                    "reference": "urn:uuid:d4ef2898-0217-4b64-99e4-2fcf10109fe9"
                  },
                  {
                    "reference": "urn:uuid:858c787f-a5d2-4c65-b95f-425573f1c1dd"
                  },
                  {
                    "reference": "urn:uuid:d095b2fd-9c6e-4329-ae9d-ff02991fc49b"
                  },
                  {
                    "reference": "urn:uuid:f85ef7c2-a2a3-4ba1-956a-ab047d969d6c"
                  },
                  {
                    "reference": "urn:uuid:a92839bd-df3b-484d-9834-b182021607df"
                  },
                  {
                    "reference": "urn:uuid:ab6a63e5-8a1a-41b5-8324-56c26467ee64"
                  },
                  {
                    "reference": "urn:uuid:74a1415b-66cb-495a-a685-e6e405a75029"
                  },
                  {
                    "reference": "urn:uuid:f53f173a-c1e9-4d1b-bbcf-3021265f560f"
                  },
                  {
                    "reference": "urn:uuid:0d5bd256-d093-40f5-9b82-cf9512f61a56"
                  }
                ],
                "text": {
                  "status": "generated",
                  "div": "<div xmlns=\"http://www.w3.org/1999/xhtml\"><h3>Chemistry</h3><table class=\"hl7__eu__lab__report\"><thead><tr><th>Test</th><th>21-APR-2023</th><th>Reference&#xA0;Range</th><th>Unit</th></tr></thead><tbody><tr><td>Glucose [Mass/volume] in Serum or Plasma</td><td>83.0</td><td>70 - 140</td><td>mg/dL</td></tr><tr><td>Urea nitrogen [Mass/volume] in Serum or Plasma</td><td>11.7</td><td>7 - 20</td><td>mg/dL</td></tr><tr><td>Creatinine [Mass/volume] in Serum or Plasma</td><td><strong>2.0 H</strong></td><td>0.9 - 1.3</td><td>mg/dL</td></tr><tr><td>Calcium [Mass/volume] in Serum or Plasma</td><td>8.7</td><td>8.5 - 10.5</td><td>mg/dL</td></tr><tr><td>Sodium [Moles/volume] in Serum or Plasma</td><td>139.3</td><td>135 - 145</td><td>mmol/L</td></tr><tr><td>Potassium [Moles/volume] in Serum or Plasma</td><td>4.3</td><td>3.5 - 5.3</td><td>mmol/L</td></tr><tr><td>Chloride [Moles/volume] in Serum or Plasma</td><td><strong>107.8 H</strong></td><td>98 - 107</td><td>mmol/L</td></tr><tr><td>Carbon dioxide, total [Moles/volume] in Serum or Plasma</td><td>22.1</td><td>22 - 33</td><td>mmol/L</td></tr><tr><td>Ketones [Presence] in Urine by Test strip</td><td>Urine ketone test = ++</td><td></td><td></td></tr><tr><td>Hemoglobin A1c/Hemoglobin.total in Blood</td><td><strong>2.9 L</strong></td><td>4.3 - 6</td><td>%</td></tr><tr><td>Glucose [Mass/volume] in Blood</td><td>83.0</td><td>70 - 140</td><td>mg/dL</td></tr><tr><td>Urea nitrogen [Mass/volume] in Blood</td><td>11.7</td><td>7 - 20</td><td>mg/dL</td></tr><tr><td>Creatinine [Mass/volume] in Blood</td><td><strong>2.9 H</strong></td><td>0.9 - 1.3</td><td>mg/dL</td></tr><tr><td>Calcium [Mass/volume] in Blood</td><td>8.7</td><td>8.5 - 10.5</td><td>mg/dL</td></tr><tr><td>Sodium [Moles/volume] in Blood</td><td>139.3</td><td>135 - 145</td><td>mmol/L</td></tr><tr><td>Potassium [Moles/volume] in Blood</td><td>4.3</td><td>3.5 - 5.1</td><td>mmol/L</td></tr><tr><td>Chloride [Moles/volume] in Blood</td><td>107.8</td><td>98 - 108</td><td>mmol/L</td></tr><tr><td>Carbon dioxide, total [Moles/volume] in Blood</td><td>22.1</td><td>22 - 29</td><td>mmol/L</td></tr></tbody></table></div>"
                },
                "title": "Chemistry"
              },
              {
                "code": {
                  "coding": [
                    {
                      "code": "$18729-4",
                      "system": "http://loinc.org",
                      "display": "Urinalysis studies (set)"
                    }
                  ],
                  "text": "Urinalysis"
                },
                "entry": [
                  {
                    "reference": "urn:uuid:43c8a8f9-8a95-47f0-b24d-072964d775f3"
                  },
                  {
                    "reference": "urn:uuid:55dfc045-31cd-43b8-a5ec-fd3e78720e62"
                  },
                  {
                    "reference": "urn:uuid:5c10b64b-56c3-4e3a-88c7-7c2816442974"
                  },
                  {
                    "reference": "urn:uuid:c1c10efa-2dcb-4e85-8557-c841ce36fed3"
                  },
                  {
                    "reference": "urn:uuid:a6224714-2fc9-477d-9095-0ea34d434344"
                  },
                  {
                    "reference": "urn:uuid:610d3658-b0fe-46ea-b591-b31d437d9278"
                  },
                  {
                    "reference": "urn:uuid:4f337a29-eb2a-4f95-9e41-460d799e3179"
                  },
                  {
                    "reference": "urn:uuid:57f7d405-fa3c-4eb0-8bb0-64ec31e378a4"
                  },
                  {
                    "reference": "urn:uuid:8fa88236-da90-4105-a68b-cb9eb698b6a8"
                  },
                  {
                    "reference": "urn:uuid:2e82defc-2f1e-4567-9d60-b97682573be2"
                  },
                  {
                    "reference": "urn:uuid:88ad8cbc-f3cc-4eb3-a32d-7542ecd32557"
                  },
                  {
                    "reference": "urn:uuid:671b176b-5071-4b95-b697-5300adf448ba"
                  }
                ],
                "text": {
                  "status": "generated",
                  "div": "<div xmlns=\"http://www.w3.org/1999/xhtml\"><h3>Urinalysis</h3><table class=\"hl7__eu__lab__report\"><thead><tr><th>Test</th><th>21-APR-2023</th><th>Reference&#xA0;Range</th><th>Unit</th></tr></thead><tbody><tr><td>Glucose [Mass/volume] in Urine by Test strip</td><td><strong>1.3 H</strong></td><td>0 - 0.8</td><td>mg/dL</td></tr><tr><td>Glucose [Presence] in Urine by Test strip</td><td>++</td><td></td><td></td></tr><tr><td>Bilirubin.total [Mass/volume] in Urine by Test strip</td><td>0.5</td><td>0 - 1.9</td><td>mg/dL</td></tr><tr><td>Bilirubin.total [Presence] in Urine by Test strip</td><td>Finding of bilirubin in urine</td><td></td><td></td></tr><tr><td>Ketones [Mass/volume] in Urine by Test strip</td><td><strong>15.5 H</strong></td><td>0 - 3</td><td>mg/dL</td></tr><tr><td>Specific gravity of Urine by Test strip</td><td><strong>1.0 L</strong></td><td>1.01 - 1.03</td><td>{nominal}</td></tr><tr><td>pH of Urine by Test strip</td><td>5.9</td><td>4.5 - 7.5</td><td>pH</td></tr><tr><td>Protein [Mass/volume] in Urine by Test strip</td><td><strong>216.5 H</strong></td><td>0 - 149</td><td>mg/dL</td></tr><tr><td>Protein [Presence] in Urine by Test strip</td><td>Urine protein test = ++</td><td></td><td></td></tr><tr><td>Nitrite [Presence] in Urine by Test strip</td><td>Urine nitrite negative</td><td></td><td></td></tr><tr><td>Hemoglobin [Presence] in Urine by Test strip</td><td>Urine blood test = negative</td><td></td><td></td></tr><tr><td>Leukocyte esterase [Presence] in Urine by Test strip</td><td>Urine leukocyte test negative</td><td></td><td></td></tr></tbody></table></div>"
                },
                "title": "Urinalysis"
              },
              {
                "code": {
                  "coding": [
                    {
                      "code": "$LP7846-1",
                      "system": "http://loinc.org",
                      "display": "Specimen information"
                    }
                  ],
                  "text": "Specimen information"
                },
                "entry": [
                  {
                    "reference": "urn:uuid:e7f3e28c-7042-43b5-8457-8e9d1cc4770b"
                  },
                  {
                    "reference": "urn:uuid:10da6fe8-4bb5-4c63-8261-1791a7e9e365"
                  },
                  {
                    "reference": "urn:uuid:0bcd1c6a-5dc4-40fa-b75b-6e6bd2e6f494"
                  },
                  {
                    "reference": "urn:uuid:319c96eb-c9ce-4cb8-b3e4-c07bd6bd4410"
                  }
                ],
                "text": {
                  "status": "generated",
                  "div": "<div xmlns=\"http://www.w3.org/1999/xhtml\"><h3>Specimen information</h3><table class=\"hl7__eu__lab__report\"><thead><tr><th>Test</th><th>21-APR-2023</th><th>Specimen</th><th></th></tr></thead><tbody><tr><td>Appearance of Urine</td><td>Cloudy urine</td><td>Urine</td><td></td></tr><tr><td>Odor of Urine</td><td>Urine smell ammoniacal</td><td>Urine</td><td></td></tr><tr><td>Clarity of Urine</td><td>Translucent</td><td>Urine</td><td></td></tr><tr><td>Color of Urine</td><td>Brown color</td><td>Urine</td><td></td></tr></tbody></table></div>"
                },
                "title": "Specimen information"
              }
            ],
            "title": "Laboratory Report"
          },
          {
            "text": {
              "status": "generated",
              "div": "<div xmlns=\"http://www.w3.org/1999/xhtml\"><h3>Annotation</h3><table class=\"hl7__eu__lab__report\"><tr><th>Conclusion and Recommendations based on this report and previous findings known to us</th></tr><tr><td>The patient shows elevated creatinine, proteinuria, and abnormal urine findings (cloudy, brown, low specific gravity, ketonuria, glucosuria), suggesting impaired renal function with possible nephrotic features. Low HbA1c with normoglycemia may indicate recent hypoglycemia or anemia. No evidence of urinary tract infection. Recommend further evaluation of renal function and possible underlying metabolic or systemic causes.</td></tr></table></div>"
            },
            "code": {
              "coding": [
                {
                  "system": "http://loinc.org",
                  "code": "48767-8",
                  "display": "Annotation comment"
                }
              ]
            },
            "title": "Annotation comment"
          }
        ],
        "status": "final",
        "subject": {
          "reference": "urn:uuid:eaa80e57-0ab1-463d-999a-ac3d48298d41",
          "display": "Victor Lagarde"
        },
        "date": "2023-04-21T06:48:18Z",
        "title": "Laboratory Report",
        "confidentiality": "N"
      }
    },
    {
      "fullUrl": "urn:uuid:59f15d54-4e44-4244-ac60-2057a2b7d260",
      "resource": {
        "resourceType": "DiagnosticReport",
        "id": "59f15d54-4e44-4244-ac60-2057a2b7d260",
        "meta": {
          "profile": [
            "http://hl7.eu/fhir/laboratory/StructureDefinition/DiagnosticReport-eu-lab"
          ]
        },
        "identifier": [
          {
            "assigner": {
              "display": "HL7 Europe"
            },
            "system": "urn:oid:2.16.840.1.113883.2.51.999",
            "value": "2d7a8c50-5494-4675-aafe-dc1af417a78a"
          }
        ],
        "extension": [
          {
            "url": "http://hl7.org/fhir/5.0/StructureDefinition/extension-DiagnosticReport.composition",
            "valueReference": {
              "reference": "urn:uuid:9cee6b2f-3caa-488c-9a09-11fc4c306d1b"
            }
          }
        ],
        "category": [
          {
            "coding": [
              {
                "code": "26436-6",
                "system": "http://loinc.org",
                "display": "Laboratory studies (set)"
              }
            ]
          }
        ],
        "specimen": [
          {
            "reference": "urn:uuid:7c8bc808-a3e9-432a-bdf9-cf7dcb2f6849"
          },
          {
            "reference": "urn:uuid:13d1db98-6e49-47c1-9723-add5f336f4e0"
          },
          {
            "reference": "urn:uuid:17b4edb2-c0a0-4412-a223-92eca24e7013"
          }
        ],
        "result": [
          {
            "reference": "urn:uuid:a1eca0ea-b995-4b8b-b991-8aa8522f925b"
          },
          {
            "reference": "urn:uuid:062b6b2c-a3aa-405d-a8d0-3f03fcdea619"
          },
          {
            "reference": "urn:uuid:42ff3484-f877-44c9-a0cc-7f703f492872"
          },
          {
            "reference": "urn:uuid:d69f8690-1342-4d79-beb2-4bf9acf7cf16"
          },
          {
            "reference": "urn:uuid:9507c5b3-608a-4341-94f3-f68cf6b5e9e5"
          },
          {
            "reference": "urn:uuid:b1c01863-0a1c-4585-a269-5de425c4795e"
          },
          {
            "reference": "urn:uuid:9fd55e9c-6ae2-4b44-a37c-f88ed014f953"
          },
          {
            "reference": "urn:uuid:4c2111d1-0860-4bf8-bcd5-3238ca6e4f1b"
          },
          {
            "reference": "urn:uuid:e7f3e28c-7042-43b5-8457-8e9d1cc4770b"
          },
          {
            "reference": "urn:uuid:10da6fe8-4bb5-4c63-8261-1791a7e9e365"
          },
          {
            "reference": "urn:uuid:0bcd1c6a-5dc4-40fa-b75b-6e6bd2e6f494"
          },
          {
            "reference": "urn:uuid:319c96eb-c9ce-4cb8-b3e4-c07bd6bd4410"
          },
          {
            "reference": "urn:uuid:43c8a8f9-8a95-47f0-b24d-072964d775f3"
          },
          {
            "reference": "urn:uuid:55dfc045-31cd-43b8-a5ec-fd3e78720e62"
          },
          {
            "reference": "urn:uuid:5c10b64b-56c3-4e3a-88c7-7c2816442974"
          },
          {
            "reference": "urn:uuid:c1c10efa-2dcb-4e85-8557-c841ce36fed3"
          },
          {
            "reference": "urn:uuid:a6224714-2fc9-477d-9095-0ea34d434344"
          },
          {
            "reference": "urn:uuid:617129e5-58e8-4799-b065-d8303ea557a7"
          },
          {
            "reference": "urn:uuid:610d3658-b0fe-46ea-b591-b31d437d9278"
          },
          {
            "reference": "urn:uuid:4f337a29-eb2a-4f95-9e41-460d799e3179"
          },
          {
            "reference": "urn:uuid:57f7d405-fa3c-4eb0-8bb0-64ec31e378a4"
          },
          {
            "reference": "urn:uuid:8fa88236-da90-4105-a68b-cb9eb698b6a8"
          },
          {
            "reference": "urn:uuid:2e82defc-2f1e-4567-9d60-b97682573be2"
          },
          {
            "reference": "urn:uuid:88ad8cbc-f3cc-4eb3-a32d-7542ecd32557"
          },
          {
            "reference": "urn:uuid:671b176b-5071-4b95-b697-5300adf448ba"
          },
          {
            "reference": "urn:uuid:d4ef2898-0217-4b64-99e4-2fcf10109fe9"
          },
          {
            "reference": "urn:uuid:858c787f-a5d2-4c65-b95f-425573f1c1dd"
          },
          {
            "reference": "urn:uuid:d095b2fd-9c6e-4329-ae9d-ff02991fc49b"
          },
          {
            "reference": "urn:uuid:f85ef7c2-a2a3-4ba1-956a-ab047d969d6c"
          },
          {
            "reference": "urn:uuid:a92839bd-df3b-484d-9834-b182021607df"
          },
          {
            "reference": "urn:uuid:ab6a63e5-8a1a-41b5-8324-56c26467ee64"
          },
          {
            "reference": "urn:uuid:74a1415b-66cb-495a-a685-e6e405a75029"
          },
          {
            "reference": "urn:uuid:f53f173a-c1e9-4d1b-bbcf-3021265f560f"
          },
          {
            "reference": "urn:uuid:0d5bd256-d093-40f5-9b82-cf9512f61a56"
          }
        ],
        "status": "registered",
        "code": {
          "coding": [
            {
              "code": "11502-2",
              "system": "http://loinc.org",
              "display": "Laboratory report"
            }
          ]
        },
        "subject": {
          "reference": "urn:uuid:eaa80e57-0ab1-463d-999a-ac3d48298d41",
          "display": "Victor Lagarde"
        }
      }
    },
    {
      "fullUrl": "urn:uuid:eaa80e57-0ab1-463d-999a-ac3d48298d41",
      "resource": {
        "resourceType": "Patient",
        "id": "eaa80e57-0ab1-463d-999a-ac3d48298d41",
        "meta": {
          "security": [
            {
              "system": "http://terminology.hl7.org/CodeSystem/v3-ActReason",
              "code": "HTEST"
            },
            {
              "system": "http://terminology.hl7.org/CodeSystem/v3-ActReason",
              "code": "TRAIN"
            }
          ],
          "tag": [
            {
              "system": "https://synderai.net/fhir/CodeSystem/tags",
              "code": "synthetic",
              "display": "SYNDERAI Synthetic data"
            }
          ],
          "profile": [
            "http://hl7.eu/fhir/base/StructureDefinition/patient-eu-core"
          ]
        },
        "identifier": [
          {
            "type": {
              "coding": [
                {
                  "code": "PT",
                  "system": "http://terminology.hl7.org/CodeSystem/v2-0203"
                }
              ]
            },
            "system": "http://ec.europa.eu/identifier/eci",
            "value": "9925-001801-9"
          },
          {
            "type": {
              "coding": [
                {
                  "code": "MR",
                  "system": "http://terminology.hl7.org/CodeSystem/v2-0203"
                }
              ]
            },
            "system": "http://local.setting.eu/identifier",
            "value": "22c2dfd0-ac57-8833-2532-848f180896a4"
          }
        ],
        "name": [
          {
            "family": "Lagarde"
          },
          {
            "given": [
              "Victor"
            ]
          },
          {
            "text": "Victor Lagarde"
          }
        ],
        "address": [
          {
            "line": [
              "avenue Robert"
            ],
            "use": "home",
            "type": "physical",
            "postalCode": "80300",
            "city": "Albert",
            "country": "France"
          }
        ],
        "telecom": [
          {
            "system": "phone",
            "value": "0177941801"
          }
        ],
        "extension": [
          {
            "url": "http://hl7.org/fhir/StructureDefinition/patient-nationality",
            "valueCodeableConcept": {
              "coding": [
                {
                  "code": "FR",
                  "system": "http://hl7.org/fhir/ValueSet/country"
                }
              ]
            }
          }
        ],
        "text": {
          "status": "generated",
          "div": "<div xmlns=\"http://www.w3.org/1999/xhtml\"><table class=\"hl7__ips\"><tr><td>Victor Lagarde</td><td>male</td><td>31-Aug-1939</td></tr></table></div>"
        },
        "gender": "male",
        "birthDate": "1939-08-31"
      }
    },
    {
      "fullUrl": "urn:uuid:06b05ad8-3317-4c72-a17b-0614034ae885",
      "resource": {
        "resourceType": "ServiceRequest",
        "id": "06b05ad8-3317-4c72-a17b-0614034ae885",
        "meta": {
          "profile": [
            "http://hl7.eu/fhir/laboratory/StructureDefinition/ServiceRequest-eu-lab"
          ]
        },
        "identifier": [
          {
            "system": "http://example.org",
            "value": "58a37996-6e1e-4382-94c2-95d32f564c75"
          }
        ],
        "specimen": [
          {
            "reference": "urn:uuid:7c8bc808-a3e9-432a-bdf9-cf7dcb2f6849"
          },
          {
            "reference": "urn:uuid:13d1db98-6e49-47c1-9723-add5f336f4e0"
          },
          {
            "reference": "urn:uuid:17b4edb2-c0a0-4412-a223-92eca24e7013"
          }
        ],
        "reasonCode": [
          {
            "coding": [
              {
                "code": "433144002",
                "system": "http://snomed.info/sct",
                "display": "Chronic kidney disease stage 3"
              }
            ]
          },
          {
            "coding": [
              {
                "code": "157141000119108",
                "system": "http://snomed.info/sct",
                "display": "Proteinuria due to type 2 diabetes mellitus"
              }
            ]
          },
          {
            "coding": [
              {
                "code": "431856006",
                "system": "http://snomed.info/sct",
                "display": "Chronic kidney disease stage 2"
              }
            ]
          },
          {
            "coding": [
              {
                "code": "90781000119102",
                "system": "http://snomed.info/sct",
                "display": "Microalbuminuria due to type 2 diabetes mellitus"
              }
            ]
          },
          {
            "coding": [
              {
                "code": "127013003",
                "system": "http://snomed.info/sct",
                "display": "Disorder of kidney due to diabetes mellitus"
              }
            ]
          },
          {
            "coding": [
              {
                "code": "431855005",
                "system": "http://snomed.info/sct",
                "display": "Chronic kidney disease stage 1"
              }
            ]
          },
          {
            "coding": [
              {
                "code": "55822004",
                "system": "http://snomed.info/sct",
                "display": "Hyperlipidemia"
              }
            ]
          },
          {
            "coding": [
              {
                "code": "59621000",
                "system": "http://snomed.info/sct",
                "display": "Essential hypertension"
              }
            ]
          },
          {
            "coding": [
              {
                "code": "237602007",
                "system": "http://snomed.info/sct",
                "display": "Metabolic syndrome X"
              }
            ]
          },
          {
            "coding": [
              {
                "code": "414545008",
                "system": "http://snomed.info/sct",
                "display": "Ischemic heart disease"
              }
            ]
          },
          {
            "coding": [
              {
                "code": "40055000",
                "system": "http://snomed.info/sct",
                "display": "Chronic sinusitis"
              }
            ]
          },
          {
            "coding": [
              {
                "code": "15777000",
                "system": "http://snomed.info/sct",
                "display": "Prediabetes"
              }
            ]
          },
          {
            "coding": [
              {
                "code": "271737000",
                "system": "http://snomed.info/sct",
                "display": "Anemia"
              }
            ]
          }
        ],
        "status": "active",
        "intent": "order",
        "code": {
          "coding": [
            {
              "code": "108252007",
              "system": "http://snomed.info/sct",
              "display": "Laboratory procedure"
            }
          ]
        },
        "subject": {
          "reference": "urn:uuid:eaa80e57-0ab1-463d-999a-ac3d48298d41",
          "display": "Victor Lagarde"
        },
        "requester": {
          "reference": "urn:uuid:e0527c53-5447-4d97-95bb-3c80c3027e90"
        }
      }
    },
    {
      "fullUrl": "urn:uuid:e0527c53-5447-4d97-95bb-3c80c3027e90",
      "resource": {
        "resourceType": "PractitionerRole",
        "id": "e0527c53-5447-4d97-95bb-3c80c3027e90",
        "meta": {
          "profile": [
            "http://hl7.eu/fhir/base/StructureDefinition/practitionerRole-eu"
          ]
        },
        "text": {
          "status": "generated",
          "div": "<div xmlns=\"http://www.w3.org/1999/xhtml\">Provider Role Id: e0527c53-5447-4d97-95bb-3c80c3027e90</div>"
        },
        "organization": {
          "reference": "urn:uuid:0d7c8c9a-bb6a-4cdf-8f10-aabf155c0c81"
        }
      }
    },
    {
      "fullUrl": "urn:uuid:0d7c8c9a-bb6a-4cdf-8f10-aabf155c0c81",
      "resource": {
        "resourceType": "Organization",
        "id": "0d7c8c9a-bb6a-4cdf-8f10-aabf155c0c81",
        "meta": {
          "profile": [
            "http://hl7.eu/fhir/base/StructureDefinition/organization-eu"
          ]
        },
        "identifier": [
          {
            "assigner": {
              "display": "HL7 Europe"
            },
            "system": "urn:oid:2.16.840.1.113883.2.51.999",
            "value": "e47d992a-61ee-4b06-91ef-565814b6adde"
          }
        ],
        "address": [
          {
            "city": "Auxerre",
            "postalCode": "89000",
            "country": "France"
          }
        ],
        "text": {
          "status": "generated",
          "div": "<div xmlns=\"http://www.w3.org/1999/xhtml\">Provider Organization: Thiriot Didier (Cardiologie)</div>"
        },
        "name": "Thiriot Didier (Cardiologie)"
      }
    },
    {
      "fullUrl": "urn:uuid:7c8bc808-a3e9-432a-bdf9-cf7dcb2f6849",
      "resource": {
        "resourceType": "Specimen",
        "id": "7c8bc808-a3e9-432a-bdf9-cf7dcb2f6849",
        "meta": {
          "profile": [
            "http://hl7.eu/fhir/laboratory/StructureDefinition/Specimen-eu-lab"
          ]
        },
        "collection": {
          "collectedDateTime": "2023-04-21"
        },
        "text": {
          "status": "generated",
          "div": "<div xmlns=\"http://www.w3.org/1999/xhtml\"><table class=\"hl7__eu__lab__report\"><tr><th>Specimen</th><th>Collection Date</th></tr><tr><td>Acellular blood (serum or plasma) specimen</td><td><span class=\"nb\">21-Apr-2023</span></td></tr></table></div>"
        },
        "type": {
          "coding": [
            {
              "code": "122592007",
              "system": "http://snomed.info/sct",
              "display": "Acellular blood (serum or plasma) specimen"
            }
          ]
        }
      }
    },
    {
      "fullUrl": "urn:uuid:13d1db98-6e49-47c1-9723-add5f336f4e0",
      "resource": {
        "resourceType": "Specimen",
        "id": "13d1db98-6e49-47c1-9723-add5f336f4e0",
        "meta": {
          "profile": [
            "http://hl7.eu/fhir/laboratory/StructureDefinition/Specimen-eu-lab"
          ]
        },
        "collection": {
          "collectedDateTime": "2023-04-21"
        },
        "text": {
          "status": "generated",
          "div": "<div xmlns=\"http://www.w3.org/1999/xhtml\"><table class=\"hl7__eu__lab__report\"><tr><th>Specimen</th><th>Collection Date</th></tr><tr><td>Urine specimen</td><td><span class=\"nb\">21-Apr-2023</span></td></tr></table></div>"
        },
        "type": {
          "coding": [
            {
              "code": "122575003",
              "system": "http://snomed.info/sct",
              "display": "Urine specimen"
            }
          ]
        }
      }
    },
    {
      "fullUrl": "urn:uuid:17b4edb2-c0a0-4412-a223-92eca24e7013",
      "resource": {
        "resourceType": "Specimen",
        "id": "17b4edb2-c0a0-4412-a223-92eca24e7013",
        "meta": {
          "profile": [
            "http://hl7.eu/fhir/laboratory/StructureDefinition/Specimen-eu-lab"
          ]
        },
        "collection": {
          "collectedDateTime": "2023-04-21"
        },
        "text": {
          "status": "generated",
          "div": "<div xmlns=\"http://www.w3.org/1999/xhtml\"><table class=\"hl7__eu__lab__report\"><tr><th>Specimen</th><th>Collection Date</th></tr><tr><td>Whole blood specimen (specimen)</td><td><span class=\"nb\">21-Apr-2023</span></td></tr></table></div>"
        },
        "type": {
          "coding": [
            {
              "code": "258580003",
              "system": "http://snomed.info/sct",
              "display": "Whole blood specimen (specimen)"
            }
          ]
        }
      }
    },
    {
      "fullUrl": "urn:uuid:a1eca0ea-b995-4b8b-b991-8aa8522f925b",
      "resource": {
        "resourceType": "Observation",
        "id": "a1eca0ea-b995-4b8b-b991-8aa8522f925b",
        "meta": {
          "profile": [
            "http://hl7.eu/fhir/laboratory/StructureDefinition/Observation-resultslab-eu-lab"
          ]
        },
        "performer": [
          {
            "display": "The Central European Lab"
          }
        ],
        "category": [
          {
            "coding": [
              {
                "system": "http://terminology.hl7.org/CodeSystem/observation-category",
                "code": "laboratory"
              }
            ]
          }
        ],
        "code": {
          "coding": [
            {
              "code": "2345-7",
              "system": "http://loinc.org",
              "display": "Glucose [Mass/volume] in Serum or Plasma"
            }
          ],
          "text": "Glucose [Mass/volume] in Serum or Plasma"
        },
        "valueQuantity": {
          "system": "http://unitsofmeasure.org",
          "value": 83,
          "unit": "mg/dL",
          "code": "mg/dL"
        },
        "referenceRange": [
          {
            "low": {
              "value": 70,
              "code": "mg/dL",
              "system": "http://unitsofmeasure.org"
            }
          },
          {
            "high": {
              "value": 140,
              "code": "mg/dL",
              "system": "http://unitsofmeasure.org"
            }
          }
        ],
        "text": {
          "status": "generated",
          "div": "<div xmlns=\"http://www.w3.org/1999/xhtml\"><table class=\"hl7__eu__lab__report\"><tr><th>Test</th><th>21-Apr-2023</th><th>Reference&#xA0;Range</th><th>Unit</th></tr><tr><td>Glucose [Mass/volume] in Serum or Plasma</td><td>83.0</td><td>70 - 140</td><td></td><td>mg/dL</td></tr></table></div>"
        },
        "status": "final",
        "subject": {
          "reference": "urn:uuid:eaa80e57-0ab1-463d-999a-ac3d48298d41",
          "display": "Victor Lagarde"
        },
        "effectiveDateTime": "2023-04-21T04:48:18Z",
        "specimen": {
          "reference": "urn:uuid:7c8bc808-a3e9-432a-bdf9-cf7dcb2f6849"
        }
      }
    },
    {
      "fullUrl": "urn:uuid:062b6b2c-a3aa-405d-a8d0-3f03fcdea619",
      "resource": {
        "resourceType": "Observation",
        "id": "062b6b2c-a3aa-405d-a8d0-3f03fcdea619",
        "meta": {
          "profile": [
            "http://hl7.eu/fhir/laboratory/StructureDefinition/Observation-resultslab-eu-lab"
          ]
        },
        "performer": [
          {
            "display": "The Central European Lab"
          }
        ],
        "category": [
          {
            "coding": [
              {
                "system": "http://terminology.hl7.org/CodeSystem/observation-category",
                "code": "laboratory"
              }
            ]
          }
        ],
        "code": {
          "coding": [
            {
              "code": "3094-0",
              "system": "http://loinc.org",
              "display": "Urea nitrogen [Mass/volume] in Serum or Plasma"
            }
          ],
          "text": "Urea nitrogen [Mass/volume] in Serum or Plasma"
        },
        "valueQuantity": {
          "system": "http://unitsofmeasure.org",
          "value": 11.7,
          "unit": "mg/dL",
          "code": "mg/dL"
        },
        "referenceRange": [
          {
            "low": {
              "value": 7,
              "code": "mg/dL",
              "system": "http://unitsofmeasure.org"
            }
          },
          {
            "high": {
              "value": 20,
              "code": "mg/dL",
              "system": "http://unitsofmeasure.org"
            }
          }
        ],
        "text": {
          "status": "generated",
          "div": "<div xmlns=\"http://www.w3.org/1999/xhtml\"><table class=\"hl7__eu__lab__report\"><tr><th>Test</th><th>21-Apr-2023</th><th>Reference&#xA0;Range</th><th>Unit</th></tr><tr><td>Urea nitrogen [Mass/volume] in Serum or Plasma</td><td>11.7</td><td>7 - 20</td><td></td><td>mg/dL</td></tr></table></div>"
        },
        "status": "final",
        "subject": {
          "reference": "urn:uuid:eaa80e57-0ab1-463d-999a-ac3d48298d41",
          "display": "Victor Lagarde"
        },
        "effectiveDateTime": "2023-04-21T04:48:18Z",
        "specimen": {
          "reference": "urn:uuid:7c8bc808-a3e9-432a-bdf9-cf7dcb2f6849"
        }
      }
    },
    {
      "fullUrl": "urn:uuid:42ff3484-f877-44c9-a0cc-7f703f492872",
      "resource": {
        "resourceType": "Observation",
        "id": "42ff3484-f877-44c9-a0cc-7f703f492872",
        "meta": {
          "profile": [
            "http://hl7.eu/fhir/laboratory/StructureDefinition/Observation-resultslab-eu-lab"
          ]
        },
        "performer": [
          {
            "display": "The Central European Lab"
          }
        ],
        "category": [
          {
            "coding": [
              {
                "system": "http://terminology.hl7.org/CodeSystem/observation-category",
                "code": "laboratory"
              }
            ]
          }
        ],
        "code": {
          "coding": [
            {
              "code": "2160-0",
              "system": "http://loinc.org",
              "display": "Creatinine [Mass/volume] in Serum or Plasma"
            }
          ],
          "text": "Creatinine [Mass/volume] in Serum or Plasma"
        },
        "valueQuantity": {
          "system": "http://unitsofmeasure.org",
          "value": 2,
          "unit": "mg/dL",
          "code": "mg/dL"
        },
        "referenceRange": [
          {
            "low": {
              "value": 0.9,
              "code": "mg/dL",
              "system": "http://unitsofmeasure.org"
            }
          },
          {
            "high": {
              "value": 1.3,
              "code": "mg/dL",
              "system": "http://unitsofmeasure.org"
            }
          }
        ],
        "interpretation": [
          {
            "coding": [
              {
                "code": "H",
                "system": "http://terminology.hl7.org/CodeSystem/v3-ObservationInterpretation",
                "display": "High"
              }
            ]
          }
        ],
        "text": {
          "status": "generated",
          "div": "<div xmlns=\"http://www.w3.org/1999/xhtml\"><table class=\"hl7__eu__lab__report\"><tr><th>Test</th><th>21-Apr-2023</th><th>Reference&#xA0;Range</th><th>Unit</th></tr><tr><td>Creatinine [Mass/volume] in Serum or Plasma</td><td>2.0</td><td>0.9 - 1.3</td><td>H</td><td>mg/dL</td></tr></table></div>"
        },
        "status": "final",
        "subject": {
          "reference": "urn:uuid:eaa80e57-0ab1-463d-999a-ac3d48298d41",
          "display": "Victor Lagarde"
        },
        "effectiveDateTime": "2023-04-21T04:48:18Z",
        "specimen": {
          "reference": "urn:uuid:7c8bc808-a3e9-432a-bdf9-cf7dcb2f6849"
        }
      }
    },
    {
      "fullUrl": "urn:uuid:d69f8690-1342-4d79-beb2-4bf9acf7cf16",
      "resource": {
        "resourceType": "Observation",
        "id": "d69f8690-1342-4d79-beb2-4bf9acf7cf16",
        "meta": {
          "profile": [
            "http://hl7.eu/fhir/laboratory/StructureDefinition/Observation-resultslab-eu-lab"
          ]
        },
        "performer": [
          {
            "display": "The Central European Lab"
          }
        ],
        "category": [
          {
            "coding": [
              {
                "system": "http://terminology.hl7.org/CodeSystem/observation-category",
                "code": "laboratory"
              }
            ]
          }
        ],
        "code": {
          "coding": [
            {
              "code": "17861-6",
              "system": "http://loinc.org",
              "display": "Calcium [Mass/volume] in Serum or Plasma"
            }
          ],
          "text": "Calcium [Mass/volume] in Serum or Plasma"
        },
        "valueQuantity": {
          "system": "http://unitsofmeasure.org",
          "value": 8.7,
          "unit": "mg/dL",
          "code": "mg/dL"
        },
        "referenceRange": [
          {
            "low": {
              "value": 8.5,
              "code": "mg/dL",
              "system": "http://unitsofmeasure.org"
            }
          },
          {
            "high": {
              "value": 10.5,
              "code": "mg/dL",
              "system": "http://unitsofmeasure.org"
            }
          }
        ],
        "text": {
          "status": "generated",
          "div": "<div xmlns=\"http://www.w3.org/1999/xhtml\"><table class=\"hl7__eu__lab__report\"><tr><th>Test</th><th>21-Apr-2023</th><th>Reference&#xA0;Range</th><th>Unit</th></tr><tr><td>Calcium [Mass/volume] in Serum or Plasma</td><td>8.7</td><td>8.5 - 10.5</td><td></td><td>mg/dL</td></tr></table></div>"
        },
        "status": "final",
        "subject": {
          "reference": "urn:uuid:eaa80e57-0ab1-463d-999a-ac3d48298d41",
          "display": "Victor Lagarde"
        },
        "effectiveDateTime": "2023-04-21T04:48:18Z",
        "specimen": {
          "reference": "urn:uuid:7c8bc808-a3e9-432a-bdf9-cf7dcb2f6849"
        }
      }
    },
    {
      "fullUrl": "urn:uuid:9507c5b3-608a-4341-94f3-f68cf6b5e9e5",
      "resource": {
        "resourceType": "Observation",
        "id": "9507c5b3-608a-4341-94f3-f68cf6b5e9e5",
        "meta": {
          "profile": [
            "http://hl7.eu/fhir/laboratory/StructureDefinition/Observation-resultslab-eu-lab"
          ]
        },
        "performer": [
          {
            "display": "The Central European Lab"
          }
        ],
        "category": [
          {
            "coding": [
              {
                "system": "http://terminology.hl7.org/CodeSystem/observation-category",
                "code": "laboratory"
              }
            ]
          }
        ],
        "code": {
          "coding": [
            {
              "code": "2951-2",
              "system": "http://loinc.org",
              "display": "Sodium [Moles/volume] in Serum or Plasma"
            }
          ],
          "text": "Sodium [Moles/volume] in Serum or Plasma"
        },
        "valueQuantity": {
          "system": "http://unitsofmeasure.org",
          "value": 139.3,
          "unit": "mmol/L",
          "code": "mmol/L"
        },
        "referenceRange": [
          {
            "low": {
              "value": 135,
              "code": "mmol/L",
              "system": "http://unitsofmeasure.org"
            }
          },
          {
            "high": {
              "value": 145,
              "code": "mmol/L",
              "system": "http://unitsofmeasure.org"
            }
          }
        ],
        "text": {
          "status": "generated",
          "div": "<div xmlns=\"http://www.w3.org/1999/xhtml\"><table class=\"hl7__eu__lab__report\"><tr><th>Test</th><th>21-Apr-2023</th><th>Reference&#xA0;Range</th><th>Unit</th></tr><tr><td>Sodium [Moles/volume] in Serum or Plasma</td><td>139.3</td><td>135 - 145</td><td></td><td>mmol/L</td></tr></table></div>"
        },
        "status": "final",
        "subject": {
          "reference": "urn:uuid:eaa80e57-0ab1-463d-999a-ac3d48298d41",
          "display": "Victor Lagarde"
        },
        "effectiveDateTime": "2023-04-21T04:48:18Z",
        "specimen": {
          "reference": "urn:uuid:7c8bc808-a3e9-432a-bdf9-cf7dcb2f6849"
        }
      }
    },
    {
      "fullUrl": "urn:uuid:b1c01863-0a1c-4585-a269-5de425c4795e",
      "resource": {
        "resourceType": "Observation",
        "id": "b1c01863-0a1c-4585-a269-5de425c4795e",
        "meta": {
          "profile": [
            "http://hl7.eu/fhir/laboratory/StructureDefinition/Observation-resultslab-eu-lab"
          ]
        },
        "performer": [
          {
            "display": "The Central European Lab"
          }
        ],
        "category": [
          {
            "coding": [
              {
                "system": "http://terminology.hl7.org/CodeSystem/observation-category",
                "code": "laboratory"
              }
            ]
          }
        ],
        "code": {
          "coding": [
            {
              "code": "2823-3",
              "system": "http://loinc.org",
              "display": "Potassium [Moles/volume] in Serum or Plasma"
            }
          ],
          "text": "Potassium [Moles/volume] in Serum or Plasma"
        },
        "valueQuantity": {
          "system": "http://unitsofmeasure.org",
          "value": 4.3,
          "unit": "mmol/L",
          "code": "mmol/L"
        },
        "referenceRange": [
          {
            "low": {
              "value": 3.5,
              "code": "mmol/L",
              "system": "http://unitsofmeasure.org"
            }
          },
          {
            "high": {
              "value": 5.3,
              "code": "mmol/L",
              "system": "http://unitsofmeasure.org"
            }
          }
        ],
        "text": {
          "status": "generated",
          "div": "<div xmlns=\"http://www.w3.org/1999/xhtml\"><table class=\"hl7__eu__lab__report\"><tr><th>Test</th><th>21-Apr-2023</th><th>Reference&#xA0;Range</th><th>Unit</th></tr><tr><td>Potassium [Moles/volume] in Serum or Plasma</td><td>4.3</td><td>3.5 - 5.3</td><td></td><td>mmol/L</td></tr></table></div>"
        },
        "status": "final",
        "subject": {
          "reference": "urn:uuid:eaa80e57-0ab1-463d-999a-ac3d48298d41",
          "display": "Victor Lagarde"
        },
        "effectiveDateTime": "2023-04-21T04:48:18Z",
        "specimen": {
          "reference": "urn:uuid:7c8bc808-a3e9-432a-bdf9-cf7dcb2f6849"
        }
      }
    },
    {
      "fullUrl": "urn:uuid:9fd55e9c-6ae2-4b44-a37c-f88ed014f953",
      "resource": {
        "resourceType": "Observation",
        "id": "9fd55e9c-6ae2-4b44-a37c-f88ed014f953",
        "meta": {
          "profile": [
            "http://hl7.eu/fhir/laboratory/StructureDefinition/Observation-resultslab-eu-lab"
          ]
        },
        "performer": [
          {
            "display": "The Central European Lab"
          }
        ],
        "category": [
          {
            "coding": [
              {
                "system": "http://terminology.hl7.org/CodeSystem/observation-category",
                "code": "laboratory"
              }
            ]
          }
        ],
        "code": {
          "coding": [
            {
              "code": "2075-0",
              "system": "http://loinc.org",
              "display": "Chloride [Moles/volume] in Serum or Plasma"
            }
          ],
          "text": "Chloride [Moles/volume] in Serum or Plasma"
        },
        "valueQuantity": {
          "system": "http://unitsofmeasure.org",
          "value": 107.8,
          "unit": "mmol/L",
          "code": "mmol/L"
        },
        "referenceRange": [
          {
            "low": {
              "value": 98,
              "code": "mmol/L",
              "system": "http://unitsofmeasure.org"
            }
          },
          {
            "high": {
              "value": 107,
              "code": "mmol/L",
              "system": "http://unitsofmeasure.org"
            }
          }
        ],
        "interpretation": [
          {
            "coding": [
              {
                "code": "H",
                "system": "http://terminology.hl7.org/CodeSystem/v3-ObservationInterpretation",
                "display": "High"
              }
            ]
          }
        ],
        "text": {
          "status": "generated",
          "div": "<div xmlns=\"http://www.w3.org/1999/xhtml\"><table class=\"hl7__eu__lab__report\"><tr><th>Test</th><th>21-Apr-2023</th><th>Reference&#xA0;Range</th><th>Unit</th></tr><tr><td>Chloride [Moles/volume] in Serum or Plasma</td><td>107.8</td><td>98 - 107</td><td>H</td><td>mmol/L</td></tr></table></div>"
        },
        "status": "final",
        "subject": {
          "reference": "urn:uuid:eaa80e57-0ab1-463d-999a-ac3d48298d41",
          "display": "Victor Lagarde"
        },
        "effectiveDateTime": "2023-04-21T04:48:18Z",
        "specimen": {
          "reference": "urn:uuid:7c8bc808-a3e9-432a-bdf9-cf7dcb2f6849"
        }
      }
    },
    {
      "fullUrl": "urn:uuid:4c2111d1-0860-4bf8-bcd5-3238ca6e4f1b",
      "resource": {
        "resourceType": "Observation",
        "id": "4c2111d1-0860-4bf8-bcd5-3238ca6e4f1b",
        "meta": {
          "profile": [
            "http://hl7.eu/fhir/laboratory/StructureDefinition/Observation-resultslab-eu-lab"
          ]
        },
        "performer": [
          {
            "display": "The Central European Lab"
          }
        ],
        "category": [
          {
            "coding": [
              {
                "system": "http://terminology.hl7.org/CodeSystem/observation-category",
                "code": "laboratory"
              }
            ]
          }
        ],
        "code": {
          "coding": [
            {
              "code": "2028-9",
              "system": "http://loinc.org",
              "display": "Carbon dioxide, total [Moles/volume] in Serum or Plasma"
            }
          ],
          "text": "Carbon dioxide, total [Moles/volume] in Serum or Plasma"
        },
        "valueQuantity": {
          "system": "http://unitsofmeasure.org",
          "value": 22.1,
          "unit": "mmol/L",
          "code": "mmol/L"
        },
        "referenceRange": [
          {
            "low": {
              "value": 22,
              "code": "mmol/L",
              "system": "http://unitsofmeasure.org"
            }
          },
          {
            "high": {
              "value": 33,
              "code": "mmol/L",
              "system": "http://unitsofmeasure.org"
            }
          }
        ],
        "text": {
          "status": "generated",
          "div": "<div xmlns=\"http://www.w3.org/1999/xhtml\"><table class=\"hl7__eu__lab__report\"><tr><th>Test</th><th>21-Apr-2023</th><th>Reference&#xA0;Range</th><th>Unit</th></tr><tr><td>Carbon dioxide, total [Moles/volume] in Serum or Plasma</td><td>22.1</td><td>22 - 33</td><td></td><td>mmol/L</td></tr></table></div>"
        },
        "status": "final",
        "subject": {
          "reference": "urn:uuid:eaa80e57-0ab1-463d-999a-ac3d48298d41",
          "display": "Victor Lagarde"
        },
        "effectiveDateTime": "2023-04-21T04:48:18Z",
        "specimen": {
          "reference": "urn:uuid:7c8bc808-a3e9-432a-bdf9-cf7dcb2f6849"
        }
      }
    },
    {
      "fullUrl": "urn:uuid:e7f3e28c-7042-43b5-8457-8e9d1cc4770b",
      "resource": {
        "resourceType": "Observation",
        "id": "e7f3e28c-7042-43b5-8457-8e9d1cc4770b",
        "meta": {
          "profile": [
            "http://hl7.eu/fhir/laboratory/StructureDefinition/Observation-resultslab-eu-lab"
          ]
        },
        "performer": [
          {
            "display": "The Central European Lab"
          }
        ],
        "category": [
          {
            "coding": [
              {
                "system": "http://terminology.hl7.org/CodeSystem/observation-category",
                "code": "laboratory"
              }
            ]
          }
        ],
        "code": {
          "coding": [
            {
              "code": "5767-9",
              "system": "http://loinc.org",
              "display": "Appearance of Urine"
            }
          ],
          "text": "Appearance of Urine"
        },
        "text": {
          "status": "generated",
          "div": "<div xmlns=\"http://www.w3.org/1999/xhtml\"><table class=\"hl7__eu__lab__report\"><tr><th>Test</th><th>21-Apr-2023</th><th>Reference&#xA0;Range</th><th>Unit</th></tr><tr><td>Appearance of Urine</td></tr></table></div>"
        },
        "status": "final",
        "subject": {
          "reference": "urn:uuid:eaa80e57-0ab1-463d-999a-ac3d48298d41",
          "display": "Victor Lagarde"
        },
        "effectiveDateTime": "2023-04-21T04:48:18Z",
        "specimen": {
          "reference": "urn:uuid:13d1db98-6e49-47c1-9723-add5f336f4e0"
        }
      }
    },
    {
      "fullUrl": "urn:uuid:10da6fe8-4bb5-4c63-8261-1791a7e9e365",
      "resource": {
        "resourceType": "Observation",
        "id": "10da6fe8-4bb5-4c63-8261-1791a7e9e365",
        "meta": {
          "profile": [
            "http://hl7.eu/fhir/laboratory/StructureDefinition/Observation-resultslab-eu-lab"
          ]
        },
        "performer": [
          {
            "display": "The Central European Lab"
          }
        ],
        "category": [
          {
            "coding": [
              {
                "system": "http://terminology.hl7.org/CodeSystem/observation-category",
                "code": "laboratory"
              }
            ]
          }
        ],
        "code": {
          "coding": [
            {
              "code": "34533-0",
              "system": "http://loinc.org",
              "display": "Odor of Urine"
            }
          ],
          "text": "Odor of Urine"
        },
        "text": {
          "status": "generated",
          "div": "<div xmlns=\"http://www.w3.org/1999/xhtml\"><table class=\"hl7__eu__lab__report\"><tr><th>Test</th><th>21-Apr-2023</th><th>Reference&#xA0;Range</th><th>Unit</th></tr><tr><td>Odor of Urine</td></tr></table></div>"
        },
        "status": "final",
        "subject": {
          "reference": "urn:uuid:eaa80e57-0ab1-463d-999a-ac3d48298d41",
          "display": "Victor Lagarde"
        },
        "effectiveDateTime": "2023-04-21T04:48:18Z",
        "specimen": {
          "reference": "urn:uuid:13d1db98-6e49-47c1-9723-add5f336f4e0"
        }
      }
    },
    {
      "fullUrl": "urn:uuid:0bcd1c6a-5dc4-40fa-b75b-6e6bd2e6f494",
      "resource": {
        "resourceType": "Observation",
        "id": "0bcd1c6a-5dc4-40fa-b75b-6e6bd2e6f494",
        "meta": {
          "profile": [
            "http://hl7.eu/fhir/laboratory/StructureDefinition/Observation-resultslab-eu-lab"
          ]
        },
        "performer": [
          {
            "display": "The Central European Lab"
          }
        ],
        "category": [
          {
            "coding": [
              {
                "system": "http://terminology.hl7.org/CodeSystem/observation-category",
                "code": "laboratory"
              }
            ]
          }
        ],
        "code": {
          "coding": [
            {
              "code": "32167-9",
              "system": "http://loinc.org",
              "display": "Clarity of Urine"
            }
          ],
          "text": "Clarity of Urine"
        },
        "text": {
          "status": "generated",
          "div": "<div xmlns=\"http://www.w3.org/1999/xhtml\"><table class=\"hl7__eu__lab__report\"><tr><th>Test</th><th>21-Apr-2023</th><th>Reference&#xA0;Range</th><th>Unit</th></tr><tr><td>Clarity of Urine</td></tr></table></div>"
        },
        "status": "final",
        "subject": {
          "reference": "urn:uuid:eaa80e57-0ab1-463d-999a-ac3d48298d41",
          "display": "Victor Lagarde"
        },
        "effectiveDateTime": "2023-04-21T04:48:18Z",
        "specimen": {
          "reference": "urn:uuid:13d1db98-6e49-47c1-9723-add5f336f4e0"
        }
      }
    },
    {
      "fullUrl": "urn:uuid:319c96eb-c9ce-4cb8-b3e4-c07bd6bd4410",
      "resource": {
        "resourceType": "Observation",
        "id": "319c96eb-c9ce-4cb8-b3e4-c07bd6bd4410",
        "meta": {
          "profile": [
            "http://hl7.eu/fhir/laboratory/StructureDefinition/Observation-resultslab-eu-lab"
          ]
        },
        "performer": [
          {
            "display": "The Central European Lab"
          }
        ],
        "category": [
          {
            "coding": [
              {
                "system": "http://terminology.hl7.org/CodeSystem/observation-category",
                "code": "laboratory"
              }
            ]
          }
        ],
        "code": {
          "coding": [
            {
              "code": "5778-6",
              "system": "http://loinc.org",
              "display": "Color of Urine"
            }
          ],
          "text": "Color of Urine"
        },
        "text": {
          "status": "generated",
          "div": "<div xmlns=\"http://www.w3.org/1999/xhtml\"><table class=\"hl7__eu__lab__report\"><tr><th>Test</th><th>21-Apr-2023</th><th>Reference&#xA0;Range</th><th>Unit</th></tr><tr><td>Color of Urine</td></tr></table></div>"
        },
        "status": "final",
        "subject": {
          "reference": "urn:uuid:eaa80e57-0ab1-463d-999a-ac3d48298d41",
          "display": "Victor Lagarde"
        },
        "effectiveDateTime": "2023-04-21T04:48:18Z",
        "specimen": {
          "reference": "urn:uuid:13d1db98-6e49-47c1-9723-add5f336f4e0"
        }
      }
    },
    {
      "fullUrl": "urn:uuid:43c8a8f9-8a95-47f0-b24d-072964d775f3",
      "resource": {
        "resourceType": "Observation",
        "id": "43c8a8f9-8a95-47f0-b24d-072964d775f3",
        "meta": {
          "profile": [
            "http://hl7.eu/fhir/laboratory/StructureDefinition/Observation-resultslab-eu-lab"
          ]
        },
        "performer": [
          {
            "display": "The Central European Lab"
          }
        ],
        "category": [
          {
            "coding": [
              {
                "system": "http://terminology.hl7.org/CodeSystem/observation-category",
                "code": "laboratory"
              }
            ]
          }
        ],
        "code": {
          "coding": [
            {
              "code": "5792-7",
              "system": "http://loinc.org",
              "display": "Glucose [Mass/volume] in Urine by Test strip"
            }
          ],
          "text": "Glucose [Mass/volume] in Urine by Test strip"
        },
        "valueQuantity": {
          "system": "http://unitsofmeasure.org",
          "value": 1.3,
          "unit": "mg/dL",
          "code": "mg/dL"
        },
        "referenceRange": [
          {
            "low": {
              "value": 0,
              "code": "mg/dL",
              "system": "http://unitsofmeasure.org"
            }
          },
          {
            "high": {
              "value": 0.8,
              "code": "mg/dL",
              "system": "http://unitsofmeasure.org"
            }
          }
        ],
        "interpretation": [
          {
            "coding": [
              {
                "code": "H",
                "system": "http://terminology.hl7.org/CodeSystem/v3-ObservationInterpretation",
                "display": "High"
              }
            ]
          }
        ],
        "text": {
          "status": "generated",
          "div": "<div xmlns=\"http://www.w3.org/1999/xhtml\"><table class=\"hl7__eu__lab__report\"><tr><th>Test</th><th>21-Apr-2023</th><th>Reference&#xA0;Range</th><th>Unit</th></tr><tr><td>Glucose [Mass/volume] in Urine by Test strip</td><td>1.3</td><td>0 - 0.8</td><td>H</td><td>mg/dL</td></tr></table></div>"
        },
        "status": "final",
        "subject": {
          "reference": "urn:uuid:eaa80e57-0ab1-463d-999a-ac3d48298d41",
          "display": "Victor Lagarde"
        },
        "effectiveDateTime": "2023-04-21T04:48:18Z",
        "specimen": {
          "reference": "urn:uuid:13d1db98-6e49-47c1-9723-add5f336f4e0"
        }
      }
    },
    {
      "fullUrl": "urn:uuid:55dfc045-31cd-43b8-a5ec-fd3e78720e62",
      "resource": {
        "resourceType": "Observation",
        "id": "55dfc045-31cd-43b8-a5ec-fd3e78720e62",
        "meta": {
          "profile": [
            "http://hl7.eu/fhir/laboratory/StructureDefinition/Observation-resultslab-eu-lab"
          ]
        },
        "performer": [
          {
            "display": "The Central European Lab"
          }
        ],
        "category": [
          {
            "coding": [
              {
                "system": "http://terminology.hl7.org/CodeSystem/observation-category",
                "code": "laboratory"
              }
            ]
          }
        ],
        "code": {
          "coding": [
            {
              "code": "25428-4",
              "system": "http://loinc.org",
              "display": "Glucose [Presence] in Urine by Test strip"
            }
          ],
          "text": "Glucose [Presence] in Urine by Test strip"
        },
        "text": {
          "status": "generated",
          "div": "<div xmlns=\"http://www.w3.org/1999/xhtml\"><table class=\"hl7__eu__lab__report\"><tr><th>Test</th><th>21-Apr-2023</th><th>Reference&#xA0;Range</th><th>Unit</th></tr><tr><td>Glucose [Presence] in Urine by Test strip</td></tr></table></div>"
        },
        "status": "final",
        "subject": {
          "reference": "urn:uuid:eaa80e57-0ab1-463d-999a-ac3d48298d41",
          "display": "Victor Lagarde"
        },
        "effectiveDateTime": "2023-04-21T04:48:18Z",
        "specimen": {
          "reference": "urn:uuid:13d1db98-6e49-47c1-9723-add5f336f4e0"
        }
      }
    },
    {
      "fullUrl": "urn:uuid:5c10b64b-56c3-4e3a-88c7-7c2816442974",
      "resource": {
        "resourceType": "Observation",
        "id": "5c10b64b-56c3-4e3a-88c7-7c2816442974",
        "meta": {
          "profile": [
            "http://hl7.eu/fhir/laboratory/StructureDefinition/Observation-resultslab-eu-lab"
          ]
        },
        "performer": [
          {
            "display": "The Central European Lab"
          }
        ],
        "category": [
          {
            "coding": [
              {
                "system": "http://terminology.hl7.org/CodeSystem/observation-category",
                "code": "laboratory"
              }
            ]
          }
        ],
        "code": {
          "coding": [
            {
              "code": "20505-4",
              "system": "http://loinc.org",
              "display": "Bilirubin.total [Mass/volume] in Urine by Test strip"
            }
          ],
          "text": "Bilirubin.total [Mass/volume] in Urine by Test strip"
        },
        "valueQuantity": {
          "system": "http://unitsofmeasure.org",
          "value": 0.5,
          "unit": "mg/dL",
          "code": "mg/dL"
        },
        "referenceRange": [
          {
            "low": {
              "value": 0,
              "code": "mg/dL",
              "system": "http://unitsofmeasure.org"
            }
          },
          {
            "high": {
              "value": 1.9,
              "code": "mg/dL",
              "system": "http://unitsofmeasure.org"
            }
          }
        ],
        "text": {
          "status": "generated",
          "div": "<div xmlns=\"http://www.w3.org/1999/xhtml\"><table class=\"hl7__eu__lab__report\"><tr><th>Test</th><th>21-Apr-2023</th><th>Reference&#xA0;Range</th><th>Unit</th></tr><tr><td>Bilirubin.total [Mass/volume] in Urine by Test strip</td><td>0.5</td><td>0 - 1.9</td><td></td><td>mg/dL</td></tr></table></div>"
        },
        "status": "final",
        "subject": {
          "reference": "urn:uuid:eaa80e57-0ab1-463d-999a-ac3d48298d41",
          "display": "Victor Lagarde"
        },
        "effectiveDateTime": "2023-04-21T04:48:18Z",
        "specimen": {
          "reference": "urn:uuid:13d1db98-6e49-47c1-9723-add5f336f4e0"
        }
      }
    },
    {
      "fullUrl": "urn:uuid:c1c10efa-2dcb-4e85-8557-c841ce36fed3",
      "resource": {
        "resourceType": "Observation",
        "id": "c1c10efa-2dcb-4e85-8557-c841ce36fed3",
        "meta": {
          "profile": [
            "http://hl7.eu/fhir/laboratory/StructureDefinition/Observation-resultslab-eu-lab"
          ]
        },
        "performer": [
          {
            "display": "The Central European Lab"
          }
        ],
        "category": [
          {
            "coding": [
              {
                "system": "http://terminology.hl7.org/CodeSystem/observation-category",
                "code": "laboratory"
              }
            ]
          }
        ],
        "code": {
          "coding": [
            {
              "code": "5770-3",
              "system": "http://loinc.org",
              "display": "Bilirubin.total [Presence] in Urine by Test strip"
            }
          ],
          "text": "Bilirubin.total [Presence] in Urine by Test strip"
        },
        "text": {
          "status": "generated",
          "div": "<div xmlns=\"http://www.w3.org/1999/xhtml\"><table class=\"hl7__eu__lab__report\"><tr><th>Test</th><th>21-Apr-2023</th><th>Reference&#xA0;Range</th><th>Unit</th></tr><tr><td>Bilirubin.total [Presence] in Urine by Test strip</td></tr></table></div>"
        },
        "status": "final",
        "subject": {
          "reference": "urn:uuid:eaa80e57-0ab1-463d-999a-ac3d48298d41",
          "display": "Victor Lagarde"
        },
        "effectiveDateTime": "2023-04-21T04:48:18Z",
        "specimen": {
          "reference": "urn:uuid:13d1db98-6e49-47c1-9723-add5f336f4e0"
        }
      }
    },
    {
      "fullUrl": "urn:uuid:a6224714-2fc9-477d-9095-0ea34d434344",
      "resource": {
        "resourceType": "Observation",
        "id": "a6224714-2fc9-477d-9095-0ea34d434344",
        "meta": {
          "profile": [
            "http://hl7.eu/fhir/laboratory/StructureDefinition/Observation-resultslab-eu-lab"
          ]
        },
        "performer": [
          {
            "display": "The Central European Lab"
          }
        ],
        "category": [
          {
            "coding": [
              {
                "system": "http://terminology.hl7.org/CodeSystem/observation-category",
                "code": "laboratory"
              }
            ]
          }
        ],
        "code": {
          "coding": [
            {
              "code": "5797-6",
              "system": "http://loinc.org",
              "display": "Ketones [Mass/volume] in Urine by Test strip"
            }
          ],
          "text": "Ketones [Mass/volume] in Urine by Test strip"
        },
        "valueQuantity": {
          "system": "http://unitsofmeasure.org",
          "value": 15.5,
          "unit": "mg/dL",
          "code": "mg/dL"
        },
        "referenceRange": [
          {
            "low": {
              "value": 0,
              "code": "mg/dL",
              "system": "http://unitsofmeasure.org"
            }
          },
          {
            "high": {
              "value": 3,
              "code": "mg/dL",
              "system": "http://unitsofmeasure.org"
            }
          }
        ],
        "interpretation": [
          {
            "coding": [
              {
                "code": "H",
                "system": "http://terminology.hl7.org/CodeSystem/v3-ObservationInterpretation",
                "display": "High"
              }
            ]
          }
        ],
        "text": {
          "status": "generated",
          "div": "<div xmlns=\"http://www.w3.org/1999/xhtml\"><table class=\"hl7__eu__lab__report\"><tr><th>Test</th><th>21-Apr-2023</th><th>Reference&#xA0;Range</th><th>Unit</th></tr><tr><td>Ketones [Mass/volume] in Urine by Test strip</td><td>15.5</td><td>0 - 3</td><td>H</td><td>mg/dL</td></tr></table></div>"
        },
        "status": "final",
        "subject": {
          "reference": "urn:uuid:eaa80e57-0ab1-463d-999a-ac3d48298d41",
          "display": "Victor Lagarde"
        },
        "effectiveDateTime": "2023-04-21T04:48:18Z",
        "specimen": {
          "reference": "urn:uuid:13d1db98-6e49-47c1-9723-add5f336f4e0"
        }
      }
    },
    {
      "fullUrl": "urn:uuid:617129e5-58e8-4799-b065-d8303ea557a7",
      "resource": {
        "resourceType": "Observation",
        "id": "617129e5-58e8-4799-b065-d8303ea557a7",
        "meta": {
          "profile": [
            "http://hl7.eu/fhir/laboratory/StructureDefinition/Observation-resultslab-eu-lab"
          ]
        },
        "performer": [
          {
            "display": "The Central European Lab"
          }
        ],
        "category": [
          {
            "coding": [
              {
                "system": "http://terminology.hl7.org/CodeSystem/observation-category",
                "code": "laboratory"
              }
            ]
          }
        ],
        "code": {
          "coding": [
            {
              "code": "2514-8",
              "system": "http://loinc.org",
              "display": "Ketones [Presence] in Urine by Test strip"
            }
          ],
          "text": "Ketones [Presence] in Urine by Test strip"
        },
        "text": {
          "status": "generated",
          "div": "<div xmlns=\"http://www.w3.org/1999/xhtml\"><table class=\"hl7__eu__lab__report\"><tr><th>Test</th><th>21-Apr-2023</th><th>Reference&#xA0;Range</th><th>Unit</th></tr><tr><td>Ketones [Presence] in Urine by Test strip</td></tr></table></div>"
        },
        "status": "final",
        "subject": {
          "reference": "urn:uuid:eaa80e57-0ab1-463d-999a-ac3d48298d41",
          "display": "Victor Lagarde"
        },
        "effectiveDateTime": "2023-04-21T04:48:18Z",
        "specimen": {
          "reference": "urn:uuid:13d1db98-6e49-47c1-9723-add5f336f4e0"
        }
      }
    },
    {
      "fullUrl": "urn:uuid:610d3658-b0fe-46ea-b591-b31d437d9278",
      "resource": {
        "resourceType": "Observation",
        "id": "610d3658-b0fe-46ea-b591-b31d437d9278",
        "meta": {
          "profile": [
            "http://hl7.eu/fhir/laboratory/StructureDefinition/Observation-resultslab-eu-lab"
          ]
        },
        "performer": [
          {
            "display": "The Central European Lab"
          }
        ],
        "category": [
          {
            "coding": [
              {
                "system": "http://terminology.hl7.org/CodeSystem/observation-category",
                "code": "laboratory"
              }
            ]
          }
        ],
        "code": {
          "coding": [
            {
              "code": "5811-5",
              "system": "http://loinc.org",
              "display": "Specific gravity of Urine by Test strip"
            }
          ],
          "text": "Specific gravity of Urine by Test strip"
        },
        "valueQuantity": {
          "system": "http://unitsofmeasure.org",
          "value": 1,
          "unit": "{nominal}",
          "code": "{nominal}"
        },
        "referenceRange": [
          {
            "low": {
              "value": 1.01,
              "code": "g/mL",
              "system": "http://unitsofmeasure.org"
            }
          },
          {
            "high": {
              "value": 1.03,
              "code": "g/mL",
              "system": "http://unitsofmeasure.org"
            }
          }
        ],
        "interpretation": [
          {
            "coding": [
              {
                "code": "L",
                "system": "http://terminology.hl7.org/CodeSystem/v3-ObservationInterpretation",
                "display": "Low"
              }
            ]
          }
        ],
        "text": {
          "status": "generated",
          "div": "<div xmlns=\"http://www.w3.org/1999/xhtml\"><table class=\"hl7__eu__lab__report\"><tr><th>Test</th><th>21-Apr-2023</th><th>Reference&#xA0;Range</th><th>Unit</th></tr><tr><td>Specific gravity of Urine by Test strip</td><td>1.0</td><td>1.01 - 1.03</td><td>L</td><td>{nominal}</td></tr></table></div>"
        },
        "status": "final",
        "subject": {
          "reference": "urn:uuid:eaa80e57-0ab1-463d-999a-ac3d48298d41",
          "display": "Victor Lagarde"
        },
        "effectiveDateTime": "2023-04-21T04:48:18Z",
        "specimen": {
          "reference": "urn:uuid:13d1db98-6e49-47c1-9723-add5f336f4e0"
        }
      }
    },
    {
      "fullUrl": "urn:uuid:4f337a29-eb2a-4f95-9e41-460d799e3179",
      "resource": {
        "resourceType": "Observation",
        "id": "4f337a29-eb2a-4f95-9e41-460d799e3179",
        "meta": {
          "profile": [
            "http://hl7.eu/fhir/laboratory/StructureDefinition/Observation-resultslab-eu-lab"
          ]
        },
        "performer": [
          {
            "display": "The Central European Lab"
          }
        ],
        "category": [
          {
            "coding": [
              {
                "system": "http://terminology.hl7.org/CodeSystem/observation-category",
                "code": "laboratory"
              }
            ]
          }
        ],
        "code": {
          "coding": [
            {
              "code": "5803-2",
              "system": "http://loinc.org",
              "display": "pH of Urine by Test strip"
            }
          ],
          "text": "pH of Urine by Test strip"
        },
        "valueQuantity": {
          "system": "http://unitsofmeasure.org",
          "value": 5.9,
          "unit": "pH",
          "code": "pH"
        },
        "referenceRange": [
          {
            "low": {
              "value": 4.5,
              "code": "pH",
              "system": "http://unitsofmeasure.org"
            }
          },
          {
            "high": {
              "value": 7.5,
              "code": "pH",
              "system": "http://unitsofmeasure.org"
            }
          }
        ],
        "text": {
          "status": "generated",
          "div": "<div xmlns=\"http://www.w3.org/1999/xhtml\"><table class=\"hl7__eu__lab__report\"><tr><th>Test</th><th>21-Apr-2023</th><th>Reference&#xA0;Range</th><th>Unit</th></tr><tr><td>pH of Urine by Test strip</td><td>5.9</td><td>4.5 - 7.5</td><td></td><td>pH</td></tr></table></div>"
        },
        "status": "final",
        "subject": {
          "reference": "urn:uuid:eaa80e57-0ab1-463d-999a-ac3d48298d41",
          "display": "Victor Lagarde"
        },
        "effectiveDateTime": "2023-04-21T04:48:18Z",
        "specimen": {
          "reference": "urn:uuid:13d1db98-6e49-47c1-9723-add5f336f4e0"
        }
      }
    },
    {
      "fullUrl": "urn:uuid:57f7d405-fa3c-4eb0-8bb0-64ec31e378a4",
      "resource": {
        "resourceType": "Observation",
        "id": "57f7d405-fa3c-4eb0-8bb0-64ec31e378a4",
        "meta": {
          "profile": [
            "http://hl7.eu/fhir/laboratory/StructureDefinition/Observation-resultslab-eu-lab"
          ]
        },
        "performer": [
          {
            "display": "The Central European Lab"
          }
        ],
        "category": [
          {
            "coding": [
              {
                "system": "http://terminology.hl7.org/CodeSystem/observation-category",
                "code": "laboratory"
              }
            ]
          }
        ],
        "code": {
          "coding": [
            {
              "code": "5804-0",
              "system": "http://loinc.org",
              "display": "Protein [Mass/volume] in Urine by Test strip"
            }
          ],
          "text": "Protein [Mass/volume] in Urine by Test strip"
        },
        "valueQuantity": {
          "system": "http://unitsofmeasure.org",
          "value": 216.5,
          "unit": "mg/dL",
          "code": "mg/dL"
        },
        "referenceRange": [
          {
            "low": {
              "value": 0,
              "code": "mg/dL",
              "system": "http://unitsofmeasure.org"
            }
          },
          {
            "high": {
              "value": 149,
              "code": "mg/dL",
              "system": "http://unitsofmeasure.org"
            }
          }
        ],
        "interpretation": [
          {
            "coding": [
              {
                "code": "H",
                "system": "http://terminology.hl7.org/CodeSystem/v3-ObservationInterpretation",
                "display": "High"
              }
            ]
          }
        ],
        "text": {
          "status": "generated",
          "div": "<div xmlns=\"http://www.w3.org/1999/xhtml\"><table class=\"hl7__eu__lab__report\"><tr><th>Test</th><th>21-Apr-2023</th><th>Reference&#xA0;Range</th><th>Unit</th></tr><tr><td>Protein [Mass/volume] in Urine by Test strip</td><td>216.5</td><td>0 - 149</td><td>H</td><td>mg/dL</td></tr></table></div>"
        },
        "status": "final",
        "subject": {
          "reference": "urn:uuid:eaa80e57-0ab1-463d-999a-ac3d48298d41",
          "display": "Victor Lagarde"
        },
        "effectiveDateTime": "2023-04-21T04:48:18Z",
        "specimen": {
          "reference": "urn:uuid:13d1db98-6e49-47c1-9723-add5f336f4e0"
        }
      }
    },
    {
      "fullUrl": "urn:uuid:8fa88236-da90-4105-a68b-cb9eb698b6a8",
      "resource": {
        "resourceType": "Observation",
        "id": "8fa88236-da90-4105-a68b-cb9eb698b6a8",
        "meta": {
          "profile": [
            "http://hl7.eu/fhir/laboratory/StructureDefinition/Observation-resultslab-eu-lab"
          ]
        },
        "performer": [
          {
            "display": "The Central European Lab"
          }
        ],
        "category": [
          {
            "coding": [
              {
                "system": "http://terminology.hl7.org/CodeSystem/observation-category",
                "code": "laboratory"
              }
            ]
          }
        ],
        "code": {
          "coding": [
            {
              "code": "20454-5",
              "system": "http://loinc.org",
              "display": "Protein [Presence] in Urine by Test strip"
            }
          ],
          "text": "Protein [Presence] in Urine by Test strip"
        },
        "text": {
          "status": "generated",
          "div": "<div xmlns=\"http://www.w3.org/1999/xhtml\"><table class=\"hl7__eu__lab__report\"><tr><th>Test</th><th>21-Apr-2023</th><th>Reference&#xA0;Range</th><th>Unit</th></tr><tr><td>Protein [Presence] in Urine by Test strip</td></tr></table></div>"
        },
        "status": "final",
        "subject": {
          "reference": "urn:uuid:eaa80e57-0ab1-463d-999a-ac3d48298d41",
          "display": "Victor Lagarde"
        },
        "effectiveDateTime": "2023-04-21T04:48:18Z",
        "specimen": {
          "reference": "urn:uuid:13d1db98-6e49-47c1-9723-add5f336f4e0"
        }
      }
    },
    {
      "fullUrl": "urn:uuid:2e82defc-2f1e-4567-9d60-b97682573be2",
      "resource": {
        "resourceType": "Observation",
        "id": "2e82defc-2f1e-4567-9d60-b97682573be2",
        "meta": {
          "profile": [
            "http://hl7.eu/fhir/laboratory/StructureDefinition/Observation-resultslab-eu-lab"
          ]
        },
        "performer": [
          {
            "display": "The Central European Lab"
          }
        ],
        "category": [
          {
            "coding": [
              {
                "system": "http://terminology.hl7.org/CodeSystem/observation-category",
                "code": "laboratory"
              }
            ]
          }
        ],
        "code": {
          "coding": [
            {
              "code": "5802-4",
              "system": "http://loinc.org",
              "display": "Nitrite [Presence] in Urine by Test strip"
            }
          ],
          "text": "Nitrite [Presence] in Urine by Test strip"
        },
        "text": {
          "status": "generated",
          "div": "<div xmlns=\"http://www.w3.org/1999/xhtml\"><table class=\"hl7__eu__lab__report\"><tr><th>Test</th><th>21-Apr-2023</th><th>Reference&#xA0;Range</th><th>Unit</th></tr><tr><td>Nitrite [Presence] in Urine by Test strip</td></tr></table></div>"
        },
        "status": "final",
        "subject": {
          "reference": "urn:uuid:eaa80e57-0ab1-463d-999a-ac3d48298d41",
          "display": "Victor Lagarde"
        },
        "effectiveDateTime": "2023-04-21T04:48:18Z",
        "specimen": {
          "reference": "urn:uuid:13d1db98-6e49-47c1-9723-add5f336f4e0"
        }
      }
    },
    {
      "fullUrl": "urn:uuid:88ad8cbc-f3cc-4eb3-a32d-7542ecd32557",
      "resource": {
        "resourceType": "Observation",
        "id": "88ad8cbc-f3cc-4eb3-a32d-7542ecd32557",
        "meta": {
          "profile": [
            "http://hl7.eu/fhir/laboratory/StructureDefinition/Observation-resultslab-eu-lab"
          ]
        },
        "performer": [
          {
            "display": "The Central European Lab"
          }
        ],
        "category": [
          {
            "coding": [
              {
                "system": "http://terminology.hl7.org/CodeSystem/observation-category",
                "code": "laboratory"
              }
            ]
          }
        ],
        "code": {
          "coding": [
            {
              "code": "5794-3",
              "system": "http://loinc.org",
              "display": "Hemoglobin [Presence] in Urine by Test strip"
            }
          ],
          "text": "Hemoglobin [Presence] in Urine by Test strip"
        },
        "text": {
          "status": "generated",
          "div": "<div xmlns=\"http://www.w3.org/1999/xhtml\"><table class=\"hl7__eu__lab__report\"><tr><th>Test</th><th>21-Apr-2023</th><th>Reference&#xA0;Range</th><th>Unit</th></tr><tr><td>Hemoglobin [Presence] in Urine by Test strip</td></tr></table></div>"
        },
        "status": "final",
        "subject": {
          "reference": "urn:uuid:eaa80e57-0ab1-463d-999a-ac3d48298d41",
          "display": "Victor Lagarde"
        },
        "effectiveDateTime": "2023-04-21T04:48:18Z",
        "specimen": {
          "reference": "urn:uuid:13d1db98-6e49-47c1-9723-add5f336f4e0"
        }
      }
    },
    {
      "fullUrl": "urn:uuid:671b176b-5071-4b95-b697-5300adf448ba",
      "resource": {
        "resourceType": "Observation",
        "id": "671b176b-5071-4b95-b697-5300adf448ba",
        "meta": {
          "profile": [
            "http://hl7.eu/fhir/laboratory/StructureDefinition/Observation-resultslab-eu-lab"
          ]
        },
        "performer": [
          {
            "display": "The Central European Lab"
          }
        ],
        "category": [
          {
            "coding": [
              {
                "system": "http://terminology.hl7.org/CodeSystem/observation-category",
                "code": "laboratory"
              }
            ]
          }
        ],
        "code": {
          "coding": [
            {
              "code": "5799-2",
              "system": "http://loinc.org",
              "display": "Leukocyte esterase [Presence] in Urine by Test strip"
            }
          ],
          "text": "Leukocyte esterase [Presence] in Urine by Test strip"
        },
        "text": {
          "status": "generated",
          "div": "<div xmlns=\"http://www.w3.org/1999/xhtml\"><table class=\"hl7__eu__lab__report\"><tr><th>Test</th><th>21-Apr-2023</th><th>Reference&#xA0;Range</th><th>Unit</th></tr><tr><td>Leukocyte esterase [Presence] in Urine by Test strip</td></tr></table></div>"
        },
        "status": "final",
        "subject": {
          "reference": "urn:uuid:eaa80e57-0ab1-463d-999a-ac3d48298d41",
          "display": "Victor Lagarde"
        },
        "effectiveDateTime": "2023-04-21T04:48:18Z",
        "specimen": {
          "reference": "urn:uuid:13d1db98-6e49-47c1-9723-add5f336f4e0"
        }
      }
    },
    {
      "fullUrl": "urn:uuid:d4ef2898-0217-4b64-99e4-2fcf10109fe9",
      "resource": {
        "resourceType": "Observation",
        "id": "d4ef2898-0217-4b64-99e4-2fcf10109fe9",
        "meta": {
          "profile": [
            "http://hl7.eu/fhir/laboratory/StructureDefinition/Observation-resultslab-eu-lab"
          ]
        },
        "performer": [
          {
            "display": "The Central European Lab"
          }
        ],
        "category": [
          {
            "coding": [
              {
                "system": "http://terminology.hl7.org/CodeSystem/observation-category",
                "code": "laboratory"
              }
            ]
          }
        ],
        "code": {
          "coding": [
            {
              "code": "4548-4",
              "system": "http://loinc.org",
              "display": "Hemoglobin A1c/Hemoglobin.total in Blood"
            }
          ],
          "text": "Hemoglobin A1c/Hemoglobin.total in Blood"
        },
        "valueQuantity": {
          "system": "http://unitsofmeasure.org",
          "value": 2.9,
          "unit": "%",
          "code": "%"
        },
        "referenceRange": [
          {
            "low": {
              "value": 4.3,
              "code": "%",
              "system": "http://unitsofmeasure.org"
            }
          },
          {
            "high": {
              "value": 6,
              "code": "%",
              "system": "http://unitsofmeasure.org"
            }
          }
        ],
        "interpretation": [
          {
            "coding": [
              {
                "code": "L",
                "system": "http://terminology.hl7.org/CodeSystem/v3-ObservationInterpretation",
                "display": "Low"
              }
            ]
          }
        ],
        "text": {
          "status": "generated",
          "div": "<div xmlns=\"http://www.w3.org/1999/xhtml\"><table class=\"hl7__eu__lab__report\"><tr><th>Test</th><th>21-Apr-2023</th><th>Reference&#xA0;Range</th><th>Unit</th></tr><tr><td>Hemoglobin A1c/Hemoglobin.total in Blood</td><td>2.9</td><td>4.3 - 6</td><td>L</td><td>%</td></tr></table></div>"
        },
        "status": "final",
        "subject": {
          "reference": "urn:uuid:eaa80e57-0ab1-463d-999a-ac3d48298d41",
          "display": "Victor Lagarde"
        },
        "effectiveDateTime": "2023-04-21T04:48:18Z",
        "specimen": {
          "reference": "urn:uuid:17b4edb2-c0a0-4412-a223-92eca24e7013"
        }
      }
    },
    {
      "fullUrl": "urn:uuid:858c787f-a5d2-4c65-b95f-425573f1c1dd",
      "resource": {
        "resourceType": "Observation",
        "id": "858c787f-a5d2-4c65-b95f-425573f1c1dd",
        "meta": {
          "profile": [
            "http://hl7.eu/fhir/laboratory/StructureDefinition/Observation-resultslab-eu-lab"
          ]
        },
        "performer": [
          {
            "display": "The Central European Lab"
          }
        ],
        "category": [
          {
            "coding": [
              {
                "system": "http://terminology.hl7.org/CodeSystem/observation-category",
                "code": "laboratory"
              }
            ]
          }
        ],
        "code": {
          "coding": [
            {
              "code": "2339-0",
              "system": "http://loinc.org",
              "display": "Glucose [Mass/volume] in Blood"
            }
          ],
          "text": "Glucose [Mass/volume] in Blood"
        },
        "valueQuantity": {
          "system": "http://unitsofmeasure.org",
          "value": 83,
          "unit": "mg/dL",
          "code": "mg/dL"
        },
        "referenceRange": [
          {
            "low": {
              "value": 70,
              "code": "mg/dL",
              "system": "http://unitsofmeasure.org"
            }
          },
          {
            "high": {
              "value": 140,
              "code": "mg/dL",
              "system": "http://unitsofmeasure.org"
            }
          }
        ],
        "text": {
          "status": "generated",
          "div": "<div xmlns=\"http://www.w3.org/1999/xhtml\"><table class=\"hl7__eu__lab__report\"><tr><th>Test</th><th>21-Apr-2023</th><th>Reference&#xA0;Range</th><th>Unit</th></tr><tr><td>Glucose [Mass/volume] in Blood</td><td>83.0</td><td>70 - 140</td><td></td><td>mg/dL</td></tr></table></div>"
        },
        "status": "final",
        "subject": {
          "reference": "urn:uuid:eaa80e57-0ab1-463d-999a-ac3d48298d41",
          "display": "Victor Lagarde"
        },
        "effectiveDateTime": "2023-04-21T04:48:18Z",
        "specimen": {
          "reference": "urn:uuid:17b4edb2-c0a0-4412-a223-92eca24e7013"
        }
      }
    },
    {
      "fullUrl": "urn:uuid:d095b2fd-9c6e-4329-ae9d-ff02991fc49b",
      "resource": {
        "resourceType": "Observation",
        "id": "d095b2fd-9c6e-4329-ae9d-ff02991fc49b",
        "meta": {
          "profile": [
            "http://hl7.eu/fhir/laboratory/StructureDefinition/Observation-resultslab-eu-lab"
          ]
        },
        "performer": [
          {
            "display": "The Central European Lab"
          }
        ],
        "category": [
          {
            "coding": [
              {
                "system": "http://terminology.hl7.org/CodeSystem/observation-category",
                "code": "laboratory"
              }
            ]
          }
        ],
        "code": {
          "coding": [
            {
              "code": "6299-2",
              "system": "http://loinc.org",
              "display": "Urea nitrogen [Mass/volume] in Blood"
            }
          ],
          "text": "Urea nitrogen [Mass/volume] in Blood"
        },
        "valueQuantity": {
          "system": "http://unitsofmeasure.org",
          "value": 11.7,
          "unit": "mg/dL",
          "code": "mg/dL"
        },
        "referenceRange": [
          {
            "low": {
              "value": 7,
              "code": "mg/dL",
              "system": "http://unitsofmeasure.org"
            }
          },
          {
            "high": {
              "value": 20,
              "code": "mg/dL",
              "system": "http://unitsofmeasure.org"
            }
          }
        ],
        "text": {
          "status": "generated",
          "div": "<div xmlns=\"http://www.w3.org/1999/xhtml\"><table class=\"hl7__eu__lab__report\"><tr><th>Test</th><th>21-Apr-2023</th><th>Reference&#xA0;Range</th><th>Unit</th></tr><tr><td>Urea nitrogen [Mass/volume] in Blood</td><td>11.7</td><td>7 - 20</td><td></td><td>mg/dL</td></tr></table></div>"
        },
        "status": "final",
        "subject": {
          "reference": "urn:uuid:eaa80e57-0ab1-463d-999a-ac3d48298d41",
          "display": "Victor Lagarde"
        },
        "effectiveDateTime": "2023-04-21T04:48:18Z",
        "specimen": {
          "reference": "urn:uuid:17b4edb2-c0a0-4412-a223-92eca24e7013"
        }
      }
    },
    {
      "fullUrl": "urn:uuid:f85ef7c2-a2a3-4ba1-956a-ab047d969d6c",
      "resource": {
        "resourceType": "Observation",
        "id": "f85ef7c2-a2a3-4ba1-956a-ab047d969d6c",
        "meta": {
          "profile": [
            "http://hl7.eu/fhir/laboratory/StructureDefinition/Observation-resultslab-eu-lab"
          ]
        },
        "performer": [
          {
            "display": "The Central European Lab"
          }
        ],
        "category": [
          {
            "coding": [
              {
                "system": "http://terminology.hl7.org/CodeSystem/observation-category",
                "code": "laboratory"
              }
            ]
          }
        ],
        "code": {
          "coding": [
            {
              "code": "38483-4",
              "system": "http://loinc.org",
              "display": "Creatinine [Mass/volume] in Blood"
            }
          ],
          "text": "Creatinine [Mass/volume] in Blood"
        },
        "valueQuantity": {
          "system": "http://unitsofmeasure.org",
          "value": 2.9,
          "unit": "mg/dL",
          "code": "mg/dL"
        },
        "referenceRange": [
          {
            "low": {
              "value": 0.9,
              "code": "mg/dL",
              "system": "http://unitsofmeasure.org"
            }
          },
          {
            "high": {
              "value": 1.3,
              "code": "mg/dL",
              "system": "http://unitsofmeasure.org"
            }
          }
        ],
        "interpretation": [
          {
            "coding": [
              {
                "code": "H",
                "system": "http://terminology.hl7.org/CodeSystem/v3-ObservationInterpretation",
                "display": "High"
              }
            ]
          }
        ],
        "text": {
          "status": "generated",
          "div": "<div xmlns=\"http://www.w3.org/1999/xhtml\"><table class=\"hl7__eu__lab__report\"><tr><th>Test</th><th>21-Apr-2023</th><th>Reference&#xA0;Range</th><th>Unit</th></tr><tr><td>Creatinine [Mass/volume] in Blood</td><td>2.9</td><td>0.9 - 1.3</td><td>H</td><td>mg/dL</td></tr></table></div>"
        },
        "status": "final",
        "subject": {
          "reference": "urn:uuid:eaa80e57-0ab1-463d-999a-ac3d48298d41",
          "display": "Victor Lagarde"
        },
        "effectiveDateTime": "2023-04-21T04:48:18Z",
        "specimen": {
          "reference": "urn:uuid:17b4edb2-c0a0-4412-a223-92eca24e7013"
        }
      }
    },
    {
      "fullUrl": "urn:uuid:a92839bd-df3b-484d-9834-b182021607df",
      "resource": {
        "resourceType": "Observation",
        "id": "a92839bd-df3b-484d-9834-b182021607df",
        "meta": {
          "profile": [
            "http://hl7.eu/fhir/laboratory/StructureDefinition/Observation-resultslab-eu-lab"
          ]
        },
        "performer": [
          {
            "display": "The Central European Lab"
          }
        ],
        "category": [
          {
            "coding": [
              {
                "system": "http://terminology.hl7.org/CodeSystem/observation-category",
                "code": "laboratory"
              }
            ]
          }
        ],
        "code": {
          "coding": [
            {
              "code": "49765-1",
              "system": "http://loinc.org",
              "display": "Calcium [Mass/volume] in Blood"
            }
          ],
          "text": "Calcium [Mass/volume] in Blood"
        },
        "valueQuantity": {
          "system": "http://unitsofmeasure.org",
          "value": 8.7,
          "unit": "mg/dL",
          "code": "mg/dL"
        },
        "referenceRange": [
          {
            "low": {
              "value": 8.5,
              "code": "mg/dL",
              "system": "http://unitsofmeasure.org"
            }
          },
          {
            "high": {
              "value": 10.5,
              "code": "mg/dL",
              "system": "http://unitsofmeasure.org"
            }
          }
        ],
        "text": {
          "status": "generated",
          "div": "<div xmlns=\"http://www.w3.org/1999/xhtml\"><table class=\"hl7__eu__lab__report\"><tr><th>Test</th><th>21-Apr-2023</th><th>Reference&#xA0;Range</th><th>Unit</th></tr><tr><td>Calcium [Mass/volume] in Blood</td><td>8.7</td><td>8.5 - 10.5</td><td></td><td>mg/dL</td></tr></table></div>"
        },
        "status": "final",
        "subject": {
          "reference": "urn:uuid:eaa80e57-0ab1-463d-999a-ac3d48298d41",
          "display": "Victor Lagarde"
        },
        "effectiveDateTime": "2023-04-21T04:48:18Z",
        "specimen": {
          "reference": "urn:uuid:17b4edb2-c0a0-4412-a223-92eca24e7013"
        }
      }
    },
    {
      "fullUrl": "urn:uuid:ab6a63e5-8a1a-41b5-8324-56c26467ee64",
      "resource": {
        "resourceType": "Observation",
        "id": "ab6a63e5-8a1a-41b5-8324-56c26467ee64",
        "meta": {
          "profile": [
            "http://hl7.eu/fhir/laboratory/StructureDefinition/Observation-resultslab-eu-lab"
          ]
        },
        "performer": [
          {
            "display": "The Central European Lab"
          }
        ],
        "category": [
          {
            "coding": [
              {
                "system": "http://terminology.hl7.org/CodeSystem/observation-category",
                "code": "laboratory"
              }
            ]
          }
        ],
        "code": {
          "coding": [
            {
              "code": "2947-0",
              "system": "http://loinc.org",
              "display": "Sodium [Moles/volume] in Blood"
            }
          ],
          "text": "Sodium [Moles/volume] in Blood"
        },
        "valueQuantity": {
          "system": "http://unitsofmeasure.org",
          "value": 139.3,
          "unit": "mmol/L",
          "code": "mmol/L"
        },
        "referenceRange": [
          {
            "low": {
              "value": 135,
              "code": "mmol/L",
              "system": "http://unitsofmeasure.org"
            }
          },
          {
            "high": {
              "value": 145,
              "code": "mmol/L",
              "system": "http://unitsofmeasure.org"
            }
          }
        ],
        "text": {
          "status": "generated",
          "div": "<div xmlns=\"http://www.w3.org/1999/xhtml\"><table class=\"hl7__eu__lab__report\"><tr><th>Test</th><th>21-Apr-2023</th><th>Reference&#xA0;Range</th><th>Unit</th></tr><tr><td>Sodium [Moles/volume] in Blood</td><td>139.3</td><td>135 - 145</td><td></td><td>mmol/L</td></tr></table></div>"
        },
        "status": "final",
        "subject": {
          "reference": "urn:uuid:eaa80e57-0ab1-463d-999a-ac3d48298d41",
          "display": "Victor Lagarde"
        },
        "effectiveDateTime": "2023-04-21T04:48:18Z",
        "specimen": {
          "reference": "urn:uuid:17b4edb2-c0a0-4412-a223-92eca24e7013"
        }
      }
    },
    {
      "fullUrl": "urn:uuid:74a1415b-66cb-495a-a685-e6e405a75029",
      "resource": {
        "resourceType": "Observation",
        "id": "74a1415b-66cb-495a-a685-e6e405a75029",
        "meta": {
          "profile": [
            "http://hl7.eu/fhir/laboratory/StructureDefinition/Observation-resultslab-eu-lab"
          ]
        },
        "performer": [
          {
            "display": "The Central European Lab"
          }
        ],
        "category": [
          {
            "coding": [
              {
                "system": "http://terminology.hl7.org/CodeSystem/observation-category",
                "code": "laboratory"
              }
            ]
          }
        ],
        "code": {
          "coding": [
            {
              "code": "6298-4",
              "system": "http://loinc.org",
              "display": "Potassium [Moles/volume] in Blood"
            }
          ],
          "text": "Potassium [Moles/volume] in Blood"
        },
        "valueQuantity": {
          "system": "http://unitsofmeasure.org",
          "value": 4.3,
          "unit": "mmol/L",
          "code": "mmol/L"
        },
        "referenceRange": [
          {
            "low": {
              "value": 3.5,
              "code": "mmol/L",
              "system": "http://unitsofmeasure.org"
            }
          },
          {
            "high": {
              "value": 5.1,
              "code": "mmol/L",
              "system": "http://unitsofmeasure.org"
            }
          }
        ],
        "text": {
          "status": "generated",
          "div": "<div xmlns=\"http://www.w3.org/1999/xhtml\"><table class=\"hl7__eu__lab__report\"><tr><th>Test</th><th>21-Apr-2023</th><th>Reference&#xA0;Range</th><th>Unit</th></tr><tr><td>Potassium [Moles/volume] in Blood</td><td>4.3</td><td>3.5 - 5.1</td><td></td><td>mmol/L</td></tr></table></div>"
        },
        "status": "final",
        "subject": {
          "reference": "urn:uuid:eaa80e57-0ab1-463d-999a-ac3d48298d41",
          "display": "Victor Lagarde"
        },
        "effectiveDateTime": "2023-04-21T04:48:18Z",
        "specimen": {
          "reference": "urn:uuid:17b4edb2-c0a0-4412-a223-92eca24e7013"
        }
      }
    },
    {
      "fullUrl": "urn:uuid:f53f173a-c1e9-4d1b-bbcf-3021265f560f",
      "resource": {
        "resourceType": "Observation",
        "id": "f53f173a-c1e9-4d1b-bbcf-3021265f560f",
        "meta": {
          "profile": [
            "http://hl7.eu/fhir/laboratory/StructureDefinition/Observation-resultslab-eu-lab"
          ]
        },
        "performer": [
          {
            "display": "The Central European Lab"
          }
        ],
        "category": [
          {
            "coding": [
              {
                "system": "http://terminology.hl7.org/CodeSystem/observation-category",
                "code": "laboratory"
              }
            ]
          }
        ],
        "code": {
          "coding": [
            {
              "code": "2069-3",
              "system": "http://loinc.org",
              "display": "Chloride [Moles/volume] in Blood"
            }
          ],
          "text": "Chloride [Moles/volume] in Blood"
        },
        "valueQuantity": {
          "system": "http://unitsofmeasure.org",
          "value": 107.8,
          "unit": "mmol/L",
          "code": "mmol/L"
        },
        "referenceRange": [
          {
            "low": {
              "value": 98,
              "code": "mmol/L",
              "system": "http://unitsofmeasure.org"
            }
          },
          {
            "high": {
              "value": 108,
              "code": "mmol/L",
              "system": "http://unitsofmeasure.org"
            }
          }
        ],
        "text": {
          "status": "generated",
          "div": "<div xmlns=\"http://www.w3.org/1999/xhtml\"><table class=\"hl7__eu__lab__report\"><tr><th>Test</th><th>21-Apr-2023</th><th>Reference&#xA0;Range</th><th>Unit</th></tr><tr><td>Chloride [Moles/volume] in Blood</td><td>107.8</td><td>98 - 108</td><td></td><td>mmol/L</td></tr></table></div>"
        },
        "status": "final",
        "subject": {
          "reference": "urn:uuid:eaa80e57-0ab1-463d-999a-ac3d48298d41",
          "display": "Victor Lagarde"
        },
        "effectiveDateTime": "2023-04-21T04:48:18Z",
        "specimen": {
          "reference": "urn:uuid:17b4edb2-c0a0-4412-a223-92eca24e7013"
        }
      }
    },
    {
      "fullUrl": "urn:uuid:0d5bd256-d093-40f5-9b82-cf9512f61a56",
      "resource": {
        "resourceType": "Observation",
        "id": "0d5bd256-d093-40f5-9b82-cf9512f61a56",
        "meta": {
          "profile": [
            "http://hl7.eu/fhir/laboratory/StructureDefinition/Observation-resultslab-eu-lab"
          ]
        },
        "performer": [
          {
            "display": "The Central European Lab"
          }
        ],
        "category": [
          {
            "coding": [
              {
                "system": "http://terminology.hl7.org/CodeSystem/observation-category",
                "code": "laboratory"
              }
            ]
          }
        ],
        "code": {
          "coding": [
            {
              "code": "20565-8",
              "system": "http://loinc.org",
              "display": "Carbon dioxide, total [Moles/volume] in Blood"
            }
          ],
          "text": "Carbon dioxide, total [Moles/volume] in Blood"
        },
        "valueQuantity": {
          "system": "http://unitsofmeasure.org",
          "value": 22.1,
          "unit": "mmol/L",
          "code": "mmol/L"
        },
        "referenceRange": [
          {
            "low": {
              "value": 22,
              "code": "mmol/L",
              "system": "http://unitsofmeasure.org"
            }
          },
          {
            "high": {
              "value": 29,
              "code": "mmol/L",
              "system": "http://unitsofmeasure.org"
            }
          }
        ],
        "text": {
          "status": "generated",
          "div": "<div xmlns=\"http://www.w3.org/1999/xhtml\"><table class=\"hl7__eu__lab__report\"><tr><th>Test</th><th>21-Apr-2023</th><th>Reference&#xA0;Range</th><th>Unit</th></tr><tr><td>Carbon dioxide, total [Moles/volume] in Blood</td><td>22.1</td><td>22 - 29</td><td></td><td>mmol/L</td></tr></table></div>"
        },
        "status": "final",
        "subject": {
          "reference": "urn:uuid:eaa80e57-0ab1-463d-999a-ac3d48298d41",
          "display": "Victor Lagarde"
        },
        "effectiveDateTime": "2023-04-21T04:48:18Z",
        "specimen": {
          "reference": "urn:uuid:17b4edb2-c0a0-4412-a223-92eca24e7013"
        }
      }
    },
    {
      "fullUrl": "urn:uuid:690b9cc7-a3a6-4c0f-8c3a-b4a5c28ab62f",
      "resource": {
        "resourceType": "Device",
        "id": "690b9cc7-a3a6-4c0f-8c3a-b4a5c28ab62f",
        "deviceName": [
          {
            "name": "SYNDERAI Synthetic Generator",
            "type": "manufacturer-name"
          }
        ],
        "version": [
          {
            "value": "5.0"
          }
        ],
        "text": {
          "status": "generated",
          "div": "<div xmlns=\"http://www.w3.org/1999/xhtml\">SYNDERAI Synthetic Generator v5.0</div>"
        },
        "status": "active\"",
        "distinctIdentifier": "synderai-generator-50",
        "manufacturer": "SYNDERAI Project"
      }
    },
    {
      "fullUrl": "urn:uuid:4054cdf1-9cc0-424b-9715-c6f233c9500d",
      "resource": {
        "resourceType": "Provenance",
        "id": "4054cdf1-9cc0-424b-9715-c6f233c9500d",
        "target": [
          {
            "reference": "Patient/eaa80e57-0ab1-463d-999a-ac3d48298d41"
          },
          {
            "reference": "Bundle/73372749-8dd8-4d17-ae3c-ad197ea74b4d"
          },
          {
            "reference": "Composition/93a51fb4-d971-455d-a5aa-b113bee685a1"
          },
          {
            "reference": "PractitionerRole/4895c35e-7f9b-4f2e-bcd2-512206398ffc"
          },
          {
            "reference": "Practitioner/0c97497d-d68c-4e1d-9f7a-cab66be6683f"
          },
          {
            "reference": "PractitionerRole/e0527c53-5447-4d97-95bb-3c80c3027e90"
          },
          {
            "reference": "Organization/0d7c8c9a-bb6a-4cdf-8f10-aabf155c0c81"
          }
        ],
        "activity": {
          "text": "Synthetic Example Data Generation"
        },
        "policy": [
          "https://synderai.net/synderai-synthetic-data-policy"
        ],
        "agent": [
          {
            "type": {
              "text": "author"
            },
            "who": {
              "reference": "Device/690b9cc7-a3a6-4c0f-8c3a-b4a5c28ab62f"
            }
          }
        ],
        "reason": [
          {
            "text": "Interoperability Testing and Training (non-clinical use)"
          }
        ],
        "text": {
          "status": "generated",
          "div": "<div xmlns=\"http://www.w3.org/1999/xhtml\">Provenance for SYNDERAI Synthetic Example Data Resource</div>"
        },
        "recorded": "2023-04-21T06:48:18Z"
      }
    },
    {
      "fullUrl": "urn:uuid:4895c35e-7f9b-4f2e-bcd2-512206398ffc",
      "resource": {
        "resourceType": "PractitionerRole",
        "id": "4895c35e-7f9b-4f2e-bcd2-512206398ffc",
        "meta": {
          "profile": [
            "http://hl7.eu/fhir/base/StructureDefinition/practitionerRole-eu"
          ]
        },
        "text": {
          "status": "generated",
          "div": "<div xmlns=\"http://www.w3.org/1999/xhtml\">Laboratory Role Id: 4895c35e-7f9b-4f2e-bcd2-512206398ffc</div>"
        },
        "practitioner": {
          "reference": "urn:uuid:0c97497d-d68c-4e1d-9f7a-cab66be6683f"
        }
      }
    },
    {
      "fullUrl": "urn:uuid:0c97497d-d68c-4e1d-9f7a-cab66be6683f",
      "resource": {
        "resourceType": "Practitioner",
        "id": "0c97497d-d68c-4e1d-9f7a-cab66be6683f",
        "meta": {
          "profile": [
            "http://hl7.eu/fhir/base/StructureDefinition/practitioner-eu"
          ]
        },
        "identifier": [
          {
            "assigner": {
              "display": "HL7 Europe"
            },
            "system": "urn:oid:2.16.840.1.113883.2.51.999",
            "value": "0cb02ef1-ed47-42e7-ac42-03aa8e7f8b2f"
          }
        ],
        "name": [
          {
            "prefix": [
              "dr"
            ],
            "given": [
              "Ex"
            ],
            "family": "Ample"
          }
        ],
        "address": [
          {
            "line": [
              "Laboratoire Central Européenne",
              "Boulevard du Jardin Botanique 32"
            ],
            "postalCode": "1000",
            "city": "Brussels",
            "country": "Belgium"
          }
        ],
        "text": {
          "status": "generated",
          "div": "<div xmlns=\"http://www.w3.org/1999/xhtml\">Laboratory: Laboratoire Central Européenne, 1000 Brussels, Belgium</div>"
        }
      }
    }
  ],
  "type": "document",
  "timestamp": "2023-04-21T06:48:18Z"
}
