{
  "resourceType": "Bundle",
  "id": "fde692b8-da88-4bda-8b2e-69414218f8d0",
  "meta": {
    "profile": [
      "http://hl7.eu/fhir/laboratory/StructureDefinition/Bundle-eu-lab"
    ]
  },
  "identifier": {
    "assigner": {
      "display": "HL7 Europe"
    },
    "system": "urn:oid:2.16.840.1.113883.2.51.999",
    "value": "cae4ce79-6435-4348-926f-835cd286558a"
  },
  "entry": [
    {
      "fullUrl": "urn:uuid:8249a0d9-15a7-448b-b3fc-dd7482e82060",
      "resource": {
        "resourceType": "Composition",
        "id": "8249a0d9-15a7-448b-b3fc-dd7482e82060",
        "meta": {
          "profile": [
            "http://hl7.eu/fhir/laboratory/StructureDefinition/Composition-eu-lab"
          ]
        },
        "identifier": {
          "assigner": {
            "display": "HL7 Europe"
          },
          "system": "urn:oid:2.16.840.1.113883.2.51.999",
          "value": "65532807-88f9-4694-990d-8bf71aceb730"
        },
        "author": [
          {
            "reference": "urn:uuid:d30fb83e-3ca5-4254-bfff-cca9c837128e"
          }
        ],
        "category": [
          {
            "coding": [
              {
                "code": "26436-6",
                "system": "http://loinc.org",
                "display": "Laboratory studies (set)"
              }
            ]
          }
        ],
        "type": {
          "coding": [
            {
              "code": "11502-2",
              "system": "http://loinc.org",
              "display": "Laboratory report"
            }
          ],
          "text": "Laboratory Report"
        },
        "section": [
          {
            "code": {
              "coding": [
                {
                  "code": "26436-6",
                  "system": "http://loinc.org",
                  "display": "Laboratory studies (set)"
                }
              ],
              "text": "Laboratory studies"
            },
            "section": [
              {
                "code": {
                  "coding": [
                    {
                      "code": "$18719-5",
                      "system": "http://loinc.org",
                      "display": "Chemistry studies (set)"
                    }
                  ],
                  "text": "Chemistry"
                },
                "entry": [
                  {
                    "reference": "urn:uuid:d390d5c2-87f4-4674-9320-6d631aeba0b1"
                  },
                  {
                    "reference": "urn:uuid:08edb86f-3e86-4fc1-9167-52a71f6d3767"
                  },
                  {
                    "reference": "urn:uuid:8fa8873f-7fe0-4cd1-9cde-0cd242d1e00b"
                  },
                  {
                    "reference": "urn:uuid:04cd97c8-f30a-4e98-86dc-7c01d76d15b5"
                  },
                  {
                    "reference": "urn:uuid:1c4e025a-2fd8-4aa6-94fd-b9998c59f479"
                  },
                  {
                    "reference": "urn:uuid:443228e8-23bd-42ef-9ae0-c1263b4ce471"
                  },
                  {
                    "reference": "urn:uuid:db9afdae-0eb6-40b4-b12c-79845736f853"
                  },
                  {
                    "reference": "urn:uuid:48729dc8-c970-459a-bca1-742ffd3f8fc3"
                  },
                  {
                    "reference": "urn:uuid:1e64addb-a947-4791-a6a2-964859737097"
                  },
                  {
                    "reference": "urn:uuid:78c2856b-76de-456b-b386-4eda9a181f9b"
                  },
                  {
                    "reference": "urn:uuid:640ce64d-292d-47f6-887f-881035b6a34e"
                  },
                  {
                    "reference": "urn:uuid:808d058b-82c7-4946-baf2-3e98d974416f"
                  },
                  {
                    "reference": "urn:uuid:e4134197-aef3-41dc-9741-cdc4446770f3"
                  },
                  {
                    "reference": "urn:uuid:83b3013a-cbcf-4ef7-909d-704b56ccdb43"
                  },
                  {
                    "reference": "urn:uuid:cbac3b41-bc75-4742-bd9b-9393bbb7a0c8"
                  },
                  {
                    "reference": "urn:uuid:cdccac6c-4711-45e3-a8b8-52c2b806be77"
                  },
                  {
                    "reference": "urn:uuid:860e38b9-efdc-465e-bf86-8fdf3f9b7e7d"
                  },
                  {
                    "reference": "urn:uuid:cf50d027-1109-4890-90b5-fbe82809ced2"
                  }
                ],
                "text": {
                  "status": "generated",
                  "div": "<div xmlns=\"http://www.w3.org/1999/xhtml\"><h3>Chemistry</h3><table class=\"hl7__eu__lab__report\"><thead><tr><th>Test</th><th>20-DEC-2019</th><th>Reference&#xA0;Range</th><th>Unit</th></tr></thead><tbody><tr><td>Glucose [Mass/volume] in Serum or Plasma</td><td>89.9</td><td>70 - 140</td><td>mg/dL</td></tr><tr><td>Urea nitrogen [Mass/volume] in Serum or Plasma</td><td>14.0</td><td>7 - 20</td><td>mg/dL</td></tr><tr><td>Creatinine [Mass/volume] in Serum or Plasma</td><td><strong>2.0 H</strong></td><td>0.9 - 1.3</td><td>mg/dL</td></tr><tr><td>Calcium [Mass/volume] in Serum or Plasma</td><td>9.4</td><td>8.5 - 10.5</td><td>mg/dL</td></tr><tr><td>Sodium [Moles/volume] in Serum or Plasma</td><td>142.3</td><td>135 - 145</td><td>mmol/L</td></tr><tr><td>Potassium [Moles/volume] in Serum or Plasma</td><td>3.8</td><td>3.5 - 5.3</td><td>mmol/L</td></tr><tr><td>Chloride [Moles/volume] in Serum or Plasma</td><td><strong>108.0 H</strong></td><td>98 - 107</td><td>mmol/L</td></tr><tr><td>Carbon dioxide, total [Moles/volume] in Serum or Plasma</td><td>27.1</td><td>22 - 33</td><td>mmol/L</td></tr><tr><td>Ketones [Presence] in Urine by Test strip</td><td>Urine ketone test = ++</td><td></td><td></td></tr><tr><td>Hemoglobin A1c/Hemoglobin.total in Blood</td><td><strong>3.3 L</strong></td><td>4.3 - 6</td><td>%</td></tr><tr><td>Glucose [Mass/volume] in Blood</td><td>89.9</td><td>70 - 140</td><td>mg/dL</td></tr><tr><td>Urea nitrogen [Mass/volume] in Blood</td><td>14.0</td><td>7 - 20</td><td>mg/dL</td></tr><tr><td>Creatinine [Mass/volume] in Blood</td><td><strong>3.9 H</strong></td><td>0.9 - 1.3</td><td>mg/dL</td></tr><tr><td>Calcium [Mass/volume] in Blood</td><td>9.4</td><td>8.5 - 10.5</td><td>mg/dL</td></tr><tr><td>Sodium [Moles/volume] in Blood</td><td>142.3</td><td>135 - 145</td><td>mmol/L</td></tr><tr><td>Potassium [Moles/volume] in Blood</td><td>3.8</td><td>3.5 - 5.1</td><td>mmol/L</td></tr><tr><td>Chloride [Moles/volume] in Blood</td><td>108.0</td><td>98 - 108</td><td>mmol/L</td></tr><tr><td>Carbon dioxide, total [Moles/volume] in Blood</td><td>27.1</td><td>22 - 29</td><td>mmol/L</td></tr></tbody></table></div>"
                },
                "title": "Chemistry"
              },
              {
                "code": {
                  "coding": [
                    {
                      "code": "$18729-4",
                      "system": "http://loinc.org",
                      "display": "Urinalysis studies (set)"
                    }
                  ],
                  "text": "Urinalysis"
                },
                "entry": [
                  {
                    "reference": "urn:uuid:7165f8d8-3f8a-4cd4-8d82-5bfdd3fc4b76"
                  },
                  {
                    "reference": "urn:uuid:76d9adbf-03f4-4ae7-b01b-63da6760066e"
                  },
                  {
                    "reference": "urn:uuid:79e28198-3546-491b-83e0-3e1bb7e02567"
                  },
                  {
                    "reference": "urn:uuid:4720dc03-9f53-4da3-9d99-e009b4e9f50d"
                  },
                  {
                    "reference": "urn:uuid:68525ba0-fa68-415d-a2c7-c93f41784aba"
                  },
                  {
                    "reference": "urn:uuid:2207cf5a-30f0-4ef7-8b14-d321cdbe0245"
                  },
                  {
                    "reference": "urn:uuid:d1bb4a32-bfb9-4c3c-b62e-77dbbd97922f"
                  },
                  {
                    "reference": "urn:uuid:3ad8162b-f764-46fd-a1c7-4d43da107047"
                  },
                  {
                    "reference": "urn:uuid:f5d2a36d-3db6-4b31-80e3-dd903ac36a37"
                  },
                  {
                    "reference": "urn:uuid:a7e00dc9-f040-4fd7-bfea-d68a18b6040a"
                  },
                  {
                    "reference": "urn:uuid:eb611470-7e77-4e80-856f-a27a0c5527e5"
                  },
                  {
                    "reference": "urn:uuid:211ba11f-32e0-4362-8c6b-47cc9d4645bf"
                  }
                ],
                "text": {
                  "status": "generated",
                  "div": "<div xmlns=\"http://www.w3.org/1999/xhtml\"><h3>Urinalysis</h3><table class=\"hl7__eu__lab__report\"><thead><tr><th>Test</th><th>20-DEC-2019</th><th>Reference&#xA0;Range</th><th>Unit</th></tr></thead><tbody><tr><td>Glucose [Mass/volume] in Urine by Test strip</td><td><strong>1.8 H</strong></td><td>0 - 0.8</td><td>mg/dL</td></tr><tr><td>Glucose [Presence] in Urine by Test strip</td><td>++</td><td></td><td></td></tr><tr><td>Bilirubin.total [Mass/volume] in Urine by Test strip</td><td>0.6</td><td>0 - 1.9</td><td>mg/dL</td></tr><tr><td>Bilirubin.total [Presence] in Urine by Test strip</td><td>Finding of bilirubin in urine</td><td></td><td></td></tr><tr><td>Ketones [Mass/volume] in Urine by Test strip</td><td><strong>16.4 H</strong></td><td>0 - 3</td><td>mg/dL</td></tr><tr><td>Specific gravity of Urine by Test strip</td><td><strong>1.0 L</strong></td><td>1.01 - 1.03</td><td>{nominal}</td></tr><tr><td>pH of Urine by Test strip</td><td>5.4</td><td>4.5 - 7.5</td><td>pH</td></tr><tr><td>Protein [Mass/volume] in Urine by Test strip</td><td><strong>272.6 H</strong></td><td>0 - 149</td><td>mg/dL</td></tr><tr><td>Protein [Presence] in Urine by Test strip</td><td>Urine protein test = ++</td><td></td><td></td></tr><tr><td>Nitrite [Presence] in Urine by Test strip</td><td>Urine nitrite negative</td><td></td><td></td></tr><tr><td>Hemoglobin [Presence] in Urine by Test strip</td><td>Urine blood test = negative</td><td></td><td></td></tr><tr><td>Leukocyte esterase [Presence] in Urine by Test strip</td><td>Urine leukocyte test negative</td><td></td><td></td></tr></tbody></table></div>"
                },
                "title": "Urinalysis"
              },
              {
                "code": {
                  "coding": [
                    {
                      "code": "$LP7846-1",
                      "system": "http://loinc.org",
                      "display": "Specimen information"
                    }
                  ],
                  "text": "Specimen information"
                },
                "entry": [
                  {
                    "reference": "urn:uuid:e421c8b1-8e0e-4d17-8ea3-8305e3421034"
                  },
                  {
                    "reference": "urn:uuid:45e41816-fbb6-418d-9246-8a596337b031"
                  },
                  {
                    "reference": "urn:uuid:51ccdcb9-9350-44bd-b296-1a6bcb29396f"
                  },
                  {
                    "reference": "urn:uuid:ac8b4fba-7f4e-476a-9879-12a0a21aec6d"
                  }
                ],
                "text": {
                  "status": "generated",
                  "div": "<div xmlns=\"http://www.w3.org/1999/xhtml\"><h3>Specimen information</h3><table class=\"hl7__eu__lab__report\"><thead><tr><th>Test</th><th>20-DEC-2019</th><th>Specimen</th><th></th></tr></thead><tbody><tr><td>Appearance of Urine</td><td>Cloudy urine</td><td>Urine</td><td></td></tr><tr><td>Odor of Urine</td><td>Urine smell ammoniacal</td><td>Urine</td><td></td></tr><tr><td>Clarity of Urine</td><td>Translucent</td><td>Urine</td><td></td></tr><tr><td>Color of Urine</td><td>Brown color</td><td>Urine</td><td></td></tr></tbody></table></div>"
                },
                "title": "Specimen information"
              }
            ],
            "title": "Laboratory Report"
          },
          {
            "text": {
              "status": "generated",
              "div": "<div xmlns=\"http://www.w3.org/1999/xhtml\"><h3>Annotation</h3><table class=\"hl7__eu__lab__report\"><tr><th>Conclusion and Recommendations based on this report and previous findings known to us</th></tr><tr><td>The patient shows elevated creatinine, proteinuria, glucosuria, and ketonuria, suggesting significant renal impairment and possible diabetic or metabolic decompensation, despite a low HbA1c. Urine is abnormal in appearance and color, with low specific gravity, indicating impaired concentrating ability. No evidence of urinary infection. Recommend urgent clinical evaluation for acute or chronic kidney disease and assessment for possible metabolic or glycemic disturbances.</td></tr></table></div>"
            },
            "code": {
              "coding": [
                {
                  "system": "http://loinc.org",
                  "code": "48767-8",
                  "display": "Annotation comment"
                }
              ]
            },
            "title": "Annotation comment"
          }
        ],
        "status": "final",
        "subject": {
          "reference": "urn:uuid:0a8d2424-8360-40b6-af03-cfd68496f2d1",
          "display": "Victor Lagarde"
        },
        "date": "2019-12-20T05:48:18Z",
        "title": "Laboratory Report",
        "confidentiality": "N"
      }
    },
    {
      "fullUrl": "urn:uuid:1f8474d4-5aed-4e45-a62d-b70286b368a9",
      "resource": {
        "resourceType": "DiagnosticReport",
        "id": "1f8474d4-5aed-4e45-a62d-b70286b368a9",
        "meta": {
          "profile": [
            "http://hl7.eu/fhir/laboratory/StructureDefinition/DiagnosticReport-eu-lab"
          ]
        },
        "identifier": [
          {
            "assigner": {
              "display": "HL7 Europe"
            },
            "system": "urn:oid:2.16.840.1.113883.2.51.999",
            "value": "eb476624-2861-4543-b035-2c504e75b690"
          }
        ],
        "extension": [
          {
            "url": "http://hl7.org/fhir/5.0/StructureDefinition/extension-DiagnosticReport.composition",
            "valueReference": {
              "reference": "urn:uuid:65532807-88f9-4694-990d-8bf71aceb730"
            }
          }
        ],
        "category": [
          {
            "coding": [
              {
                "code": "26436-6",
                "system": "http://loinc.org",
                "display": "Laboratory studies (set)"
              }
            ]
          }
        ],
        "specimen": [
          {
            "reference": "urn:uuid:90863232-5e0d-4a53-b11e-f8df9db10839"
          },
          {
            "reference": "urn:uuid:d9b338ad-fc4f-4422-ac51-8a66c8915bf0"
          },
          {
            "reference": "urn:uuid:a44c02d7-c0df-4792-8413-7940d4b2e255"
          }
        ],
        "result": [
          {
            "reference": "urn:uuid:d390d5c2-87f4-4674-9320-6d631aeba0b1"
          },
          {
            "reference": "urn:uuid:08edb86f-3e86-4fc1-9167-52a71f6d3767"
          },
          {
            "reference": "urn:uuid:8fa8873f-7fe0-4cd1-9cde-0cd242d1e00b"
          },
          {
            "reference": "urn:uuid:04cd97c8-f30a-4e98-86dc-7c01d76d15b5"
          },
          {
            "reference": "urn:uuid:1c4e025a-2fd8-4aa6-94fd-b9998c59f479"
          },
          {
            "reference": "urn:uuid:443228e8-23bd-42ef-9ae0-c1263b4ce471"
          },
          {
            "reference": "urn:uuid:db9afdae-0eb6-40b4-b12c-79845736f853"
          },
          {
            "reference": "urn:uuid:48729dc8-c970-459a-bca1-742ffd3f8fc3"
          },
          {
            "reference": "urn:uuid:e421c8b1-8e0e-4d17-8ea3-8305e3421034"
          },
          {
            "reference": "urn:uuid:45e41816-fbb6-418d-9246-8a596337b031"
          },
          {
            "reference": "urn:uuid:51ccdcb9-9350-44bd-b296-1a6bcb29396f"
          },
          {
            "reference": "urn:uuid:ac8b4fba-7f4e-476a-9879-12a0a21aec6d"
          },
          {
            "reference": "urn:uuid:7165f8d8-3f8a-4cd4-8d82-5bfdd3fc4b76"
          },
          {
            "reference": "urn:uuid:76d9adbf-03f4-4ae7-b01b-63da6760066e"
          },
          {
            "reference": "urn:uuid:79e28198-3546-491b-83e0-3e1bb7e02567"
          },
          {
            "reference": "urn:uuid:4720dc03-9f53-4da3-9d99-e009b4e9f50d"
          },
          {
            "reference": "urn:uuid:68525ba0-fa68-415d-a2c7-c93f41784aba"
          },
          {
            "reference": "urn:uuid:1e64addb-a947-4791-a6a2-964859737097"
          },
          {
            "reference": "urn:uuid:2207cf5a-30f0-4ef7-8b14-d321cdbe0245"
          },
          {
            "reference": "urn:uuid:d1bb4a32-bfb9-4c3c-b62e-77dbbd97922f"
          },
          {
            "reference": "urn:uuid:3ad8162b-f764-46fd-a1c7-4d43da107047"
          },
          {
            "reference": "urn:uuid:f5d2a36d-3db6-4b31-80e3-dd903ac36a37"
          },
          {
            "reference": "urn:uuid:a7e00dc9-f040-4fd7-bfea-d68a18b6040a"
          },
          {
            "reference": "urn:uuid:eb611470-7e77-4e80-856f-a27a0c5527e5"
          },
          {
            "reference": "urn:uuid:211ba11f-32e0-4362-8c6b-47cc9d4645bf"
          },
          {
            "reference": "urn:uuid:78c2856b-76de-456b-b386-4eda9a181f9b"
          },
          {
            "reference": "urn:uuid:640ce64d-292d-47f6-887f-881035b6a34e"
          },
          {
            "reference": "urn:uuid:808d058b-82c7-4946-baf2-3e98d974416f"
          },
          {
            "reference": "urn:uuid:e4134197-aef3-41dc-9741-cdc4446770f3"
          },
          {
            "reference": "urn:uuid:83b3013a-cbcf-4ef7-909d-704b56ccdb43"
          },
          {
            "reference": "urn:uuid:cbac3b41-bc75-4742-bd9b-9393bbb7a0c8"
          },
          {
            "reference": "urn:uuid:cdccac6c-4711-45e3-a8b8-52c2b806be77"
          },
          {
            "reference": "urn:uuid:860e38b9-efdc-465e-bf86-8fdf3f9b7e7d"
          },
          {
            "reference": "urn:uuid:cf50d027-1109-4890-90b5-fbe82809ced2"
          }
        ],
        "status": "registered",
        "code": {
          "coding": [
            {
              "code": "11502-2",
              "system": "http://loinc.org",
              "display": "Laboratory report"
            }
          ]
        },
        "subject": {
          "reference": "urn:uuid:0a8d2424-8360-40b6-af03-cfd68496f2d1",
          "display": "Victor Lagarde"
        }
      }
    },
    {
      "fullUrl": "urn:uuid:0a8d2424-8360-40b6-af03-cfd68496f2d1",
      "resource": {
        "resourceType": "Patient",
        "id": "0a8d2424-8360-40b6-af03-cfd68496f2d1",
        "meta": {
          "security": [
            {
              "system": "http://terminology.hl7.org/CodeSystem/v3-ActReason",
              "code": "HTEST"
            },
            {
              "system": "http://terminology.hl7.org/CodeSystem/v3-ActReason",
              "code": "TRAIN"
            }
          ],
          "tag": [
            {
              "system": "https://synderai.net/fhir/CodeSystem/tags",
              "code": "synthetic",
              "display": "SYNDERAI Synthetic data"
            }
          ],
          "profile": [
            "http://hl7.eu/fhir/base/StructureDefinition/patient-eu-core"
          ]
        },
        "identifier": [
          {
            "type": {
              "coding": [
                {
                  "code": "PT",
                  "system": "http://terminology.hl7.org/CodeSystem/v2-0203"
                }
              ]
            },
            "system": "http://ec.europa.eu/identifier/eci",
            "value": "9925-001801-9"
          },
          {
            "type": {
              "coding": [
                {
                  "code": "MR",
                  "system": "http://terminology.hl7.org/CodeSystem/v2-0203"
                }
              ]
            },
            "system": "http://local.setting.eu/identifier",
            "value": "22c2dfd0-ac57-8833-2532-848f180896a4"
          }
        ],
        "name": [
          {
            "family": "Lagarde"
          },
          {
            "given": [
              "Victor"
            ]
          },
          {
            "text": "Victor Lagarde"
          }
        ],
        "address": [
          {
            "line": [
              "avenue Robert"
            ],
            "use": "home",
            "type": "physical",
            "postalCode": "80300",
            "city": "Albert",
            "country": "France"
          }
        ],
        "telecom": [
          {
            "system": "phone",
            "value": "0177941801"
          }
        ],
        "extension": [
          {
            "url": "http://hl7.org/fhir/StructureDefinition/patient-nationality",
            "valueCodeableConcept": {
              "coding": [
                {
                  "code": "FR",
                  "system": "http://hl7.org/fhir/ValueSet/country"
                }
              ]
            }
          }
        ],
        "text": {
          "status": "generated",
          "div": "<div xmlns=\"http://www.w3.org/1999/xhtml\"><table class=\"hl7__ips\"><tr><td>Victor Lagarde</td><td>male</td><td>31-Aug-1939</td></tr></table></div>"
        },
        "gender": "male",
        "birthDate": "1939-08-31"
      }
    },
    {
      "fullUrl": "urn:uuid:82d5cafd-9744-4b6b-a841-3fd04e3e258f",
      "resource": {
        "resourceType": "ServiceRequest",
        "id": "82d5cafd-9744-4b6b-a841-3fd04e3e258f",
        "meta": {
          "profile": [
            "http://hl7.eu/fhir/laboratory/StructureDefinition/ServiceRequest-eu-lab"
          ]
        },
        "identifier": [
          {
            "system": "http://example.org",
            "value": "dd934ec3-8b15-4706-8010-82be93e45b32"
          }
        ],
        "specimen": [
          {
            "reference": "urn:uuid:90863232-5e0d-4a53-b11e-f8df9db10839"
          },
          {
            "reference": "urn:uuid:d9b338ad-fc4f-4422-ac51-8a66c8915bf0"
          },
          {
            "reference": "urn:uuid:a44c02d7-c0df-4792-8413-7940d4b2e255"
          }
        ],
        "reasonCode": [
          {
            "coding": [
              {
                "code": "433144002",
                "system": "http://snomed.info/sct",
                "display": "Chronic kidney disease stage 3"
              }
            ]
          },
          {
            "coding": [
              {
                "code": "157141000119108",
                "system": "http://snomed.info/sct",
                "display": "Proteinuria due to type 2 diabetes mellitus"
              }
            ]
          },
          {
            "coding": [
              {
                "code": "431856006",
                "system": "http://snomed.info/sct",
                "display": "Chronic kidney disease stage 2"
              }
            ]
          },
          {
            "coding": [
              {
                "code": "90781000119102",
                "system": "http://snomed.info/sct",
                "display": "Microalbuminuria due to type 2 diabetes mellitus"
              }
            ]
          },
          {
            "coding": [
              {
                "code": "127013003",
                "system": "http://snomed.info/sct",
                "display": "Disorder of kidney due to diabetes mellitus"
              }
            ]
          },
          {
            "coding": [
              {
                "code": "431855005",
                "system": "http://snomed.info/sct",
                "display": "Chronic kidney disease stage 1"
              }
            ]
          },
          {
            "coding": [
              {
                "code": "55822004",
                "system": "http://snomed.info/sct",
                "display": "Hyperlipidemia"
              }
            ]
          },
          {
            "coding": [
              {
                "code": "59621000",
                "system": "http://snomed.info/sct",
                "display": "Essential hypertension"
              }
            ]
          },
          {
            "coding": [
              {
                "code": "237602007",
                "system": "http://snomed.info/sct",
                "display": "Metabolic syndrome X"
              }
            ]
          },
          {
            "coding": [
              {
                "code": "414545008",
                "system": "http://snomed.info/sct",
                "display": "Ischemic heart disease"
              }
            ]
          },
          {
            "coding": [
              {
                "code": "40055000",
                "system": "http://snomed.info/sct",
                "display": "Chronic sinusitis"
              }
            ]
          },
          {
            "coding": [
              {
                "code": "15777000",
                "system": "http://snomed.info/sct",
                "display": "Prediabetes"
              }
            ]
          },
          {
            "coding": [
              {
                "code": "271737000",
                "system": "http://snomed.info/sct",
                "display": "Anemia"
              }
            ]
          }
        ],
        "status": "active",
        "intent": "order",
        "code": {
          "coding": [
            {
              "code": "108252007",
              "system": "http://snomed.info/sct",
              "display": "Laboratory procedure"
            }
          ]
        },
        "subject": {
          "reference": "urn:uuid:0a8d2424-8360-40b6-af03-cfd68496f2d1",
          "display": "Victor Lagarde"
        },
        "requester": {
          "reference": "urn:uuid:0c48702c-551c-47ba-9a31-a5b2836e4d29"
        }
      }
    },
    {
      "fullUrl": "urn:uuid:0c48702c-551c-47ba-9a31-a5b2836e4d29",
      "resource": {
        "resourceType": "PractitionerRole",
        "id": "0c48702c-551c-47ba-9a31-a5b2836e4d29",
        "meta": {
          "profile": [
            "http://hl7.eu/fhir/base/StructureDefinition/practitionerRole-eu"
          ]
        },
        "text": {
          "status": "generated",
          "div": "<div xmlns=\"http://www.w3.org/1999/xhtml\">Provider Role Id: 0c48702c-551c-47ba-9a31-a5b2836e4d29</div>"
        },
        "organization": {
          "reference": "urn:uuid:4a420f44-2690-4255-9f29-04166c09cd10"
        }
      }
    },
    {
      "fullUrl": "urn:uuid:4a420f44-2690-4255-9f29-04166c09cd10",
      "resource": {
        "resourceType": "Organization",
        "id": "4a420f44-2690-4255-9f29-04166c09cd10",
        "meta": {
          "profile": [
            "http://hl7.eu/fhir/base/StructureDefinition/organization-eu"
          ]
        },
        "identifier": [
          {
            "assigner": {
              "display": "HL7 Europe"
            },
            "system": "urn:oid:2.16.840.1.113883.2.51.999",
            "value": "82b20277-68c6-4c46-b3cf-a81899b2d344"
          }
        ],
        "address": [
          {
            "city": "Auxerre",
            "postalCode": "89000",
            "country": "France"
          }
        ],
        "text": {
          "status": "generated",
          "div": "<div xmlns=\"http://www.w3.org/1999/xhtml\">Provider Organization: Thiriot Didier (Cardiologie)</div>"
        },
        "name": "Thiriot Didier (Cardiologie)"
      }
    },
    {
      "fullUrl": "urn:uuid:90863232-5e0d-4a53-b11e-f8df9db10839",
      "resource": {
        "resourceType": "Specimen",
        "id": "90863232-5e0d-4a53-b11e-f8df9db10839",
        "meta": {
          "profile": [
            "http://hl7.eu/fhir/laboratory/StructureDefinition/Specimen-eu-lab"
          ]
        },
        "collection": {
          "collectedDateTime": "2019-12-20"
        },
        "text": {
          "status": "generated",
          "div": "<div xmlns=\"http://www.w3.org/1999/xhtml\"><table class=\"hl7__eu__lab__report\"><tr><th>Specimen</th><th>Collection Date</th></tr><tr><td>Acellular blood (serum or plasma) specimen</td><td><span class=\"nb\">20-Dec-2019</span></td></tr></table></div>"
        },
        "type": {
          "coding": [
            {
              "code": "122592007",
              "system": "http://snomed.info/sct",
              "display": "Acellular blood (serum or plasma) specimen"
            }
          ]
        }
      }
    },
    {
      "fullUrl": "urn:uuid:d9b338ad-fc4f-4422-ac51-8a66c8915bf0",
      "resource": {
        "resourceType": "Specimen",
        "id": "d9b338ad-fc4f-4422-ac51-8a66c8915bf0",
        "meta": {
          "profile": [
            "http://hl7.eu/fhir/laboratory/StructureDefinition/Specimen-eu-lab"
          ]
        },
        "collection": {
          "collectedDateTime": "2019-12-20"
        },
        "text": {
          "status": "generated",
          "div": "<div xmlns=\"http://www.w3.org/1999/xhtml\"><table class=\"hl7__eu__lab__report\"><tr><th>Specimen</th><th>Collection Date</th></tr><tr><td>Urine specimen</td><td><span class=\"nb\">20-Dec-2019</span></td></tr></table></div>"
        },
        "type": {
          "coding": [
            {
              "code": "122575003",
              "system": "http://snomed.info/sct",
              "display": "Urine specimen"
            }
          ]
        }
      }
    },
    {
      "fullUrl": "urn:uuid:a44c02d7-c0df-4792-8413-7940d4b2e255",
      "resource": {
        "resourceType": "Specimen",
        "id": "a44c02d7-c0df-4792-8413-7940d4b2e255",
        "meta": {
          "profile": [
            "http://hl7.eu/fhir/laboratory/StructureDefinition/Specimen-eu-lab"
          ]
        },
        "collection": {
          "collectedDateTime": "2019-12-20"
        },
        "text": {
          "status": "generated",
          "div": "<div xmlns=\"http://www.w3.org/1999/xhtml\"><table class=\"hl7__eu__lab__report\"><tr><th>Specimen</th><th>Collection Date</th></tr><tr><td>Whole blood specimen (specimen)</td><td><span class=\"nb\">20-Dec-2019</span></td></tr></table></div>"
        },
        "type": {
          "coding": [
            {
              "code": "258580003",
              "system": "http://snomed.info/sct",
              "display": "Whole blood specimen (specimen)"
            }
          ]
        }
      }
    },
    {
      "fullUrl": "urn:uuid:d390d5c2-87f4-4674-9320-6d631aeba0b1",
      "resource": {
        "resourceType": "Observation",
        "id": "d390d5c2-87f4-4674-9320-6d631aeba0b1",
        "meta": {
          "profile": [
            "http://hl7.eu/fhir/laboratory/StructureDefinition/Observation-resultslab-eu-lab"
          ]
        },
        "performer": [
          {
            "display": "The Central European Lab"
          }
        ],
        "category": [
          {
            "coding": [
              {
                "system": "http://terminology.hl7.org/CodeSystem/observation-category",
                "code": "laboratory"
              }
            ]
          }
        ],
        "code": {
          "coding": [
            {
              "code": "2345-7",
              "system": "http://loinc.org",
              "display": "Glucose [Mass/volume] in Serum or Plasma"
            }
          ],
          "text": "Glucose [Mass/volume] in Serum or Plasma"
        },
        "valueQuantity": {
          "system": "http://unitsofmeasure.org",
          "value": 89.9,
          "unit": "mg/dL",
          "code": "mg/dL"
        },
        "referenceRange": [
          {
            "low": {
              "value": 70,
              "code": "mg/dL",
              "system": "http://unitsofmeasure.org"
            }
          },
          {
            "high": {
              "value": 140,
              "code": "mg/dL",
              "system": "http://unitsofmeasure.org"
            }
          }
        ],
        "text": {
          "status": "generated",
          "div": "<div xmlns=\"http://www.w3.org/1999/xhtml\"><table class=\"hl7__eu__lab__report\"><tr><th>Test</th><th>20-Dec-2019</th><th>Reference&#xA0;Range</th><th>Unit</th></tr><tr><td>Glucose [Mass/volume] in Serum or Plasma</td><td>89.9</td><td>70 - 140</td><td></td><td>mg/dL</td></tr></table></div>"
        },
        "status": "final",
        "subject": {
          "reference": "urn:uuid:0a8d2424-8360-40b6-af03-cfd68496f2d1",
          "display": "Victor Lagarde"
        },
        "effectiveDateTime": "2019-12-20T04:48:18Z",
        "specimen": {
          "reference": "urn:uuid:90863232-5e0d-4a53-b11e-f8df9db10839"
        }
      }
    },
    {
      "fullUrl": "urn:uuid:08edb86f-3e86-4fc1-9167-52a71f6d3767",
      "resource": {
        "resourceType": "Observation",
        "id": "08edb86f-3e86-4fc1-9167-52a71f6d3767",
        "meta": {
          "profile": [
            "http://hl7.eu/fhir/laboratory/StructureDefinition/Observation-resultslab-eu-lab"
          ]
        },
        "performer": [
          {
            "display": "The Central European Lab"
          }
        ],
        "category": [
          {
            "coding": [
              {
                "system": "http://terminology.hl7.org/CodeSystem/observation-category",
                "code": "laboratory"
              }
            ]
          }
        ],
        "code": {
          "coding": [
            {
              "code": "3094-0",
              "system": "http://loinc.org",
              "display": "Urea nitrogen [Mass/volume] in Serum or Plasma"
            }
          ],
          "text": "Urea nitrogen [Mass/volume] in Serum or Plasma"
        },
        "valueQuantity": {
          "system": "http://unitsofmeasure.org",
          "value": 14,
          "unit": "mg/dL",
          "code": "mg/dL"
        },
        "referenceRange": [
          {
            "low": {
              "value": 7,
              "code": "mg/dL",
              "system": "http://unitsofmeasure.org"
            }
          },
          {
            "high": {
              "value": 20,
              "code": "mg/dL",
              "system": "http://unitsofmeasure.org"
            }
          }
        ],
        "text": {
          "status": "generated",
          "div": "<div xmlns=\"http://www.w3.org/1999/xhtml\"><table class=\"hl7__eu__lab__report\"><tr><th>Test</th><th>20-Dec-2019</th><th>Reference&#xA0;Range</th><th>Unit</th></tr><tr><td>Urea nitrogen [Mass/volume] in Serum or Plasma</td><td>14.0</td><td>7 - 20</td><td></td><td>mg/dL</td></tr></table></div>"
        },
        "status": "final",
        "subject": {
          "reference": "urn:uuid:0a8d2424-8360-40b6-af03-cfd68496f2d1",
          "display": "Victor Lagarde"
        },
        "effectiveDateTime": "2019-12-20T04:48:18Z",
        "specimen": {
          "reference": "urn:uuid:90863232-5e0d-4a53-b11e-f8df9db10839"
        }
      }
    },
    {
      "fullUrl": "urn:uuid:8fa8873f-7fe0-4cd1-9cde-0cd242d1e00b",
      "resource": {
        "resourceType": "Observation",
        "id": "8fa8873f-7fe0-4cd1-9cde-0cd242d1e00b",
        "meta": {
          "profile": [
            "http://hl7.eu/fhir/laboratory/StructureDefinition/Observation-resultslab-eu-lab"
          ]
        },
        "performer": [
          {
            "display": "The Central European Lab"
          }
        ],
        "category": [
          {
            "coding": [
              {
                "system": "http://terminology.hl7.org/CodeSystem/observation-category",
                "code": "laboratory"
              }
            ]
          }
        ],
        "code": {
          "coding": [
            {
              "code": "2160-0",
              "system": "http://loinc.org",
              "display": "Creatinine [Mass/volume] in Serum or Plasma"
            }
          ],
          "text": "Creatinine [Mass/volume] in Serum or Plasma"
        },
        "valueQuantity": {
          "system": "http://unitsofmeasure.org",
          "value": 2,
          "unit": "mg/dL",
          "code": "mg/dL"
        },
        "referenceRange": [
          {
            "low": {
              "value": 0.9,
              "code": "mg/dL",
              "system": "http://unitsofmeasure.org"
            }
          },
          {
            "high": {
              "value": 1.3,
              "code": "mg/dL",
              "system": "http://unitsofmeasure.org"
            }
          }
        ],
        "interpretation": [
          {
            "coding": [
              {
                "code": "H",
                "system": "http://terminology.hl7.org/CodeSystem/v3-ObservationInterpretation",
                "display": "High"
              }
            ]
          }
        ],
        "text": {
          "status": "generated",
          "div": "<div xmlns=\"http://www.w3.org/1999/xhtml\"><table class=\"hl7__eu__lab__report\"><tr><th>Test</th><th>20-Dec-2019</th><th>Reference&#xA0;Range</th><th>Unit</th></tr><tr><td>Creatinine [Mass/volume] in Serum or Plasma</td><td>2.0</td><td>0.9 - 1.3</td><td>H</td><td>mg/dL</td></tr></table></div>"
        },
        "status": "final",
        "subject": {
          "reference": "urn:uuid:0a8d2424-8360-40b6-af03-cfd68496f2d1",
          "display": "Victor Lagarde"
        },
        "effectiveDateTime": "2019-12-20T04:48:18Z",
        "specimen": {
          "reference": "urn:uuid:90863232-5e0d-4a53-b11e-f8df9db10839"
        }
      }
    },
    {
      "fullUrl": "urn:uuid:04cd97c8-f30a-4e98-86dc-7c01d76d15b5",
      "resource": {
        "resourceType": "Observation",
        "id": "04cd97c8-f30a-4e98-86dc-7c01d76d15b5",
        "meta": {
          "profile": [
            "http://hl7.eu/fhir/laboratory/StructureDefinition/Observation-resultslab-eu-lab"
          ]
        },
        "performer": [
          {
            "display": "The Central European Lab"
          }
        ],
        "category": [
          {
            "coding": [
              {
                "system": "http://terminology.hl7.org/CodeSystem/observation-category",
                "code": "laboratory"
              }
            ]
          }
        ],
        "code": {
          "coding": [
            {
              "code": "17861-6",
              "system": "http://loinc.org",
              "display": "Calcium [Mass/volume] in Serum or Plasma"
            }
          ],
          "text": "Calcium [Mass/volume] in Serum or Plasma"
        },
        "valueQuantity": {
          "system": "http://unitsofmeasure.org",
          "value": 9.4,
          "unit": "mg/dL",
          "code": "mg/dL"
        },
        "referenceRange": [
          {
            "low": {
              "value": 8.5,
              "code": "mg/dL",
              "system": "http://unitsofmeasure.org"
            }
          },
          {
            "high": {
              "value": 10.5,
              "code": "mg/dL",
              "system": "http://unitsofmeasure.org"
            }
          }
        ],
        "text": {
          "status": "generated",
          "div": "<div xmlns=\"http://www.w3.org/1999/xhtml\"><table class=\"hl7__eu__lab__report\"><tr><th>Test</th><th>20-Dec-2019</th><th>Reference&#xA0;Range</th><th>Unit</th></tr><tr><td>Calcium [Mass/volume] in Serum or Plasma</td><td>9.4</td><td>8.5 - 10.5</td><td></td><td>mg/dL</td></tr></table></div>"
        },
        "status": "final",
        "subject": {
          "reference": "urn:uuid:0a8d2424-8360-40b6-af03-cfd68496f2d1",
          "display": "Victor Lagarde"
        },
        "effectiveDateTime": "2019-12-20T04:48:18Z",
        "specimen": {
          "reference": "urn:uuid:90863232-5e0d-4a53-b11e-f8df9db10839"
        }
      }
    },
    {
      "fullUrl": "urn:uuid:1c4e025a-2fd8-4aa6-94fd-b9998c59f479",
      "resource": {
        "resourceType": "Observation",
        "id": "1c4e025a-2fd8-4aa6-94fd-b9998c59f479",
        "meta": {
          "profile": [
            "http://hl7.eu/fhir/laboratory/StructureDefinition/Observation-resultslab-eu-lab"
          ]
        },
        "performer": [
          {
            "display": "The Central European Lab"
          }
        ],
        "category": [
          {
            "coding": [
              {
                "system": "http://terminology.hl7.org/CodeSystem/observation-category",
                "code": "laboratory"
              }
            ]
          }
        ],
        "code": {
          "coding": [
            {
              "code": "2951-2",
              "system": "http://loinc.org",
              "display": "Sodium [Moles/volume] in Serum or Plasma"
            }
          ],
          "text": "Sodium [Moles/volume] in Serum or Plasma"
        },
        "valueQuantity": {
          "system": "http://unitsofmeasure.org",
          "value": 142.3,
          "unit": "mmol/L",
          "code": "mmol/L"
        },
        "referenceRange": [
          {
            "low": {
              "value": 135,
              "code": "mmol/L",
              "system": "http://unitsofmeasure.org"
            }
          },
          {
            "high": {
              "value": 145,
              "code": "mmol/L",
              "system": "http://unitsofmeasure.org"
            }
          }
        ],
        "text": {
          "status": "generated",
          "div": "<div xmlns=\"http://www.w3.org/1999/xhtml\"><table class=\"hl7__eu__lab__report\"><tr><th>Test</th><th>20-Dec-2019</th><th>Reference&#xA0;Range</th><th>Unit</th></tr><tr><td>Sodium [Moles/volume] in Serum or Plasma</td><td>142.3</td><td>135 - 145</td><td></td><td>mmol/L</td></tr></table></div>"
        },
        "status": "final",
        "subject": {
          "reference": "urn:uuid:0a8d2424-8360-40b6-af03-cfd68496f2d1",
          "display": "Victor Lagarde"
        },
        "effectiveDateTime": "2019-12-20T04:48:18Z",
        "specimen": {
          "reference": "urn:uuid:90863232-5e0d-4a53-b11e-f8df9db10839"
        }
      }
    },
    {
      "fullUrl": "urn:uuid:443228e8-23bd-42ef-9ae0-c1263b4ce471",
      "resource": {
        "resourceType": "Observation",
        "id": "443228e8-23bd-42ef-9ae0-c1263b4ce471",
        "meta": {
          "profile": [
            "http://hl7.eu/fhir/laboratory/StructureDefinition/Observation-resultslab-eu-lab"
          ]
        },
        "performer": [
          {
            "display": "The Central European Lab"
          }
        ],
        "category": [
          {
            "coding": [
              {
                "system": "http://terminology.hl7.org/CodeSystem/observation-category",
                "code": "laboratory"
              }
            ]
          }
        ],
        "code": {
          "coding": [
            {
              "code": "2823-3",
              "system": "http://loinc.org",
              "display": "Potassium [Moles/volume] in Serum or Plasma"
            }
          ],
          "text": "Potassium [Moles/volume] in Serum or Plasma"
        },
        "valueQuantity": {
          "system": "http://unitsofmeasure.org",
          "value": 3.8,
          "unit": "mmol/L",
          "code": "mmol/L"
        },
        "referenceRange": [
          {
            "low": {
              "value": 3.5,
              "code": "mmol/L",
              "system": "http://unitsofmeasure.org"
            }
          },
          {
            "high": {
              "value": 5.3,
              "code": "mmol/L",
              "system": "http://unitsofmeasure.org"
            }
          }
        ],
        "text": {
          "status": "generated",
          "div": "<div xmlns=\"http://www.w3.org/1999/xhtml\"><table class=\"hl7__eu__lab__report\"><tr><th>Test</th><th>20-Dec-2019</th><th>Reference&#xA0;Range</th><th>Unit</th></tr><tr><td>Potassium [Moles/volume] in Serum or Plasma</td><td>3.8</td><td>3.5 - 5.3</td><td></td><td>mmol/L</td></tr></table></div>"
        },
        "status": "final",
        "subject": {
          "reference": "urn:uuid:0a8d2424-8360-40b6-af03-cfd68496f2d1",
          "display": "Victor Lagarde"
        },
        "effectiveDateTime": "2019-12-20T04:48:18Z",
        "specimen": {
          "reference": "urn:uuid:90863232-5e0d-4a53-b11e-f8df9db10839"
        }
      }
    },
    {
      "fullUrl": "urn:uuid:db9afdae-0eb6-40b4-b12c-79845736f853",
      "resource": {
        "resourceType": "Observation",
        "id": "db9afdae-0eb6-40b4-b12c-79845736f853",
        "meta": {
          "profile": [
            "http://hl7.eu/fhir/laboratory/StructureDefinition/Observation-resultslab-eu-lab"
          ]
        },
        "performer": [
          {
            "display": "The Central European Lab"
          }
        ],
        "category": [
          {
            "coding": [
              {
                "system": "http://terminology.hl7.org/CodeSystem/observation-category",
                "code": "laboratory"
              }
            ]
          }
        ],
        "code": {
          "coding": [
            {
              "code": "2075-0",
              "system": "http://loinc.org",
              "display": "Chloride [Moles/volume] in Serum or Plasma"
            }
          ],
          "text": "Chloride [Moles/volume] in Serum or Plasma"
        },
        "valueQuantity": {
          "system": "http://unitsofmeasure.org",
          "value": 108,
          "unit": "mmol/L",
          "code": "mmol/L"
        },
        "referenceRange": [
          {
            "low": {
              "value": 98,
              "code": "mmol/L",
              "system": "http://unitsofmeasure.org"
            }
          },
          {
            "high": {
              "value": 107,
              "code": "mmol/L",
              "system": "http://unitsofmeasure.org"
            }
          }
        ],
        "interpretation": [
          {
            "coding": [
              {
                "code": "H",
                "system": "http://terminology.hl7.org/CodeSystem/v3-ObservationInterpretation",
                "display": "High"
              }
            ]
          }
        ],
        "text": {
          "status": "generated",
          "div": "<div xmlns=\"http://www.w3.org/1999/xhtml\"><table class=\"hl7__eu__lab__report\"><tr><th>Test</th><th>20-Dec-2019</th><th>Reference&#xA0;Range</th><th>Unit</th></tr><tr><td>Chloride [Moles/volume] in Serum or Plasma</td><td>108.0</td><td>98 - 107</td><td>H</td><td>mmol/L</td></tr></table></div>"
        },
        "status": "final",
        "subject": {
          "reference": "urn:uuid:0a8d2424-8360-40b6-af03-cfd68496f2d1",
          "display": "Victor Lagarde"
        },
        "effectiveDateTime": "2019-12-20T04:48:18Z",
        "specimen": {
          "reference": "urn:uuid:90863232-5e0d-4a53-b11e-f8df9db10839"
        }
      }
    },
    {
      "fullUrl": "urn:uuid:48729dc8-c970-459a-bca1-742ffd3f8fc3",
      "resource": {
        "resourceType": "Observation",
        "id": "48729dc8-c970-459a-bca1-742ffd3f8fc3",
        "meta": {
          "profile": [
            "http://hl7.eu/fhir/laboratory/StructureDefinition/Observation-resultslab-eu-lab"
          ]
        },
        "performer": [
          {
            "display": "The Central European Lab"
          }
        ],
        "category": [
          {
            "coding": [
              {
                "system": "http://terminology.hl7.org/CodeSystem/observation-category",
                "code": "laboratory"
              }
            ]
          }
        ],
        "code": {
          "coding": [
            {
              "code": "2028-9",
              "system": "http://loinc.org",
              "display": "Carbon dioxide, total [Moles/volume] in Serum or Plasma"
            }
          ],
          "text": "Carbon dioxide, total [Moles/volume] in Serum or Plasma"
        },
        "valueQuantity": {
          "system": "http://unitsofmeasure.org",
          "value": 27.1,
          "unit": "mmol/L",
          "code": "mmol/L"
        },
        "referenceRange": [
          {
            "low": {
              "value": 22,
              "code": "mmol/L",
              "system": "http://unitsofmeasure.org"
            }
          },
          {
            "high": {
              "value": 33,
              "code": "mmol/L",
              "system": "http://unitsofmeasure.org"
            }
          }
        ],
        "text": {
          "status": "generated",
          "div": "<div xmlns=\"http://www.w3.org/1999/xhtml\"><table class=\"hl7__eu__lab__report\"><tr><th>Test</th><th>20-Dec-2019</th><th>Reference&#xA0;Range</th><th>Unit</th></tr><tr><td>Carbon dioxide, total [Moles/volume] in Serum or Plasma</td><td>27.1</td><td>22 - 33</td><td></td><td>mmol/L</td></tr></table></div>"
        },
        "status": "final",
        "subject": {
          "reference": "urn:uuid:0a8d2424-8360-40b6-af03-cfd68496f2d1",
          "display": "Victor Lagarde"
        },
        "effectiveDateTime": "2019-12-20T04:48:18Z",
        "specimen": {
          "reference": "urn:uuid:90863232-5e0d-4a53-b11e-f8df9db10839"
        }
      }
    },
    {
      "fullUrl": "urn:uuid:e421c8b1-8e0e-4d17-8ea3-8305e3421034",
      "resource": {
        "resourceType": "Observation",
        "id": "e421c8b1-8e0e-4d17-8ea3-8305e3421034",
        "meta": {
          "profile": [
            "http://hl7.eu/fhir/laboratory/StructureDefinition/Observation-resultslab-eu-lab"
          ]
        },
        "performer": [
          {
            "display": "The Central European Lab"
          }
        ],
        "category": [
          {
            "coding": [
              {
                "system": "http://terminology.hl7.org/CodeSystem/observation-category",
                "code": "laboratory"
              }
            ]
          }
        ],
        "code": {
          "coding": [
            {
              "code": "5767-9",
              "system": "http://loinc.org",
              "display": "Appearance of Urine"
            }
          ],
          "text": "Appearance of Urine"
        },
        "text": {
          "status": "generated",
          "div": "<div xmlns=\"http://www.w3.org/1999/xhtml\"><table class=\"hl7__eu__lab__report\"><tr><th>Test</th><th>20-Dec-2019</th><th>Reference&#xA0;Range</th><th>Unit</th></tr><tr><td>Appearance of Urine</td></tr></table></div>"
        },
        "status": "final",
        "subject": {
          "reference": "urn:uuid:0a8d2424-8360-40b6-af03-cfd68496f2d1",
          "display": "Victor Lagarde"
        },
        "effectiveDateTime": "2019-12-20T04:48:18Z",
        "specimen": {
          "reference": "urn:uuid:d9b338ad-fc4f-4422-ac51-8a66c8915bf0"
        }
      }
    },
    {
      "fullUrl": "urn:uuid:45e41816-fbb6-418d-9246-8a596337b031",
      "resource": {
        "resourceType": "Observation",
        "id": "45e41816-fbb6-418d-9246-8a596337b031",
        "meta": {
          "profile": [
            "http://hl7.eu/fhir/laboratory/StructureDefinition/Observation-resultslab-eu-lab"
          ]
        },
        "performer": [
          {
            "display": "The Central European Lab"
          }
        ],
        "category": [
          {
            "coding": [
              {
                "system": "http://terminology.hl7.org/CodeSystem/observation-category",
                "code": "laboratory"
              }
            ]
          }
        ],
        "code": {
          "coding": [
            {
              "code": "34533-0",
              "system": "http://loinc.org",
              "display": "Odor of Urine"
            }
          ],
          "text": "Odor of Urine"
        },
        "text": {
          "status": "generated",
          "div": "<div xmlns=\"http://www.w3.org/1999/xhtml\"><table class=\"hl7__eu__lab__report\"><tr><th>Test</th><th>20-Dec-2019</th><th>Reference&#xA0;Range</th><th>Unit</th></tr><tr><td>Odor of Urine</td></tr></table></div>"
        },
        "status": "final",
        "subject": {
          "reference": "urn:uuid:0a8d2424-8360-40b6-af03-cfd68496f2d1",
          "display": "Victor Lagarde"
        },
        "effectiveDateTime": "2019-12-20T04:48:18Z",
        "specimen": {
          "reference": "urn:uuid:d9b338ad-fc4f-4422-ac51-8a66c8915bf0"
        }
      }
    },
    {
      "fullUrl": "urn:uuid:51ccdcb9-9350-44bd-b296-1a6bcb29396f",
      "resource": {
        "resourceType": "Observation",
        "id": "51ccdcb9-9350-44bd-b296-1a6bcb29396f",
        "meta": {
          "profile": [
            "http://hl7.eu/fhir/laboratory/StructureDefinition/Observation-resultslab-eu-lab"
          ]
        },
        "performer": [
          {
            "display": "The Central European Lab"
          }
        ],
        "category": [
          {
            "coding": [
              {
                "system": "http://terminology.hl7.org/CodeSystem/observation-category",
                "code": "laboratory"
              }
            ]
          }
        ],
        "code": {
          "coding": [
            {
              "code": "32167-9",
              "system": "http://loinc.org",
              "display": "Clarity of Urine"
            }
          ],
          "text": "Clarity of Urine"
        },
        "text": {
          "status": "generated",
          "div": "<div xmlns=\"http://www.w3.org/1999/xhtml\"><table class=\"hl7__eu__lab__report\"><tr><th>Test</th><th>20-Dec-2019</th><th>Reference&#xA0;Range</th><th>Unit</th></tr><tr><td>Clarity of Urine</td></tr></table></div>"
        },
        "status": "final",
        "subject": {
          "reference": "urn:uuid:0a8d2424-8360-40b6-af03-cfd68496f2d1",
          "display": "Victor Lagarde"
        },
        "effectiveDateTime": "2019-12-20T04:48:18Z",
        "specimen": {
          "reference": "urn:uuid:d9b338ad-fc4f-4422-ac51-8a66c8915bf0"
        }
      }
    },
    {
      "fullUrl": "urn:uuid:ac8b4fba-7f4e-476a-9879-12a0a21aec6d",
      "resource": {
        "resourceType": "Observation",
        "id": "ac8b4fba-7f4e-476a-9879-12a0a21aec6d",
        "meta": {
          "profile": [
            "http://hl7.eu/fhir/laboratory/StructureDefinition/Observation-resultslab-eu-lab"
          ]
        },
        "performer": [
          {
            "display": "The Central European Lab"
          }
        ],
        "category": [
          {
            "coding": [
              {
                "system": "http://terminology.hl7.org/CodeSystem/observation-category",
                "code": "laboratory"
              }
            ]
          }
        ],
        "code": {
          "coding": [
            {
              "code": "5778-6",
              "system": "http://loinc.org",
              "display": "Color of Urine"
            }
          ],
          "text": "Color of Urine"
        },
        "text": {
          "status": "generated",
          "div": "<div xmlns=\"http://www.w3.org/1999/xhtml\"><table class=\"hl7__eu__lab__report\"><tr><th>Test</th><th>20-Dec-2019</th><th>Reference&#xA0;Range</th><th>Unit</th></tr><tr><td>Color of Urine</td></tr></table></div>"
        },
        "status": "final",
        "subject": {
          "reference": "urn:uuid:0a8d2424-8360-40b6-af03-cfd68496f2d1",
          "display": "Victor Lagarde"
        },
        "effectiveDateTime": "2019-12-20T04:48:18Z",
        "specimen": {
          "reference": "urn:uuid:d9b338ad-fc4f-4422-ac51-8a66c8915bf0"
        }
      }
    },
    {
      "fullUrl": "urn:uuid:7165f8d8-3f8a-4cd4-8d82-5bfdd3fc4b76",
      "resource": {
        "resourceType": "Observation",
        "id": "7165f8d8-3f8a-4cd4-8d82-5bfdd3fc4b76",
        "meta": {
          "profile": [
            "http://hl7.eu/fhir/laboratory/StructureDefinition/Observation-resultslab-eu-lab"
          ]
        },
        "performer": [
          {
            "display": "The Central European Lab"
          }
        ],
        "category": [
          {
            "coding": [
              {
                "system": "http://terminology.hl7.org/CodeSystem/observation-category",
                "code": "laboratory"
              }
            ]
          }
        ],
        "code": {
          "coding": [
            {
              "code": "5792-7",
              "system": "http://loinc.org",
              "display": "Glucose [Mass/volume] in Urine by Test strip"
            }
          ],
          "text": "Glucose [Mass/volume] in Urine by Test strip"
        },
        "valueQuantity": {
          "system": "http://unitsofmeasure.org",
          "value": 1.8,
          "unit": "mg/dL",
          "code": "mg/dL"
        },
        "referenceRange": [
          {
            "low": {
              "value": 0,
              "code": "mg/dL",
              "system": "http://unitsofmeasure.org"
            }
          },
          {
            "high": {
              "value": 0.8,
              "code": "mg/dL",
              "system": "http://unitsofmeasure.org"
            }
          }
        ],
        "interpretation": [
          {
            "coding": [
              {
                "code": "H",
                "system": "http://terminology.hl7.org/CodeSystem/v3-ObservationInterpretation",
                "display": "High"
              }
            ]
          }
        ],
        "text": {
          "status": "generated",
          "div": "<div xmlns=\"http://www.w3.org/1999/xhtml\"><table class=\"hl7__eu__lab__report\"><tr><th>Test</th><th>20-Dec-2019</th><th>Reference&#xA0;Range</th><th>Unit</th></tr><tr><td>Glucose [Mass/volume] in Urine by Test strip</td><td>1.8</td><td>0 - 0.8</td><td>H</td><td>mg/dL</td></tr></table></div>"
        },
        "status": "final",
        "subject": {
          "reference": "urn:uuid:0a8d2424-8360-40b6-af03-cfd68496f2d1",
          "display": "Victor Lagarde"
        },
        "effectiveDateTime": "2019-12-20T04:48:18Z",
        "specimen": {
          "reference": "urn:uuid:d9b338ad-fc4f-4422-ac51-8a66c8915bf0"
        }
      }
    },
    {
      "fullUrl": "urn:uuid:76d9adbf-03f4-4ae7-b01b-63da6760066e",
      "resource": {
        "resourceType": "Observation",
        "id": "76d9adbf-03f4-4ae7-b01b-63da6760066e",
        "meta": {
          "profile": [
            "http://hl7.eu/fhir/laboratory/StructureDefinition/Observation-resultslab-eu-lab"
          ]
        },
        "performer": [
          {
            "display": "The Central European Lab"
          }
        ],
        "category": [
          {
            "coding": [
              {
                "system": "http://terminology.hl7.org/CodeSystem/observation-category",
                "code": "laboratory"
              }
            ]
          }
        ],
        "code": {
          "coding": [
            {
              "code": "25428-4",
              "system": "http://loinc.org",
              "display": "Glucose [Presence] in Urine by Test strip"
            }
          ],
          "text": "Glucose [Presence] in Urine by Test strip"
        },
        "text": {
          "status": "generated",
          "div": "<div xmlns=\"http://www.w3.org/1999/xhtml\"><table class=\"hl7__eu__lab__report\"><tr><th>Test</th><th>20-Dec-2019</th><th>Reference&#xA0;Range</th><th>Unit</th></tr><tr><td>Glucose [Presence] in Urine by Test strip</td></tr></table></div>"
        },
        "status": "final",
        "subject": {
          "reference": "urn:uuid:0a8d2424-8360-40b6-af03-cfd68496f2d1",
          "display": "Victor Lagarde"
        },
        "effectiveDateTime": "2019-12-20T04:48:18Z",
        "specimen": {
          "reference": "urn:uuid:d9b338ad-fc4f-4422-ac51-8a66c8915bf0"
        }
      }
    },
    {
      "fullUrl": "urn:uuid:79e28198-3546-491b-83e0-3e1bb7e02567",
      "resource": {
        "resourceType": "Observation",
        "id": "79e28198-3546-491b-83e0-3e1bb7e02567",
        "meta": {
          "profile": [
            "http://hl7.eu/fhir/laboratory/StructureDefinition/Observation-resultslab-eu-lab"
          ]
        },
        "performer": [
          {
            "display": "The Central European Lab"
          }
        ],
        "category": [
          {
            "coding": [
              {
                "system": "http://terminology.hl7.org/CodeSystem/observation-category",
                "code": "laboratory"
              }
            ]
          }
        ],
        "code": {
          "coding": [
            {
              "code": "20505-4",
              "system": "http://loinc.org",
              "display": "Bilirubin.total [Mass/volume] in Urine by Test strip"
            }
          ],
          "text": "Bilirubin.total [Mass/volume] in Urine by Test strip"
        },
        "valueQuantity": {
          "system": "http://unitsofmeasure.org",
          "value": 0.6,
          "unit": "mg/dL",
          "code": "mg/dL"
        },
        "referenceRange": [
          {
            "low": {
              "value": 0,
              "code": "mg/dL",
              "system": "http://unitsofmeasure.org"
            }
          },
          {
            "high": {
              "value": 1.9,
              "code": "mg/dL",
              "system": "http://unitsofmeasure.org"
            }
          }
        ],
        "text": {
          "status": "generated",
          "div": "<div xmlns=\"http://www.w3.org/1999/xhtml\"><table class=\"hl7__eu__lab__report\"><tr><th>Test</th><th>20-Dec-2019</th><th>Reference&#xA0;Range</th><th>Unit</th></tr><tr><td>Bilirubin.total [Mass/volume] in Urine by Test strip</td><td>0.6</td><td>0 - 1.9</td><td></td><td>mg/dL</td></tr></table></div>"
        },
        "status": "final",
        "subject": {
          "reference": "urn:uuid:0a8d2424-8360-40b6-af03-cfd68496f2d1",
          "display": "Victor Lagarde"
        },
        "effectiveDateTime": "2019-12-20T04:48:18Z",
        "specimen": {
          "reference": "urn:uuid:d9b338ad-fc4f-4422-ac51-8a66c8915bf0"
        }
      }
    },
    {
      "fullUrl": "urn:uuid:4720dc03-9f53-4da3-9d99-e009b4e9f50d",
      "resource": {
        "resourceType": "Observation",
        "id": "4720dc03-9f53-4da3-9d99-e009b4e9f50d",
        "meta": {
          "profile": [
            "http://hl7.eu/fhir/laboratory/StructureDefinition/Observation-resultslab-eu-lab"
          ]
        },
        "performer": [
          {
            "display": "The Central European Lab"
          }
        ],
        "category": [
          {
            "coding": [
              {
                "system": "http://terminology.hl7.org/CodeSystem/observation-category",
                "code": "laboratory"
              }
            ]
          }
        ],
        "code": {
          "coding": [
            {
              "code": "5770-3",
              "system": "http://loinc.org",
              "display": "Bilirubin.total [Presence] in Urine by Test strip"
            }
          ],
          "text": "Bilirubin.total [Presence] in Urine by Test strip"
        },
        "text": {
          "status": "generated",
          "div": "<div xmlns=\"http://www.w3.org/1999/xhtml\"><table class=\"hl7__eu__lab__report\"><tr><th>Test</th><th>20-Dec-2019</th><th>Reference&#xA0;Range</th><th>Unit</th></tr><tr><td>Bilirubin.total [Presence] in Urine by Test strip</td></tr></table></div>"
        },
        "status": "final",
        "subject": {
          "reference": "urn:uuid:0a8d2424-8360-40b6-af03-cfd68496f2d1",
          "display": "Victor Lagarde"
        },
        "effectiveDateTime": "2019-12-20T04:48:18Z",
        "specimen": {
          "reference": "urn:uuid:d9b338ad-fc4f-4422-ac51-8a66c8915bf0"
        }
      }
    },
    {
      "fullUrl": "urn:uuid:68525ba0-fa68-415d-a2c7-c93f41784aba",
      "resource": {
        "resourceType": "Observation",
        "id": "68525ba0-fa68-415d-a2c7-c93f41784aba",
        "meta": {
          "profile": [
            "http://hl7.eu/fhir/laboratory/StructureDefinition/Observation-resultslab-eu-lab"
          ]
        },
        "performer": [
          {
            "display": "The Central European Lab"
          }
        ],
        "category": [
          {
            "coding": [
              {
                "system": "http://terminology.hl7.org/CodeSystem/observation-category",
                "code": "laboratory"
              }
            ]
          }
        ],
        "code": {
          "coding": [
            {
              "code": "5797-6",
              "system": "http://loinc.org",
              "display": "Ketones [Mass/volume] in Urine by Test strip"
            }
          ],
          "text": "Ketones [Mass/volume] in Urine by Test strip"
        },
        "valueQuantity": {
          "system": "http://unitsofmeasure.org",
          "value": 16.4,
          "unit": "mg/dL",
          "code": "mg/dL"
        },
        "referenceRange": [
          {
            "low": {
              "value": 0,
              "code": "mg/dL",
              "system": "http://unitsofmeasure.org"
            }
          },
          {
            "high": {
              "value": 3,
              "code": "mg/dL",
              "system": "http://unitsofmeasure.org"
            }
          }
        ],
        "interpretation": [
          {
            "coding": [
              {
                "code": "H",
                "system": "http://terminology.hl7.org/CodeSystem/v3-ObservationInterpretation",
                "display": "High"
              }
            ]
          }
        ],
        "text": {
          "status": "generated",
          "div": "<div xmlns=\"http://www.w3.org/1999/xhtml\"><table class=\"hl7__eu__lab__report\"><tr><th>Test</th><th>20-Dec-2019</th><th>Reference&#xA0;Range</th><th>Unit</th></tr><tr><td>Ketones [Mass/volume] in Urine by Test strip</td><td>16.4</td><td>0 - 3</td><td>H</td><td>mg/dL</td></tr></table></div>"
        },
        "status": "final",
        "subject": {
          "reference": "urn:uuid:0a8d2424-8360-40b6-af03-cfd68496f2d1",
          "display": "Victor Lagarde"
        },
        "effectiveDateTime": "2019-12-20T04:48:18Z",
        "specimen": {
          "reference": "urn:uuid:d9b338ad-fc4f-4422-ac51-8a66c8915bf0"
        }
      }
    },
    {
      "fullUrl": "urn:uuid:1e64addb-a947-4791-a6a2-964859737097",
      "resource": {
        "resourceType": "Observation",
        "id": "1e64addb-a947-4791-a6a2-964859737097",
        "meta": {
          "profile": [
            "http://hl7.eu/fhir/laboratory/StructureDefinition/Observation-resultslab-eu-lab"
          ]
        },
        "performer": [
          {
            "display": "The Central European Lab"
          }
        ],
        "category": [
          {
            "coding": [
              {
                "system": "http://terminology.hl7.org/CodeSystem/observation-category",
                "code": "laboratory"
              }
            ]
          }
        ],
        "code": {
          "coding": [
            {
              "code": "2514-8",
              "system": "http://loinc.org",
              "display": "Ketones [Presence] in Urine by Test strip"
            }
          ],
          "text": "Ketones [Presence] in Urine by Test strip"
        },
        "text": {
          "status": "generated",
          "div": "<div xmlns=\"http://www.w3.org/1999/xhtml\"><table class=\"hl7__eu__lab__report\"><tr><th>Test</th><th>20-Dec-2019</th><th>Reference&#xA0;Range</th><th>Unit</th></tr><tr><td>Ketones [Presence] in Urine by Test strip</td></tr></table></div>"
        },
        "status": "final",
        "subject": {
          "reference": "urn:uuid:0a8d2424-8360-40b6-af03-cfd68496f2d1",
          "display": "Victor Lagarde"
        },
        "effectiveDateTime": "2019-12-20T04:48:18Z",
        "specimen": {
          "reference": "urn:uuid:d9b338ad-fc4f-4422-ac51-8a66c8915bf0"
        }
      }
    },
    {
      "fullUrl": "urn:uuid:2207cf5a-30f0-4ef7-8b14-d321cdbe0245",
      "resource": {
        "resourceType": "Observation",
        "id": "2207cf5a-30f0-4ef7-8b14-d321cdbe0245",
        "meta": {
          "profile": [
            "http://hl7.eu/fhir/laboratory/StructureDefinition/Observation-resultslab-eu-lab"
          ]
        },
        "performer": [
          {
            "display": "The Central European Lab"
          }
        ],
        "category": [
          {
            "coding": [
              {
                "system": "http://terminology.hl7.org/CodeSystem/observation-category",
                "code": "laboratory"
              }
            ]
          }
        ],
        "code": {
          "coding": [
            {
              "code": "5811-5",
              "system": "http://loinc.org",
              "display": "Specific gravity of Urine by Test strip"
            }
          ],
          "text": "Specific gravity of Urine by Test strip"
        },
        "valueQuantity": {
          "system": "http://unitsofmeasure.org",
          "value": 1,
          "unit": "{nominal}",
          "code": "{nominal}"
        },
        "referenceRange": [
          {
            "low": {
              "value": 1.01,
              "code": "g/mL",
              "system": "http://unitsofmeasure.org"
            }
          },
          {
            "high": {
              "value": 1.03,
              "code": "g/mL",
              "system": "http://unitsofmeasure.org"
            }
          }
        ],
        "interpretation": [
          {
            "coding": [
              {
                "code": "L",
                "system": "http://terminology.hl7.org/CodeSystem/v3-ObservationInterpretation",
                "display": "Low"
              }
            ]
          }
        ],
        "text": {
          "status": "generated",
          "div": "<div xmlns=\"http://www.w3.org/1999/xhtml\"><table class=\"hl7__eu__lab__report\"><tr><th>Test</th><th>20-Dec-2019</th><th>Reference&#xA0;Range</th><th>Unit</th></tr><tr><td>Specific gravity of Urine by Test strip</td><td>1.0</td><td>1.01 - 1.03</td><td>L</td><td>{nominal}</td></tr></table></div>"
        },
        "status": "final",
        "subject": {
          "reference": "urn:uuid:0a8d2424-8360-40b6-af03-cfd68496f2d1",
          "display": "Victor Lagarde"
        },
        "effectiveDateTime": "2019-12-20T04:48:18Z",
        "specimen": {
          "reference": "urn:uuid:d9b338ad-fc4f-4422-ac51-8a66c8915bf0"
        }
      }
    },
    {
      "fullUrl": "urn:uuid:d1bb4a32-bfb9-4c3c-b62e-77dbbd97922f",
      "resource": {
        "resourceType": "Observation",
        "id": "d1bb4a32-bfb9-4c3c-b62e-77dbbd97922f",
        "meta": {
          "profile": [
            "http://hl7.eu/fhir/laboratory/StructureDefinition/Observation-resultslab-eu-lab"
          ]
        },
        "performer": [
          {
            "display": "The Central European Lab"
          }
        ],
        "category": [
          {
            "coding": [
              {
                "system": "http://terminology.hl7.org/CodeSystem/observation-category",
                "code": "laboratory"
              }
            ]
          }
        ],
        "code": {
          "coding": [
            {
              "code": "5803-2",
              "system": "http://loinc.org",
              "display": "pH of Urine by Test strip"
            }
          ],
          "text": "pH of Urine by Test strip"
        },
        "valueQuantity": {
          "system": "http://unitsofmeasure.org",
          "value": 5.4,
          "unit": "pH",
          "code": "pH"
        },
        "referenceRange": [
          {
            "low": {
              "value": 4.5,
              "code": "pH",
              "system": "http://unitsofmeasure.org"
            }
          },
          {
            "high": {
              "value": 7.5,
              "code": "pH",
              "system": "http://unitsofmeasure.org"
            }
          }
        ],
        "text": {
          "status": "generated",
          "div": "<div xmlns=\"http://www.w3.org/1999/xhtml\"><table class=\"hl7__eu__lab__report\"><tr><th>Test</th><th>20-Dec-2019</th><th>Reference&#xA0;Range</th><th>Unit</th></tr><tr><td>pH of Urine by Test strip</td><td>5.4</td><td>4.5 - 7.5</td><td></td><td>pH</td></tr></table></div>"
        },
        "status": "final",
        "subject": {
          "reference": "urn:uuid:0a8d2424-8360-40b6-af03-cfd68496f2d1",
          "display": "Victor Lagarde"
        },
        "effectiveDateTime": "2019-12-20T04:48:18Z",
        "specimen": {
          "reference": "urn:uuid:d9b338ad-fc4f-4422-ac51-8a66c8915bf0"
        }
      }
    },
    {
      "fullUrl": "urn:uuid:3ad8162b-f764-46fd-a1c7-4d43da107047",
      "resource": {
        "resourceType": "Observation",
        "id": "3ad8162b-f764-46fd-a1c7-4d43da107047",
        "meta": {
          "profile": [
            "http://hl7.eu/fhir/laboratory/StructureDefinition/Observation-resultslab-eu-lab"
          ]
        },
        "performer": [
          {
            "display": "The Central European Lab"
          }
        ],
        "category": [
          {
            "coding": [
              {
                "system": "http://terminology.hl7.org/CodeSystem/observation-category",
                "code": "laboratory"
              }
            ]
          }
        ],
        "code": {
          "coding": [
            {
              "code": "5804-0",
              "system": "http://loinc.org",
              "display": "Protein [Mass/volume] in Urine by Test strip"
            }
          ],
          "text": "Protein [Mass/volume] in Urine by Test strip"
        },
        "valueQuantity": {
          "system": "http://unitsofmeasure.org",
          "value": 272.6,
          "unit": "mg/dL",
          "code": "mg/dL"
        },
        "referenceRange": [
          {
            "low": {
              "value": 0,
              "code": "mg/dL",
              "system": "http://unitsofmeasure.org"
            }
          },
          {
            "high": {
              "value": 149,
              "code": "mg/dL",
              "system": "http://unitsofmeasure.org"
            }
          }
        ],
        "interpretation": [
          {
            "coding": [
              {
                "code": "H",
                "system": "http://terminology.hl7.org/CodeSystem/v3-ObservationInterpretation",
                "display": "High"
              }
            ]
          }
        ],
        "text": {
          "status": "generated",
          "div": "<div xmlns=\"http://www.w3.org/1999/xhtml\"><table class=\"hl7__eu__lab__report\"><tr><th>Test</th><th>20-Dec-2019</th><th>Reference&#xA0;Range</th><th>Unit</th></tr><tr><td>Protein [Mass/volume] in Urine by Test strip</td><td>272.6</td><td>0 - 149</td><td>H</td><td>mg/dL</td></tr></table></div>"
        },
        "status": "final",
        "subject": {
          "reference": "urn:uuid:0a8d2424-8360-40b6-af03-cfd68496f2d1",
          "display": "Victor Lagarde"
        },
        "effectiveDateTime": "2019-12-20T04:48:18Z",
        "specimen": {
          "reference": "urn:uuid:d9b338ad-fc4f-4422-ac51-8a66c8915bf0"
        }
      }
    },
    {
      "fullUrl": "urn:uuid:f5d2a36d-3db6-4b31-80e3-dd903ac36a37",
      "resource": {
        "resourceType": "Observation",
        "id": "f5d2a36d-3db6-4b31-80e3-dd903ac36a37",
        "meta": {
          "profile": [
            "http://hl7.eu/fhir/laboratory/StructureDefinition/Observation-resultslab-eu-lab"
          ]
        },
        "performer": [
          {
            "display": "The Central European Lab"
          }
        ],
        "category": [
          {
            "coding": [
              {
                "system": "http://terminology.hl7.org/CodeSystem/observation-category",
                "code": "laboratory"
              }
            ]
          }
        ],
        "code": {
          "coding": [
            {
              "code": "20454-5",
              "system": "http://loinc.org",
              "display": "Protein [Presence] in Urine by Test strip"
            }
          ],
          "text": "Protein [Presence] in Urine by Test strip"
        },
        "text": {
          "status": "generated",
          "div": "<div xmlns=\"http://www.w3.org/1999/xhtml\"><table class=\"hl7__eu__lab__report\"><tr><th>Test</th><th>20-Dec-2019</th><th>Reference&#xA0;Range</th><th>Unit</th></tr><tr><td>Protein [Presence] in Urine by Test strip</td></tr></table></div>"
        },
        "status": "final",
        "subject": {
          "reference": "urn:uuid:0a8d2424-8360-40b6-af03-cfd68496f2d1",
          "display": "Victor Lagarde"
        },
        "effectiveDateTime": "2019-12-20T04:48:18Z",
        "specimen": {
          "reference": "urn:uuid:d9b338ad-fc4f-4422-ac51-8a66c8915bf0"
        }
      }
    },
    {
      "fullUrl": "urn:uuid:a7e00dc9-f040-4fd7-bfea-d68a18b6040a",
      "resource": {
        "resourceType": "Observation",
        "id": "a7e00dc9-f040-4fd7-bfea-d68a18b6040a",
        "meta": {
          "profile": [
            "http://hl7.eu/fhir/laboratory/StructureDefinition/Observation-resultslab-eu-lab"
          ]
        },
        "performer": [
          {
            "display": "The Central European Lab"
          }
        ],
        "category": [
          {
            "coding": [
              {
                "system": "http://terminology.hl7.org/CodeSystem/observation-category",
                "code": "laboratory"
              }
            ]
          }
        ],
        "code": {
          "coding": [
            {
              "code": "5802-4",
              "system": "http://loinc.org",
              "display": "Nitrite [Presence] in Urine by Test strip"
            }
          ],
          "text": "Nitrite [Presence] in Urine by Test strip"
        },
        "text": {
          "status": "generated",
          "div": "<div xmlns=\"http://www.w3.org/1999/xhtml\"><table class=\"hl7__eu__lab__report\"><tr><th>Test</th><th>20-Dec-2019</th><th>Reference&#xA0;Range</th><th>Unit</th></tr><tr><td>Nitrite [Presence] in Urine by Test strip</td></tr></table></div>"
        },
        "status": "final",
        "subject": {
          "reference": "urn:uuid:0a8d2424-8360-40b6-af03-cfd68496f2d1",
          "display": "Victor Lagarde"
        },
        "effectiveDateTime": "2019-12-20T04:48:18Z",
        "specimen": {
          "reference": "urn:uuid:d9b338ad-fc4f-4422-ac51-8a66c8915bf0"
        }
      }
    },
    {
      "fullUrl": "urn:uuid:eb611470-7e77-4e80-856f-a27a0c5527e5",
      "resource": {
        "resourceType": "Observation",
        "id": "eb611470-7e77-4e80-856f-a27a0c5527e5",
        "meta": {
          "profile": [
            "http://hl7.eu/fhir/laboratory/StructureDefinition/Observation-resultslab-eu-lab"
          ]
        },
        "performer": [
          {
            "display": "The Central European Lab"
          }
        ],
        "category": [
          {
            "coding": [
              {
                "system": "http://terminology.hl7.org/CodeSystem/observation-category",
                "code": "laboratory"
              }
            ]
          }
        ],
        "code": {
          "coding": [
            {
              "code": "5794-3",
              "system": "http://loinc.org",
              "display": "Hemoglobin [Presence] in Urine by Test strip"
            }
          ],
          "text": "Hemoglobin [Presence] in Urine by Test strip"
        },
        "text": {
          "status": "generated",
          "div": "<div xmlns=\"http://www.w3.org/1999/xhtml\"><table class=\"hl7__eu__lab__report\"><tr><th>Test</th><th>20-Dec-2019</th><th>Reference&#xA0;Range</th><th>Unit</th></tr><tr><td>Hemoglobin [Presence] in Urine by Test strip</td></tr></table></div>"
        },
        "status": "final",
        "subject": {
          "reference": "urn:uuid:0a8d2424-8360-40b6-af03-cfd68496f2d1",
          "display": "Victor Lagarde"
        },
        "effectiveDateTime": "2019-12-20T04:48:18Z",
        "specimen": {
          "reference": "urn:uuid:d9b338ad-fc4f-4422-ac51-8a66c8915bf0"
        }
      }
    },
    {
      "fullUrl": "urn:uuid:211ba11f-32e0-4362-8c6b-47cc9d4645bf",
      "resource": {
        "resourceType": "Observation",
        "id": "211ba11f-32e0-4362-8c6b-47cc9d4645bf",
        "meta": {
          "profile": [
            "http://hl7.eu/fhir/laboratory/StructureDefinition/Observation-resultslab-eu-lab"
          ]
        },
        "performer": [
          {
            "display": "The Central European Lab"
          }
        ],
        "category": [
          {
            "coding": [
              {
                "system": "http://terminology.hl7.org/CodeSystem/observation-category",
                "code": "laboratory"
              }
            ]
          }
        ],
        "code": {
          "coding": [
            {
              "code": "5799-2",
              "system": "http://loinc.org",
              "display": "Leukocyte esterase [Presence] in Urine by Test strip"
            }
          ],
          "text": "Leukocyte esterase [Presence] in Urine by Test strip"
        },
        "text": {
          "status": "generated",
          "div": "<div xmlns=\"http://www.w3.org/1999/xhtml\"><table class=\"hl7__eu__lab__report\"><tr><th>Test</th><th>20-Dec-2019</th><th>Reference&#xA0;Range</th><th>Unit</th></tr><tr><td>Leukocyte esterase [Presence] in Urine by Test strip</td></tr></table></div>"
        },
        "status": "final",
        "subject": {
          "reference": "urn:uuid:0a8d2424-8360-40b6-af03-cfd68496f2d1",
          "display": "Victor Lagarde"
        },
        "effectiveDateTime": "2019-12-20T04:48:18Z",
        "specimen": {
          "reference": "urn:uuid:d9b338ad-fc4f-4422-ac51-8a66c8915bf0"
        }
      }
    },
    {
      "fullUrl": "urn:uuid:78c2856b-76de-456b-b386-4eda9a181f9b",
      "resource": {
        "resourceType": "Observation",
        "id": "78c2856b-76de-456b-b386-4eda9a181f9b",
        "meta": {
          "profile": [
            "http://hl7.eu/fhir/laboratory/StructureDefinition/Observation-resultslab-eu-lab"
          ]
        },
        "performer": [
          {
            "display": "The Central European Lab"
          }
        ],
        "category": [
          {
            "coding": [
              {
                "system": "http://terminology.hl7.org/CodeSystem/observation-category",
                "code": "laboratory"
              }
            ]
          }
        ],
        "code": {
          "coding": [
            {
              "code": "4548-4",
              "system": "http://loinc.org",
              "display": "Hemoglobin A1c/Hemoglobin.total in Blood"
            }
          ],
          "text": "Hemoglobin A1c/Hemoglobin.total in Blood"
        },
        "valueQuantity": {
          "system": "http://unitsofmeasure.org",
          "value": 3.3,
          "unit": "%",
          "code": "%"
        },
        "referenceRange": [
          {
            "low": {
              "value": 4.3,
              "code": "%",
              "system": "http://unitsofmeasure.org"
            }
          },
          {
            "high": {
              "value": 6,
              "code": "%",
              "system": "http://unitsofmeasure.org"
            }
          }
        ],
        "interpretation": [
          {
            "coding": [
              {
                "code": "L",
                "system": "http://terminology.hl7.org/CodeSystem/v3-ObservationInterpretation",
                "display": "Low"
              }
            ]
          }
        ],
        "text": {
          "status": "generated",
          "div": "<div xmlns=\"http://www.w3.org/1999/xhtml\"><table class=\"hl7__eu__lab__report\"><tr><th>Test</th><th>20-Dec-2019</th><th>Reference&#xA0;Range</th><th>Unit</th></tr><tr><td>Hemoglobin A1c/Hemoglobin.total in Blood</td><td>3.3</td><td>4.3 - 6</td><td>L</td><td>%</td></tr></table></div>"
        },
        "status": "final",
        "subject": {
          "reference": "urn:uuid:0a8d2424-8360-40b6-af03-cfd68496f2d1",
          "display": "Victor Lagarde"
        },
        "effectiveDateTime": "2019-12-20T04:48:18Z",
        "specimen": {
          "reference": "urn:uuid:a44c02d7-c0df-4792-8413-7940d4b2e255"
        }
      }
    },
    {
      "fullUrl": "urn:uuid:640ce64d-292d-47f6-887f-881035b6a34e",
      "resource": {
        "resourceType": "Observation",
        "id": "640ce64d-292d-47f6-887f-881035b6a34e",
        "meta": {
          "profile": [
            "http://hl7.eu/fhir/laboratory/StructureDefinition/Observation-resultslab-eu-lab"
          ]
        },
        "performer": [
          {
            "display": "The Central European Lab"
          }
        ],
        "category": [
          {
            "coding": [
              {
                "system": "http://terminology.hl7.org/CodeSystem/observation-category",
                "code": "laboratory"
              }
            ]
          }
        ],
        "code": {
          "coding": [
            {
              "code": "2339-0",
              "system": "http://loinc.org",
              "display": "Glucose [Mass/volume] in Blood"
            }
          ],
          "text": "Glucose [Mass/volume] in Blood"
        },
        "valueQuantity": {
          "system": "http://unitsofmeasure.org",
          "value": 89.9,
          "unit": "mg/dL",
          "code": "mg/dL"
        },
        "referenceRange": [
          {
            "low": {
              "value": 70,
              "code": "mg/dL",
              "system": "http://unitsofmeasure.org"
            }
          },
          {
            "high": {
              "value": 140,
              "code": "mg/dL",
              "system": "http://unitsofmeasure.org"
            }
          }
        ],
        "text": {
          "status": "generated",
          "div": "<div xmlns=\"http://www.w3.org/1999/xhtml\"><table class=\"hl7__eu__lab__report\"><tr><th>Test</th><th>20-Dec-2019</th><th>Reference&#xA0;Range</th><th>Unit</th></tr><tr><td>Glucose [Mass/volume] in Blood</td><td>89.9</td><td>70 - 140</td><td></td><td>mg/dL</td></tr></table></div>"
        },
        "status": "final",
        "subject": {
          "reference": "urn:uuid:0a8d2424-8360-40b6-af03-cfd68496f2d1",
          "display": "Victor Lagarde"
        },
        "effectiveDateTime": "2019-12-20T04:48:18Z",
        "specimen": {
          "reference": "urn:uuid:a44c02d7-c0df-4792-8413-7940d4b2e255"
        }
      }
    },
    {
      "fullUrl": "urn:uuid:808d058b-82c7-4946-baf2-3e98d974416f",
      "resource": {
        "resourceType": "Observation",
        "id": "808d058b-82c7-4946-baf2-3e98d974416f",
        "meta": {
          "profile": [
            "http://hl7.eu/fhir/laboratory/StructureDefinition/Observation-resultslab-eu-lab"
          ]
        },
        "performer": [
          {
            "display": "The Central European Lab"
          }
        ],
        "category": [
          {
            "coding": [
              {
                "system": "http://terminology.hl7.org/CodeSystem/observation-category",
                "code": "laboratory"
              }
            ]
          }
        ],
        "code": {
          "coding": [
            {
              "code": "6299-2",
              "system": "http://loinc.org",
              "display": "Urea nitrogen [Mass/volume] in Blood"
            }
          ],
          "text": "Urea nitrogen [Mass/volume] in Blood"
        },
        "valueQuantity": {
          "system": "http://unitsofmeasure.org",
          "value": 14,
          "unit": "mg/dL",
          "code": "mg/dL"
        },
        "referenceRange": [
          {
            "low": {
              "value": 7,
              "code": "mg/dL",
              "system": "http://unitsofmeasure.org"
            }
          },
          {
            "high": {
              "value": 20,
              "code": "mg/dL",
              "system": "http://unitsofmeasure.org"
            }
          }
        ],
        "text": {
          "status": "generated",
          "div": "<div xmlns=\"http://www.w3.org/1999/xhtml\"><table class=\"hl7__eu__lab__report\"><tr><th>Test</th><th>20-Dec-2019</th><th>Reference&#xA0;Range</th><th>Unit</th></tr><tr><td>Urea nitrogen [Mass/volume] in Blood</td><td>14.0</td><td>7 - 20</td><td></td><td>mg/dL</td></tr></table></div>"
        },
        "status": "final",
        "subject": {
          "reference": "urn:uuid:0a8d2424-8360-40b6-af03-cfd68496f2d1",
          "display": "Victor Lagarde"
        },
        "effectiveDateTime": "2019-12-20T04:48:18Z",
        "specimen": {
          "reference": "urn:uuid:a44c02d7-c0df-4792-8413-7940d4b2e255"
        }
      }
    },
    {
      "fullUrl": "urn:uuid:e4134197-aef3-41dc-9741-cdc4446770f3",
      "resource": {
        "resourceType": "Observation",
        "id": "e4134197-aef3-41dc-9741-cdc4446770f3",
        "meta": {
          "profile": [
            "http://hl7.eu/fhir/laboratory/StructureDefinition/Observation-resultslab-eu-lab"
          ]
        },
        "performer": [
          {
            "display": "The Central European Lab"
          }
        ],
        "category": [
          {
            "coding": [
              {
                "system": "http://terminology.hl7.org/CodeSystem/observation-category",
                "code": "laboratory"
              }
            ]
          }
        ],
        "code": {
          "coding": [
            {
              "code": "38483-4",
              "system": "http://loinc.org",
              "display": "Creatinine [Mass/volume] in Blood"
            }
          ],
          "text": "Creatinine [Mass/volume] in Blood"
        },
        "valueQuantity": {
          "system": "http://unitsofmeasure.org",
          "value": 3.9,
          "unit": "mg/dL",
          "code": "mg/dL"
        },
        "referenceRange": [
          {
            "low": {
              "value": 0.9,
              "code": "mg/dL",
              "system": "http://unitsofmeasure.org"
            }
          },
          {
            "high": {
              "value": 1.3,
              "code": "mg/dL",
              "system": "http://unitsofmeasure.org"
            }
          }
        ],
        "interpretation": [
          {
            "coding": [
              {
                "code": "H",
                "system": "http://terminology.hl7.org/CodeSystem/v3-ObservationInterpretation",
                "display": "High"
              }
            ]
          }
        ],
        "text": {
          "status": "generated",
          "div": "<div xmlns=\"http://www.w3.org/1999/xhtml\"><table class=\"hl7__eu__lab__report\"><tr><th>Test</th><th>20-Dec-2019</th><th>Reference&#xA0;Range</th><th>Unit</th></tr><tr><td>Creatinine [Mass/volume] in Blood</td><td>3.9</td><td>0.9 - 1.3</td><td>H</td><td>mg/dL</td></tr></table></div>"
        },
        "status": "final",
        "subject": {
          "reference": "urn:uuid:0a8d2424-8360-40b6-af03-cfd68496f2d1",
          "display": "Victor Lagarde"
        },
        "effectiveDateTime": "2019-12-20T04:48:18Z",
        "specimen": {
          "reference": "urn:uuid:a44c02d7-c0df-4792-8413-7940d4b2e255"
        }
      }
    },
    {
      "fullUrl": "urn:uuid:83b3013a-cbcf-4ef7-909d-704b56ccdb43",
      "resource": {
        "resourceType": "Observation",
        "id": "83b3013a-cbcf-4ef7-909d-704b56ccdb43",
        "meta": {
          "profile": [
            "http://hl7.eu/fhir/laboratory/StructureDefinition/Observation-resultslab-eu-lab"
          ]
        },
        "performer": [
          {
            "display": "The Central European Lab"
          }
        ],
        "category": [
          {
            "coding": [
              {
                "system": "http://terminology.hl7.org/CodeSystem/observation-category",
                "code": "laboratory"
              }
            ]
          }
        ],
        "code": {
          "coding": [
            {
              "code": "49765-1",
              "system": "http://loinc.org",
              "display": "Calcium [Mass/volume] in Blood"
            }
          ],
          "text": "Calcium [Mass/volume] in Blood"
        },
        "valueQuantity": {
          "system": "http://unitsofmeasure.org",
          "value": 9.4,
          "unit": "mg/dL",
          "code": "mg/dL"
        },
        "referenceRange": [
          {
            "low": {
              "value": 8.5,
              "code": "mg/dL",
              "system": "http://unitsofmeasure.org"
            }
          },
          {
            "high": {
              "value": 10.5,
              "code": "mg/dL",
              "system": "http://unitsofmeasure.org"
            }
          }
        ],
        "text": {
          "status": "generated",
          "div": "<div xmlns=\"http://www.w3.org/1999/xhtml\"><table class=\"hl7__eu__lab__report\"><tr><th>Test</th><th>20-Dec-2019</th><th>Reference&#xA0;Range</th><th>Unit</th></tr><tr><td>Calcium [Mass/volume] in Blood</td><td>9.4</td><td>8.5 - 10.5</td><td></td><td>mg/dL</td></tr></table></div>"
        },
        "status": "final",
        "subject": {
          "reference": "urn:uuid:0a8d2424-8360-40b6-af03-cfd68496f2d1",
          "display": "Victor Lagarde"
        },
        "effectiveDateTime": "2019-12-20T04:48:18Z",
        "specimen": {
          "reference": "urn:uuid:a44c02d7-c0df-4792-8413-7940d4b2e255"
        }
      }
    },
    {
      "fullUrl": "urn:uuid:cbac3b41-bc75-4742-bd9b-9393bbb7a0c8",
      "resource": {
        "resourceType": "Observation",
        "id": "cbac3b41-bc75-4742-bd9b-9393bbb7a0c8",
        "meta": {
          "profile": [
            "http://hl7.eu/fhir/laboratory/StructureDefinition/Observation-resultslab-eu-lab"
          ]
        },
        "performer": [
          {
            "display": "The Central European Lab"
          }
        ],
        "category": [
          {
            "coding": [
              {
                "system": "http://terminology.hl7.org/CodeSystem/observation-category",
                "code": "laboratory"
              }
            ]
          }
        ],
        "code": {
          "coding": [
            {
              "code": "2947-0",
              "system": "http://loinc.org",
              "display": "Sodium [Moles/volume] in Blood"
            }
          ],
          "text": "Sodium [Moles/volume] in Blood"
        },
        "valueQuantity": {
          "system": "http://unitsofmeasure.org",
          "value": 142.3,
          "unit": "mmol/L",
          "code": "mmol/L"
        },
        "referenceRange": [
          {
            "low": {
              "value": 135,
              "code": "mmol/L",
              "system": "http://unitsofmeasure.org"
            }
          },
          {
            "high": {
              "value": 145,
              "code": "mmol/L",
              "system": "http://unitsofmeasure.org"
            }
          }
        ],
        "text": {
          "status": "generated",
          "div": "<div xmlns=\"http://www.w3.org/1999/xhtml\"><table class=\"hl7__eu__lab__report\"><tr><th>Test</th><th>20-Dec-2019</th><th>Reference&#xA0;Range</th><th>Unit</th></tr><tr><td>Sodium [Moles/volume] in Blood</td><td>142.3</td><td>135 - 145</td><td></td><td>mmol/L</td></tr></table></div>"
        },
        "status": "final",
        "subject": {
          "reference": "urn:uuid:0a8d2424-8360-40b6-af03-cfd68496f2d1",
          "display": "Victor Lagarde"
        },
        "effectiveDateTime": "2019-12-20T04:48:18Z",
        "specimen": {
          "reference": "urn:uuid:a44c02d7-c0df-4792-8413-7940d4b2e255"
        }
      }
    },
    {
      "fullUrl": "urn:uuid:cdccac6c-4711-45e3-a8b8-52c2b806be77",
      "resource": {
        "resourceType": "Observation",
        "id": "cdccac6c-4711-45e3-a8b8-52c2b806be77",
        "meta": {
          "profile": [
            "http://hl7.eu/fhir/laboratory/StructureDefinition/Observation-resultslab-eu-lab"
          ]
        },
        "performer": [
          {
            "display": "The Central European Lab"
          }
        ],
        "category": [
          {
            "coding": [
              {
                "system": "http://terminology.hl7.org/CodeSystem/observation-category",
                "code": "laboratory"
              }
            ]
          }
        ],
        "code": {
          "coding": [
            {
              "code": "6298-4",
              "system": "http://loinc.org",
              "display": "Potassium [Moles/volume] in Blood"
            }
          ],
          "text": "Potassium [Moles/volume] in Blood"
        },
        "valueQuantity": {
          "system": "http://unitsofmeasure.org",
          "value": 3.8,
          "unit": "mmol/L",
          "code": "mmol/L"
        },
        "referenceRange": [
          {
            "low": {
              "value": 3.5,
              "code": "mmol/L",
              "system": "http://unitsofmeasure.org"
            }
          },
          {
            "high": {
              "value": 5.1,
              "code": "mmol/L",
              "system": "http://unitsofmeasure.org"
            }
          }
        ],
        "text": {
          "status": "generated",
          "div": "<div xmlns=\"http://www.w3.org/1999/xhtml\"><table class=\"hl7__eu__lab__report\"><tr><th>Test</th><th>20-Dec-2019</th><th>Reference&#xA0;Range</th><th>Unit</th></tr><tr><td>Potassium [Moles/volume] in Blood</td><td>3.8</td><td>3.5 - 5.1</td><td></td><td>mmol/L</td></tr></table></div>"
        },
        "status": "final",
        "subject": {
          "reference": "urn:uuid:0a8d2424-8360-40b6-af03-cfd68496f2d1",
          "display": "Victor Lagarde"
        },
        "effectiveDateTime": "2019-12-20T04:48:18Z",
        "specimen": {
          "reference": "urn:uuid:a44c02d7-c0df-4792-8413-7940d4b2e255"
        }
      }
    },
    {
      "fullUrl": "urn:uuid:860e38b9-efdc-465e-bf86-8fdf3f9b7e7d",
      "resource": {
        "resourceType": "Observation",
        "id": "860e38b9-efdc-465e-bf86-8fdf3f9b7e7d",
        "meta": {
          "profile": [
            "http://hl7.eu/fhir/laboratory/StructureDefinition/Observation-resultslab-eu-lab"
          ]
        },
        "performer": [
          {
            "display": "The Central European Lab"
          }
        ],
        "category": [
          {
            "coding": [
              {
                "system": "http://terminology.hl7.org/CodeSystem/observation-category",
                "code": "laboratory"
              }
            ]
          }
        ],
        "code": {
          "coding": [
            {
              "code": "2069-3",
              "system": "http://loinc.org",
              "display": "Chloride [Moles/volume] in Blood"
            }
          ],
          "text": "Chloride [Moles/volume] in Blood"
        },
        "valueQuantity": {
          "system": "http://unitsofmeasure.org",
          "value": 108,
          "unit": "mmol/L",
          "code": "mmol/L"
        },
        "referenceRange": [
          {
            "low": {
              "value": 98,
              "code": "mmol/L",
              "system": "http://unitsofmeasure.org"
            }
          },
          {
            "high": {
              "value": 108,
              "code": "mmol/L",
              "system": "http://unitsofmeasure.org"
            }
          }
        ],
        "text": {
          "status": "generated",
          "div": "<div xmlns=\"http://www.w3.org/1999/xhtml\"><table class=\"hl7__eu__lab__report\"><tr><th>Test</th><th>20-Dec-2019</th><th>Reference&#xA0;Range</th><th>Unit</th></tr><tr><td>Chloride [Moles/volume] in Blood</td><td>108.0</td><td>98 - 108</td><td></td><td>mmol/L</td></tr></table></div>"
        },
        "status": "final",
        "subject": {
          "reference": "urn:uuid:0a8d2424-8360-40b6-af03-cfd68496f2d1",
          "display": "Victor Lagarde"
        },
        "effectiveDateTime": "2019-12-20T04:48:18Z",
        "specimen": {
          "reference": "urn:uuid:a44c02d7-c0df-4792-8413-7940d4b2e255"
        }
      }
    },
    {
      "fullUrl": "urn:uuid:cf50d027-1109-4890-90b5-fbe82809ced2",
      "resource": {
        "resourceType": "Observation",
        "id": "cf50d027-1109-4890-90b5-fbe82809ced2",
        "meta": {
          "profile": [
            "http://hl7.eu/fhir/laboratory/StructureDefinition/Observation-resultslab-eu-lab"
          ]
        },
        "performer": [
          {
            "display": "The Central European Lab"
          }
        ],
        "category": [
          {
            "coding": [
              {
                "system": "http://terminology.hl7.org/CodeSystem/observation-category",
                "code": "laboratory"
              }
            ]
          }
        ],
        "code": {
          "coding": [
            {
              "code": "20565-8",
              "system": "http://loinc.org",
              "display": "Carbon dioxide, total [Moles/volume] in Blood"
            }
          ],
          "text": "Carbon dioxide, total [Moles/volume] in Blood"
        },
        "valueQuantity": {
          "system": "http://unitsofmeasure.org",
          "value": 27.1,
          "unit": "mmol/L",
          "code": "mmol/L"
        },
        "referenceRange": [
          {
            "low": {
              "value": 22,
              "code": "mmol/L",
              "system": "http://unitsofmeasure.org"
            }
          },
          {
            "high": {
              "value": 29,
              "code": "mmol/L",
              "system": "http://unitsofmeasure.org"
            }
          }
        ],
        "text": {
          "status": "generated",
          "div": "<div xmlns=\"http://www.w3.org/1999/xhtml\"><table class=\"hl7__eu__lab__report\"><tr><th>Test</th><th>20-Dec-2019</th><th>Reference&#xA0;Range</th><th>Unit</th></tr><tr><td>Carbon dioxide, total [Moles/volume] in Blood</td><td>27.1</td><td>22 - 29</td><td></td><td>mmol/L</td></tr></table></div>"
        },
        "status": "final",
        "subject": {
          "reference": "urn:uuid:0a8d2424-8360-40b6-af03-cfd68496f2d1",
          "display": "Victor Lagarde"
        },
        "effectiveDateTime": "2019-12-20T04:48:18Z",
        "specimen": {
          "reference": "urn:uuid:a44c02d7-c0df-4792-8413-7940d4b2e255"
        }
      }
    },
    {
      "fullUrl": "urn:uuid:812c5fd0-22e5-4c7a-b0c0-4e5ba7d78d22",
      "resource": {
        "resourceType": "Device",
        "id": "812c5fd0-22e5-4c7a-b0c0-4e5ba7d78d22",
        "deviceName": [
          {
            "name": "SYNDERAI Synthetic Generator",
            "type": "manufacturer-name"
          }
        ],
        "version": [
          {
            "value": "5.0"
          }
        ],
        "text": {
          "status": "generated",
          "div": "<div xmlns=\"http://www.w3.org/1999/xhtml\">SYNDERAI Synthetic Generator v5.0</div>"
        },
        "status": "active\"",
        "distinctIdentifier": "synderai-generator-50",
        "manufacturer": "SYNDERAI Project"
      }
    },
    {
      "fullUrl": "urn:uuid:b00896ba-2336-47c5-bae2-56c0cec63fa5",
      "resource": {
        "resourceType": "Provenance",
        "id": "b00896ba-2336-47c5-bae2-56c0cec63fa5",
        "target": [
          {
            "reference": "Patient/0a8d2424-8360-40b6-af03-cfd68496f2d1"
          },
          {
            "reference": "Bundle/fde692b8-da88-4bda-8b2e-69414218f8d0"
          },
          {
            "reference": "Composition/8249a0d9-15a7-448b-b3fc-dd7482e82060"
          },
          {
            "reference": "PractitionerRole/d30fb83e-3ca5-4254-bfff-cca9c837128e"
          },
          {
            "reference": "Practitioner/7251727e-366b-4972-995e-d13b791a1820"
          },
          {
            "reference": "PractitionerRole/0c48702c-551c-47ba-9a31-a5b2836e4d29"
          },
          {
            "reference": "Organization/4a420f44-2690-4255-9f29-04166c09cd10"
          }
        ],
        "activity": {
          "text": "Synthetic Example Data Generation"
        },
        "policy": [
          "https://synderai.net/synderai-synthetic-data-policy"
        ],
        "agent": [
          {
            "type": {
              "text": "author"
            },
            "who": {
              "reference": "Device/812c5fd0-22e5-4c7a-b0c0-4e5ba7d78d22"
            }
          }
        ],
        "reason": [
          {
            "text": "Interoperability Testing and Training (non-clinical use)"
          }
        ],
        "text": {
          "status": "generated",
          "div": "<div xmlns=\"http://www.w3.org/1999/xhtml\">Provenance for SYNDERAI Synthetic Example Data Resource</div>"
        },
        "recorded": "2019-12-20T05:48:18Z"
      }
    },
    {
      "fullUrl": "urn:uuid:d30fb83e-3ca5-4254-bfff-cca9c837128e",
      "resource": {
        "resourceType": "PractitionerRole",
        "id": "d30fb83e-3ca5-4254-bfff-cca9c837128e",
        "meta": {
          "profile": [
            "http://hl7.eu/fhir/base/StructureDefinition/practitionerRole-eu"
          ]
        },
        "text": {
          "status": "generated",
          "div": "<div xmlns=\"http://www.w3.org/1999/xhtml\">Laboratory Role Id: d30fb83e-3ca5-4254-bfff-cca9c837128e</div>"
        },
        "practitioner": {
          "reference": "urn:uuid:7251727e-366b-4972-995e-d13b791a1820"
        }
      }
    },
    {
      "fullUrl": "urn:uuid:7251727e-366b-4972-995e-d13b791a1820",
      "resource": {
        "resourceType": "Practitioner",
        "id": "7251727e-366b-4972-995e-d13b791a1820",
        "meta": {
          "profile": [
            "http://hl7.eu/fhir/base/StructureDefinition/practitioner-eu"
          ]
        },
        "identifier": [
          {
            "assigner": {
              "display": "HL7 Europe"
            },
            "system": "urn:oid:2.16.840.1.113883.2.51.999",
            "value": "282ebc9b-d78d-441a-aa0d-648fdfa2b0f4"
          }
        ],
        "name": [
          {
            "prefix": [
              "dr"
            ],
            "given": [
              "Ex"
            ],
            "family": "Ample"
          }
        ],
        "address": [
          {
            "line": [
              "Laboratoire Central Europenne",
              "Boulevard du Jardin Botanique 32"
            ],
            "postalCode": "1000",
            "city": "Brussels",
            "country": "Belgium"
          }
        ],
        "text": {
          "status": "generated",
          "div": "<div xmlns=\"http://www.w3.org/1999/xhtml\">Laboratory: Laboratoire Central Europenne, 1000 Brussels, Belgium</div>"
        }
      }
    }
  ],
  "type": "document",
  "timestamp": "2019-12-20T05:48:18Z"
}
