{
  "resourceType": "Bundle",
  "id": "8aa8704d-3c7a-40cd-bcbf-bfa66e47359e",
  "meta": {
    "profile": [
      "http://hl7.eu/fhir/laboratory/StructureDefinition/Bundle-eu-lab"
    ]
  },
  "identifier": {
    "assigner": {
      "display": "HL7 Europe"
    },
    "system": "urn:oid:2.16.840.1.113883.2.51.999",
    "value": "5a0d324f-5476-441e-920e-6c34f778f66f"
  },
  "entry": [
    {
      "fullUrl": "urn:uuid:7bc5e070-e19d-4548-891c-7b1b15286400",
      "resource": {
        "resourceType": "Composition",
        "id": "7bc5e070-e19d-4548-891c-7b1b15286400",
        "meta": {
          "profile": [
            "http://hl7.eu/fhir/laboratory/StructureDefinition/Composition-eu-lab"
          ]
        },
        "identifier": {
          "assigner": {
            "display": "HL7 Europe"
          },
          "system": "urn:oid:2.16.840.1.113883.2.51.999",
          "value": "c0d461a9-5968-4810-87d5-3ff6b4704534"
        },
        "author": [
          {
            "reference": "urn:uuid:516a8ff0-a3f0-452c-8883-e38f139e1083"
          }
        ],
        "category": [
          {
            "coding": [
              {
                "code": "26436-6",
                "system": "http://loinc.org",
                "display": "Laboratory studies (set)"
              }
            ]
          }
        ],
        "type": {
          "coding": [
            {
              "code": "11502-2",
              "system": "http://loinc.org",
              "display": "Laboratory report"
            }
          ],
          "text": "Laboratory Report"
        },
        "section": [
          {
            "code": {
              "coding": [
                {
                  "code": "26436-6",
                  "system": "http://loinc.org",
                  "display": "Laboratory studies (set)"
                }
              ],
              "text": "Laboratory studies"
            },
            "section": [
              {
                "code": {
                  "coding": [
                    {
                      "code": "$18719-5",
                      "system": "http://loinc.org",
                      "display": "Chemistry studies (set)"
                    }
                  ],
                  "text": "Chemistry"
                },
                "entry": [
                  {
                    "reference": "urn:uuid:d9661842-f633-4ba6-954d-5daa18335d91"
                  },
                  {
                    "reference": "urn:uuid:1b854e47-5371-42d6-8b31-38507a0ae21d"
                  },
                  {
                    "reference": "urn:uuid:d8f8f884-0b6a-44c3-b243-2885760c0ed5"
                  },
                  {
                    "reference": "urn:uuid:1e3d48b8-0a47-46be-80cb-37bbec253355"
                  },
                  {
                    "reference": "urn:uuid:7de54ce1-538f-402e-b846-f2162a4a2b24"
                  },
                  {
                    "reference": "urn:uuid:2c3715d5-91d6-4827-8376-9de24f70431b"
                  },
                  {
                    "reference": "urn:uuid:aa92af1b-9a50-4275-8b94-39f75c4092a8"
                  },
                  {
                    "reference": "urn:uuid:f4180409-a667-4c86-953d-d29df6014d59"
                  },
                  {
                    "reference": "urn:uuid:51c7e502-5924-4cdf-b708-803f7776a921"
                  },
                  {
                    "reference": "urn:uuid:632494d6-a9eb-4755-9599-89fb144f2950"
                  },
                  {
                    "reference": "urn:uuid:36374079-3bca-400c-ace2-20fd891cc57c"
                  },
                  {
                    "reference": "urn:uuid:4d55dafa-c03b-40a3-924c-bf7170b717b3"
                  },
                  {
                    "reference": "urn:uuid:871b4f2a-41a4-4d5a-948b-3896effae83c"
                  },
                  {
                    "reference": "urn:uuid:d275144b-e288-4caa-bfe9-15c9e90cc63a"
                  },
                  {
                    "reference": "urn:uuid:96d68d8d-a774-4b9d-9d94-e6b14aae6e34"
                  },
                  {
                    "reference": "urn:uuid:bec85a1d-a879-4b04-bb95-958d0cf24eab"
                  },
                  {
                    "reference": "urn:uuid:ea241973-751b-4ba9-84d7-9c259eca5992"
                  },
                  {
                    "reference": "urn:uuid:3ae66ed5-27b9-4f20-901b-c68c22e0aedf"
                  }
                ],
                "text": {
                  "status": "generated",
                  "div": "<div xmlns=\"http://www.w3.org/1999/xhtml\"><h3>Chemistry</h3><table class=\"hl7__eu__lab__report\"><thead><tr><th>Test</th><th>02-JUL-2021</th><th>Reference&#xA0;Range</th><th>Unit</th></tr></thead><tbody><tr><td>Glucose [Mass/volume] in Serum or Plasma</td><td>91.8</td><td>70 - 140</td><td>mg/dL</td></tr><tr><td>Urea nitrogen [Mass/volume] in Serum or Plasma</td><td>12.6</td><td>7 - 20</td><td>mg/dL</td></tr><tr><td>Creatinine [Mass/volume] in Serum or Plasma</td><td><strong>2.0 H</strong></td><td>0.9 - 1.3</td><td>mg/dL</td></tr><tr><td>Calcium [Mass/volume] in Serum or Plasma</td><td>9.9</td><td>8.5 - 10.5</td><td>mg/dL</td></tr><tr><td>Sodium [Moles/volume] in Serum or Plasma</td><td>137.2</td><td>135 - 145</td><td>mmol/L</td></tr><tr><td>Potassium [Moles/volume] in Serum or Plasma</td><td>4.9</td><td>3.5 - 5.3</td><td>mmol/L</td></tr><tr><td>Chloride [Moles/volume] in Serum or Plasma</td><td><strong>110.8 H</strong></td><td>98 - 107</td><td>mmol/L</td></tr><tr><td>Carbon dioxide, total [Moles/volume] in Serum or Plasma</td><td>28.4</td><td>22 - 33</td><td>mmol/L</td></tr><tr><td>Ketones [Presence] in Urine by Test strip</td><td>Urine ketone test = ++</td><td></td><td></td></tr><tr><td>Hemoglobin A1c/Hemoglobin.total in Blood</td><td><strong>3.4 L</strong></td><td>4.3 - 6</td><td>%</td></tr><tr><td>Glucose [Mass/volume] in Blood</td><td>91.8</td><td>70 - 140</td><td>mg/dL</td></tr><tr><td>Urea nitrogen [Mass/volume] in Blood</td><td>12.6</td><td>7 - 20</td><td>mg/dL</td></tr><tr><td>Creatinine [Mass/volume] in Blood</td><td><strong>4.5 H</strong></td><td>0.9 - 1.3</td><td>mg/dL</td></tr><tr><td>Calcium [Mass/volume] in Blood</td><td>9.9</td><td>8.5 - 10.5</td><td>mg/dL</td></tr><tr><td>Sodium [Moles/volume] in Blood</td><td>137.2</td><td>135 - 145</td><td>mmol/L</td></tr><tr><td>Potassium [Moles/volume] in Blood</td><td>4.9</td><td>3.5 - 5.1</td><td>mmol/L</td></tr><tr><td>Chloride [Moles/volume] in Blood</td><td><strong>110.8 H</strong></td><td>98 - 108</td><td>mmol/L</td></tr><tr><td>Carbon dioxide, total [Moles/volume] in Blood</td><td>28.4</td><td>22 - 29</td><td>mmol/L</td></tr></tbody></table></div>"
                },
                "title": "Chemistry"
              },
              {
                "code": {
                  "coding": [
                    {
                      "code": "$18729-4",
                      "system": "http://loinc.org",
                      "display": "Urinalysis studies (set)"
                    }
                  ],
                  "text": "Urinalysis"
                },
                "entry": [
                  {
                    "reference": "urn:uuid:67c94b4e-49c2-491e-9092-aa7ce5bde073"
                  },
                  {
                    "reference": "urn:uuid:e0a27ec7-53cf-448c-8b58-9cf006d31c17"
                  },
                  {
                    "reference": "urn:uuid:7a963bda-6f5d-4f17-b2e5-eebd04359020"
                  },
                  {
                    "reference": "urn:uuid:cf8b3d93-46ee-4062-a1b3-113957c3bb38"
                  },
                  {
                    "reference": "urn:uuid:daed4dee-5c6a-41d3-9135-643b7218e87e"
                  },
                  {
                    "reference": "urn:uuid:20aab95c-059c-4b50-8bba-8a069e0b9b0a"
                  },
                  {
                    "reference": "urn:uuid:803b5aaf-97c6-464c-a589-27454f4887d7"
                  },
                  {
                    "reference": "urn:uuid:d21542fd-6cd1-4635-ba4a-2383af248324"
                  },
                  {
                    "reference": "urn:uuid:51ea5c42-fec8-46ef-90e8-e2426748b670"
                  },
                  {
                    "reference": "urn:uuid:dd1194e6-03ce-474a-acfa-e1e3fa19ca98"
                  },
                  {
                    "reference": "urn:uuid:6eb00be4-66d3-4d69-a991-f42ced911315"
                  },
                  {
                    "reference": "urn:uuid:ba35f26d-4dc7-4020-835c-c4f7a47e14db"
                  }
                ],
                "text": {
                  "status": "generated",
                  "div": "<div xmlns=\"http://www.w3.org/1999/xhtml\"><h3>Urinalysis</h3><table class=\"hl7__eu__lab__report\"><thead><tr><th>Test</th><th>02-JUL-2021</th><th>Reference&#xA0;Range</th><th>Unit</th></tr></thead><tbody><tr><td>Glucose [Mass/volume] in Urine by Test strip</td><td><strong>2.2 H</strong></td><td>0 - 0.8</td><td>mg/dL</td></tr><tr><td>Glucose [Presence] in Urine by Test strip</td><td>++</td><td></td><td></td></tr><tr><td>Bilirubin.total [Mass/volume] in Urine by Test strip</td><td>1.3</td><td>0 - 1.9</td><td>mg/dL</td></tr><tr><td>Bilirubin.total [Presence] in Urine by Test strip</td><td>Finding of bilirubin in urine</td><td></td><td></td></tr><tr><td>Ketones [Mass/volume] in Urine by Test strip</td><td>2.8</td><td>0 - 3</td><td>mg/dL</td></tr><tr><td>Specific gravity of Urine by Test strip</td><td><strong>1.0 L</strong></td><td>1.01 - 1.03</td><td>{nominal}</td></tr><tr><td>pH of Urine by Test strip</td><td>6.3</td><td>4.5 - 7.5</td><td>pH</td></tr><tr><td>Protein [Mass/volume] in Urine by Test strip</td><td><strong>359.4 H</strong></td><td>0 - 149</td><td>mg/dL</td></tr><tr><td>Protein [Presence] in Urine by Test strip</td><td>Urine protein test = ++</td><td></td><td></td></tr><tr><td>Nitrite [Presence] in Urine by Test strip</td><td>Urine nitrite negative</td><td></td><td></td></tr><tr><td>Hemoglobin [Presence] in Urine by Test strip</td><td>Urine blood test = negative</td><td></td><td></td></tr><tr><td>Leukocyte esterase [Presence] in Urine by Test strip</td><td>Urine leukocyte test negative</td><td></td><td></td></tr></tbody></table></div>"
                },
                "title": "Urinalysis"
              },
              {
                "code": {
                  "coding": [
                    {
                      "code": "$LP7846-1",
                      "system": "http://loinc.org",
                      "display": "Specimen information"
                    }
                  ],
                  "text": "Specimen information"
                },
                "entry": [
                  {
                    "reference": "urn:uuid:afd885c1-5ed6-413c-9ff8-a9fafd2de220"
                  },
                  {
                    "reference": "urn:uuid:f37bd080-0d2d-417d-b76d-1958d0f9d2dd"
                  },
                  {
                    "reference": "urn:uuid:654fa055-3e86-40a5-bdce-e28d6590a8e4"
                  },
                  {
                    "reference": "urn:uuid:8cc6e625-bd41-49e2-b478-fcf98483d75e"
                  }
                ],
                "text": {
                  "status": "generated",
                  "div": "<div xmlns=\"http://www.w3.org/1999/xhtml\"><h3>Specimen information</h3><table class=\"hl7__eu__lab__report\"><thead><tr><th>Test</th><th>02-JUL-2021</th><th>Specimen</th><th></th></tr></thead><tbody><tr><td>Appearance of Urine</td><td>Cloudy urine</td><td>Urine</td><td></td></tr><tr><td>Odor of Urine</td><td>Urine smell ammoniacal</td><td>Urine</td><td></td></tr><tr><td>Clarity of Urine</td><td>Translucent</td><td>Urine</td><td></td></tr><tr><td>Color of Urine</td><td>Brown color</td><td>Urine</td><td></td></tr></tbody></table></div>"
                },
                "title": "Specimen information"
              }
            ],
            "title": "Laboratory Report"
          },
          {
            "text": {
              "status": "generated",
              "div": "<div xmlns=\"http://www.w3.org/1999/xhtml\"><h3>Annotation</h3><table class=\"hl7__eu__lab__report\"><tr><th>Conclusion and Recommendations based on this report and previous findings known to us</th></tr><tr><td>The patient shows significantly elevated creatinine, indicating impaired renal function, and high chloride. Urinalysis reveals proteinuria, glucosuria, ketonuria, low specific gravity, and abnormal urine appearance, suggesting possible nephrotic syndrome or diabetic nephropathy, though HbA1c is low. No evidence of urinary infection. Recommend urgent nephrology evaluation and further assessment for underlying renal pathology and metabolic disturbances.</td></tr></table></div>"
            },
            "code": {
              "coding": [
                {
                  "system": "http://loinc.org",
                  "code": "48767-8",
                  "display": "Annotation comment"
                }
              ]
            },
            "title": "Annotation comment"
          }
        ],
        "status": "final",
        "subject": {
          "reference": "urn:uuid:5b2ce4e9-5661-4554-9682-7f62e63a3281",
          "display": "Victor Lagarde"
        },
        "date": "2021-07-02T06:48:18Z",
        "title": "Laboratory Report",
        "confidentiality": "N"
      }
    },
    {
      "fullUrl": "urn:uuid:7e659f39-b34a-47e3-b4d6-11b1af301f3c",
      "resource": {
        "resourceType": "DiagnosticReport",
        "id": "7e659f39-b34a-47e3-b4d6-11b1af301f3c",
        "meta": {
          "profile": [
            "http://hl7.eu/fhir/laboratory/StructureDefinition/DiagnosticReport-eu-lab"
          ]
        },
        "identifier": [
          {
            "assigner": {
              "display": "HL7 Europe"
            },
            "system": "urn:oid:2.16.840.1.113883.2.51.999",
            "value": "68d89579-8eba-42a9-989b-b16535f733b3"
          }
        ],
        "extension": [
          {
            "url": "http://hl7.org/fhir/5.0/StructureDefinition/extension-DiagnosticReport.composition",
            "valueReference": {
              "reference": "urn:uuid:c0d461a9-5968-4810-87d5-3ff6b4704534"
            }
          }
        ],
        "category": [
          {
            "coding": [
              {
                "code": "26436-6",
                "system": "http://loinc.org",
                "display": "Laboratory studies (set)"
              }
            ]
          }
        ],
        "specimen": [
          {
            "reference": "urn:uuid:3d120e17-0251-47ae-bb07-436569fa50ff"
          },
          {
            "reference": "urn:uuid:8c45f21c-93c3-4341-a3c1-65bf725f9c8a"
          },
          {
            "reference": "urn:uuid:abc3f775-f2ac-4837-b101-8ff6e8fa3b3f"
          }
        ],
        "result": [
          {
            "reference": "urn:uuid:d9661842-f633-4ba6-954d-5daa18335d91"
          },
          {
            "reference": "urn:uuid:1b854e47-5371-42d6-8b31-38507a0ae21d"
          },
          {
            "reference": "urn:uuid:d8f8f884-0b6a-44c3-b243-2885760c0ed5"
          },
          {
            "reference": "urn:uuid:1e3d48b8-0a47-46be-80cb-37bbec253355"
          },
          {
            "reference": "urn:uuid:7de54ce1-538f-402e-b846-f2162a4a2b24"
          },
          {
            "reference": "urn:uuid:2c3715d5-91d6-4827-8376-9de24f70431b"
          },
          {
            "reference": "urn:uuid:aa92af1b-9a50-4275-8b94-39f75c4092a8"
          },
          {
            "reference": "urn:uuid:f4180409-a667-4c86-953d-d29df6014d59"
          },
          {
            "reference": "urn:uuid:afd885c1-5ed6-413c-9ff8-a9fafd2de220"
          },
          {
            "reference": "urn:uuid:f37bd080-0d2d-417d-b76d-1958d0f9d2dd"
          },
          {
            "reference": "urn:uuid:654fa055-3e86-40a5-bdce-e28d6590a8e4"
          },
          {
            "reference": "urn:uuid:8cc6e625-bd41-49e2-b478-fcf98483d75e"
          },
          {
            "reference": "urn:uuid:67c94b4e-49c2-491e-9092-aa7ce5bde073"
          },
          {
            "reference": "urn:uuid:e0a27ec7-53cf-448c-8b58-9cf006d31c17"
          },
          {
            "reference": "urn:uuid:7a963bda-6f5d-4f17-b2e5-eebd04359020"
          },
          {
            "reference": "urn:uuid:cf8b3d93-46ee-4062-a1b3-113957c3bb38"
          },
          {
            "reference": "urn:uuid:daed4dee-5c6a-41d3-9135-643b7218e87e"
          },
          {
            "reference": "urn:uuid:51c7e502-5924-4cdf-b708-803f7776a921"
          },
          {
            "reference": "urn:uuid:20aab95c-059c-4b50-8bba-8a069e0b9b0a"
          },
          {
            "reference": "urn:uuid:803b5aaf-97c6-464c-a589-27454f4887d7"
          },
          {
            "reference": "urn:uuid:d21542fd-6cd1-4635-ba4a-2383af248324"
          },
          {
            "reference": "urn:uuid:51ea5c42-fec8-46ef-90e8-e2426748b670"
          },
          {
            "reference": "urn:uuid:dd1194e6-03ce-474a-acfa-e1e3fa19ca98"
          },
          {
            "reference": "urn:uuid:6eb00be4-66d3-4d69-a991-f42ced911315"
          },
          {
            "reference": "urn:uuid:ba35f26d-4dc7-4020-835c-c4f7a47e14db"
          },
          {
            "reference": "urn:uuid:632494d6-a9eb-4755-9599-89fb144f2950"
          },
          {
            "reference": "urn:uuid:36374079-3bca-400c-ace2-20fd891cc57c"
          },
          {
            "reference": "urn:uuid:4d55dafa-c03b-40a3-924c-bf7170b717b3"
          },
          {
            "reference": "urn:uuid:871b4f2a-41a4-4d5a-948b-3896effae83c"
          },
          {
            "reference": "urn:uuid:d275144b-e288-4caa-bfe9-15c9e90cc63a"
          },
          {
            "reference": "urn:uuid:96d68d8d-a774-4b9d-9d94-e6b14aae6e34"
          },
          {
            "reference": "urn:uuid:bec85a1d-a879-4b04-bb95-958d0cf24eab"
          },
          {
            "reference": "urn:uuid:ea241973-751b-4ba9-84d7-9c259eca5992"
          },
          {
            "reference": "urn:uuid:3ae66ed5-27b9-4f20-901b-c68c22e0aedf"
          }
        ],
        "status": "registered",
        "code": {
          "coding": [
            {
              "code": "11502-2",
              "system": "http://loinc.org",
              "display": "Laboratory report"
            }
          ]
        },
        "subject": {
          "reference": "urn:uuid:5b2ce4e9-5661-4554-9682-7f62e63a3281",
          "display": "Victor Lagarde"
        }
      }
    },
    {
      "fullUrl": "urn:uuid:5b2ce4e9-5661-4554-9682-7f62e63a3281",
      "resource": {
        "resourceType": "Patient",
        "id": "5b2ce4e9-5661-4554-9682-7f62e63a3281",
        "meta": {
          "security": [
            {
              "system": "http://terminology.hl7.org/CodeSystem/v3-ActReason",
              "code": "HTEST"
            },
            {
              "system": "http://terminology.hl7.org/CodeSystem/v3-ActReason",
              "code": "TRAIN"
            }
          ],
          "tag": [
            {
              "system": "https://synderai.net/fhir/CodeSystem/tags",
              "code": "synthetic",
              "display": "SYNDERAI Synthetic data"
            }
          ],
          "profile": [
            "http://hl7.eu/fhir/base/StructureDefinition/patient-eu-core"
          ]
        },
        "identifier": [
          {
            "type": {
              "coding": [
                {
                  "code": "PT",
                  "system": "http://terminology.hl7.org/CodeSystem/v2-0203"
                }
              ]
            },
            "system": "http://ec.europa.eu/identifier/eci",
            "value": "9925-001801-9"
          },
          {
            "type": {
              "coding": [
                {
                  "code": "MR",
                  "system": "http://terminology.hl7.org/CodeSystem/v2-0203"
                }
              ]
            },
            "system": "http://local.setting.eu/identifier",
            "value": "22c2dfd0-ac57-8833-2532-848f180896a4"
          }
        ],
        "name": [
          {
            "family": "Lagarde"
          },
          {
            "given": [
              "Victor"
            ]
          },
          {
            "text": "Victor Lagarde"
          }
        ],
        "address": [
          {
            "line": [
              "avenue Robert"
            ],
            "use": "home",
            "type": "physical",
            "postalCode": "80300",
            "city": "Albert",
            "country": "France"
          }
        ],
        "telecom": [
          {
            "system": "phone",
            "value": "0177941801"
          }
        ],
        "extension": [
          {
            "url": "http://hl7.org/fhir/StructureDefinition/patient-nationality",
            "valueCodeableConcept": {
              "coding": [
                {
                  "code": "FR",
                  "system": "http://hl7.org/fhir/ValueSet/country"
                }
              ]
            }
          }
        ],
        "text": {
          "status": "generated",
          "div": "<div xmlns=\"http://www.w3.org/1999/xhtml\"><table class=\"hl7__ips\"><tr><td>Victor Lagarde</td><td>male</td><td>31-Aug-1939</td></tr></table></div>"
        },
        "gender": "male",
        "birthDate": "1939-08-31"
      }
    },
    {
      "fullUrl": "urn:uuid:2ae1bd12-13d9-45d7-85f1-392b2d473066",
      "resource": {
        "resourceType": "ServiceRequest",
        "id": "2ae1bd12-13d9-45d7-85f1-392b2d473066",
        "meta": {
          "profile": [
            "http://hl7.eu/fhir/laboratory/StructureDefinition/ServiceRequest-eu-lab"
          ]
        },
        "identifier": [
          {
            "system": "http://example.org",
            "value": "99cd3b2b-3e9d-429d-857c-05ca5e5a60c4"
          }
        ],
        "specimen": [
          {
            "reference": "urn:uuid:3d120e17-0251-47ae-bb07-436569fa50ff"
          },
          {
            "reference": "urn:uuid:8c45f21c-93c3-4341-a3c1-65bf725f9c8a"
          },
          {
            "reference": "urn:uuid:abc3f775-f2ac-4837-b101-8ff6e8fa3b3f"
          }
        ],
        "reasonCode": [
          {
            "coding": [
              {
                "code": "433144002",
                "system": "http://snomed.info/sct",
                "display": "Chronic kidney disease stage 3"
              }
            ]
          },
          {
            "coding": [
              {
                "code": "157141000119108",
                "system": "http://snomed.info/sct",
                "display": "Proteinuria due to type 2 diabetes mellitus"
              }
            ]
          },
          {
            "coding": [
              {
                "code": "431856006",
                "system": "http://snomed.info/sct",
                "display": "Chronic kidney disease stage 2"
              }
            ]
          },
          {
            "coding": [
              {
                "code": "90781000119102",
                "system": "http://snomed.info/sct",
                "display": "Microalbuminuria due to type 2 diabetes mellitus"
              }
            ]
          },
          {
            "coding": [
              {
                "code": "127013003",
                "system": "http://snomed.info/sct",
                "display": "Disorder of kidney due to diabetes mellitus"
              }
            ]
          },
          {
            "coding": [
              {
                "code": "431855005",
                "system": "http://snomed.info/sct",
                "display": "Chronic kidney disease stage 1"
              }
            ]
          },
          {
            "coding": [
              {
                "code": "55822004",
                "system": "http://snomed.info/sct",
                "display": "Hyperlipidemia"
              }
            ]
          },
          {
            "coding": [
              {
                "code": "59621000",
                "system": "http://snomed.info/sct",
                "display": "Essential hypertension"
              }
            ]
          },
          {
            "coding": [
              {
                "code": "237602007",
                "system": "http://snomed.info/sct",
                "display": "Metabolic syndrome X"
              }
            ]
          },
          {
            "coding": [
              {
                "code": "414545008",
                "system": "http://snomed.info/sct",
                "display": "Ischemic heart disease"
              }
            ]
          },
          {
            "coding": [
              {
                "code": "40055000",
                "system": "http://snomed.info/sct",
                "display": "Chronic sinusitis"
              }
            ]
          },
          {
            "coding": [
              {
                "code": "15777000",
                "system": "http://snomed.info/sct",
                "display": "Prediabetes"
              }
            ]
          },
          {
            "coding": [
              {
                "code": "271737000",
                "system": "http://snomed.info/sct",
                "display": "Anemia"
              }
            ]
          }
        ],
        "status": "active",
        "intent": "order",
        "code": {
          "coding": [
            {
              "code": "108252007",
              "system": "http://snomed.info/sct",
              "display": "Laboratory procedure"
            }
          ]
        },
        "subject": {
          "reference": "urn:uuid:5b2ce4e9-5661-4554-9682-7f62e63a3281",
          "display": "Victor Lagarde"
        },
        "requester": {
          "reference": "urn:uuid:1038421e-2ba9-4bf2-a1ef-b1bb99791f8f"
        }
      }
    },
    {
      "fullUrl": "urn:uuid:1038421e-2ba9-4bf2-a1ef-b1bb99791f8f",
      "resource": {
        "resourceType": "PractitionerRole",
        "id": "1038421e-2ba9-4bf2-a1ef-b1bb99791f8f",
        "meta": {
          "profile": [
            "http://hl7.eu/fhir/base/StructureDefinition/practitionerRole-eu"
          ]
        },
        "text": {
          "status": "generated",
          "div": "<div xmlns=\"http://www.w3.org/1999/xhtml\">Provider Role Id: 1038421e-2ba9-4bf2-a1ef-b1bb99791f8f</div>"
        },
        "organization": {
          "reference": "urn:uuid:883997c5-55c1-46a6-b139-79277a1cb573"
        }
      }
    },
    {
      "fullUrl": "urn:uuid:883997c5-55c1-46a6-b139-79277a1cb573",
      "resource": {
        "resourceType": "Organization",
        "id": "883997c5-55c1-46a6-b139-79277a1cb573",
        "meta": {
          "profile": [
            "http://hl7.eu/fhir/base/StructureDefinition/organization-eu"
          ]
        },
        "identifier": [
          {
            "assigner": {
              "display": "HL7 Europe"
            },
            "system": "urn:oid:2.16.840.1.113883.2.51.999",
            "value": "a8f1df14-3cfa-428a-b749-e8644fc26253"
          }
        ],
        "address": [
          {
            "city": "Auxerre",
            "postalCode": "89000",
            "country": "France"
          }
        ],
        "text": {
          "status": "generated",
          "div": "<div xmlns=\"http://www.w3.org/1999/xhtml\">Provider Organization: Thiriot Didier (Cardiologie)</div>"
        },
        "name": "Thiriot Didier (Cardiologie)"
      }
    },
    {
      "fullUrl": "urn:uuid:3d120e17-0251-47ae-bb07-436569fa50ff",
      "resource": {
        "resourceType": "Specimen",
        "id": "3d120e17-0251-47ae-bb07-436569fa50ff",
        "meta": {
          "profile": [
            "http://hl7.eu/fhir/laboratory/StructureDefinition/Specimen-eu-lab"
          ]
        },
        "collection": {
          "collectedDateTime": "2021-07-02"
        },
        "text": {
          "status": "generated",
          "div": "<div xmlns=\"http://www.w3.org/1999/xhtml\"><table class=\"hl7__eu__lab__report\"><tr><th>Specimen</th><th>Collection Date</th></tr><tr><td>Acellular blood (serum or plasma) specimen</td><td><span class=\"nb\">02-Jul-2021</span></td></tr></table></div>"
        },
        "type": {
          "coding": [
            {
              "code": "122592007",
              "system": "http://snomed.info/sct",
              "display": "Acellular blood (serum or plasma) specimen"
            }
          ]
        }
      }
    },
    {
      "fullUrl": "urn:uuid:8c45f21c-93c3-4341-a3c1-65bf725f9c8a",
      "resource": {
        "resourceType": "Specimen",
        "id": "8c45f21c-93c3-4341-a3c1-65bf725f9c8a",
        "meta": {
          "profile": [
            "http://hl7.eu/fhir/laboratory/StructureDefinition/Specimen-eu-lab"
          ]
        },
        "collection": {
          "collectedDateTime": "2021-07-02"
        },
        "text": {
          "status": "generated",
          "div": "<div xmlns=\"http://www.w3.org/1999/xhtml\"><table class=\"hl7__eu__lab__report\"><tr><th>Specimen</th><th>Collection Date</th></tr><tr><td>Urine specimen</td><td><span class=\"nb\">02-Jul-2021</span></td></tr></table></div>"
        },
        "type": {
          "coding": [
            {
              "code": "122575003",
              "system": "http://snomed.info/sct",
              "display": "Urine specimen"
            }
          ]
        }
      }
    },
    {
      "fullUrl": "urn:uuid:abc3f775-f2ac-4837-b101-8ff6e8fa3b3f",
      "resource": {
        "resourceType": "Specimen",
        "id": "abc3f775-f2ac-4837-b101-8ff6e8fa3b3f",
        "meta": {
          "profile": [
            "http://hl7.eu/fhir/laboratory/StructureDefinition/Specimen-eu-lab"
          ]
        },
        "collection": {
          "collectedDateTime": "2021-07-02"
        },
        "text": {
          "status": "generated",
          "div": "<div xmlns=\"http://www.w3.org/1999/xhtml\"><table class=\"hl7__eu__lab__report\"><tr><th>Specimen</th><th>Collection Date</th></tr><tr><td>Whole blood specimen (specimen)</td><td><span class=\"nb\">02-Jul-2021</span></td></tr></table></div>"
        },
        "type": {
          "coding": [
            {
              "code": "258580003",
              "system": "http://snomed.info/sct",
              "display": "Whole blood specimen (specimen)"
            }
          ]
        }
      }
    },
    {
      "fullUrl": "urn:uuid:d9661842-f633-4ba6-954d-5daa18335d91",
      "resource": {
        "resourceType": "Observation",
        "id": "d9661842-f633-4ba6-954d-5daa18335d91",
        "meta": {
          "profile": [
            "http://hl7.eu/fhir/laboratory/StructureDefinition/Observation-resultslab-eu-lab"
          ]
        },
        "performer": [
          {
            "display": "The Central European Lab"
          }
        ],
        "category": [
          {
            "coding": [
              {
                "system": "http://terminology.hl7.org/CodeSystem/observation-category",
                "code": "laboratory"
              }
            ]
          }
        ],
        "code": {
          "coding": [
            {
              "code": "2345-7",
              "system": "http://loinc.org",
              "display": "Glucose [Mass/volume] in Serum or Plasma"
            }
          ],
          "text": "Glucose [Mass/volume] in Serum or Plasma"
        },
        "valueQuantity": {
          "system": "http://unitsofmeasure.org",
          "value": 91.8,
          "unit": "mg/dL",
          "code": "mg/dL"
        },
        "referenceRange": [
          {
            "low": {
              "value": 70,
              "code": "mg/dL",
              "system": "http://unitsofmeasure.org"
            }
          },
          {
            "high": {
              "value": 140,
              "code": "mg/dL",
              "system": "http://unitsofmeasure.org"
            }
          }
        ],
        "text": {
          "status": "generated",
          "div": "<div xmlns=\"http://www.w3.org/1999/xhtml\"><table class=\"hl7__eu__lab__report\"><tr><th>Test</th><th>02-Jul-2021</th><th>Reference&#xA0;Range</th><th>Unit</th></tr><tr><td>Glucose [Mass/volume] in Serum or Plasma</td><td>91.8</td><td>70 - 140</td><td></td><td>mg/dL</td></tr></table></div>"
        },
        "status": "final",
        "subject": {
          "reference": "urn:uuid:5b2ce4e9-5661-4554-9682-7f62e63a3281",
          "display": "Victor Lagarde"
        },
        "effectiveDateTime": "2021-07-02T04:48:18Z",
        "specimen": {
          "reference": "urn:uuid:3d120e17-0251-47ae-bb07-436569fa50ff"
        }
      }
    },
    {
      "fullUrl": "urn:uuid:1b854e47-5371-42d6-8b31-38507a0ae21d",
      "resource": {
        "resourceType": "Observation",
        "id": "1b854e47-5371-42d6-8b31-38507a0ae21d",
        "meta": {
          "profile": [
            "http://hl7.eu/fhir/laboratory/StructureDefinition/Observation-resultslab-eu-lab"
          ]
        },
        "performer": [
          {
            "display": "The Central European Lab"
          }
        ],
        "category": [
          {
            "coding": [
              {
                "system": "http://terminology.hl7.org/CodeSystem/observation-category",
                "code": "laboratory"
              }
            ]
          }
        ],
        "code": {
          "coding": [
            {
              "code": "3094-0",
              "system": "http://loinc.org",
              "display": "Urea nitrogen [Mass/volume] in Serum or Plasma"
            }
          ],
          "text": "Urea nitrogen [Mass/volume] in Serum or Plasma"
        },
        "valueQuantity": {
          "system": "http://unitsofmeasure.org",
          "value": 12.6,
          "unit": "mg/dL",
          "code": "mg/dL"
        },
        "referenceRange": [
          {
            "low": {
              "value": 7,
              "code": "mg/dL",
              "system": "http://unitsofmeasure.org"
            }
          },
          {
            "high": {
              "value": 20,
              "code": "mg/dL",
              "system": "http://unitsofmeasure.org"
            }
          }
        ],
        "text": {
          "status": "generated",
          "div": "<div xmlns=\"http://www.w3.org/1999/xhtml\"><table class=\"hl7__eu__lab__report\"><tr><th>Test</th><th>02-Jul-2021</th><th>Reference&#xA0;Range</th><th>Unit</th></tr><tr><td>Urea nitrogen [Mass/volume] in Serum or Plasma</td><td>12.6</td><td>7 - 20</td><td></td><td>mg/dL</td></tr></table></div>"
        },
        "status": "final",
        "subject": {
          "reference": "urn:uuid:5b2ce4e9-5661-4554-9682-7f62e63a3281",
          "display": "Victor Lagarde"
        },
        "effectiveDateTime": "2021-07-02T04:48:18Z",
        "specimen": {
          "reference": "urn:uuid:3d120e17-0251-47ae-bb07-436569fa50ff"
        }
      }
    },
    {
      "fullUrl": "urn:uuid:d8f8f884-0b6a-44c3-b243-2885760c0ed5",
      "resource": {
        "resourceType": "Observation",
        "id": "d8f8f884-0b6a-44c3-b243-2885760c0ed5",
        "meta": {
          "profile": [
            "http://hl7.eu/fhir/laboratory/StructureDefinition/Observation-resultslab-eu-lab"
          ]
        },
        "performer": [
          {
            "display": "The Central European Lab"
          }
        ],
        "category": [
          {
            "coding": [
              {
                "system": "http://terminology.hl7.org/CodeSystem/observation-category",
                "code": "laboratory"
              }
            ]
          }
        ],
        "code": {
          "coding": [
            {
              "code": "2160-0",
              "system": "http://loinc.org",
              "display": "Creatinine [Mass/volume] in Serum or Plasma"
            }
          ],
          "text": "Creatinine [Mass/volume] in Serum or Plasma"
        },
        "valueQuantity": {
          "system": "http://unitsofmeasure.org",
          "value": 2,
          "unit": "mg/dL",
          "code": "mg/dL"
        },
        "referenceRange": [
          {
            "low": {
              "value": 0.9,
              "code": "mg/dL",
              "system": "http://unitsofmeasure.org"
            }
          },
          {
            "high": {
              "value": 1.3,
              "code": "mg/dL",
              "system": "http://unitsofmeasure.org"
            }
          }
        ],
        "interpretation": [
          {
            "coding": [
              {
                "code": "H",
                "system": "http://terminology.hl7.org/CodeSystem/v3-ObservationInterpretation",
                "display": "High"
              }
            ]
          }
        ],
        "text": {
          "status": "generated",
          "div": "<div xmlns=\"http://www.w3.org/1999/xhtml\"><table class=\"hl7__eu__lab__report\"><tr><th>Test</th><th>02-Jul-2021</th><th>Reference&#xA0;Range</th><th>Unit</th></tr><tr><td>Creatinine [Mass/volume] in Serum or Plasma</td><td>2.0</td><td>0.9 - 1.3</td><td>H</td><td>mg/dL</td></tr></table></div>"
        },
        "status": "final",
        "subject": {
          "reference": "urn:uuid:5b2ce4e9-5661-4554-9682-7f62e63a3281",
          "display": "Victor Lagarde"
        },
        "effectiveDateTime": "2021-07-02T04:48:18Z",
        "specimen": {
          "reference": "urn:uuid:3d120e17-0251-47ae-bb07-436569fa50ff"
        }
      }
    },
    {
      "fullUrl": "urn:uuid:1e3d48b8-0a47-46be-80cb-37bbec253355",
      "resource": {
        "resourceType": "Observation",
        "id": "1e3d48b8-0a47-46be-80cb-37bbec253355",
        "meta": {
          "profile": [
            "http://hl7.eu/fhir/laboratory/StructureDefinition/Observation-resultslab-eu-lab"
          ]
        },
        "performer": [
          {
            "display": "The Central European Lab"
          }
        ],
        "category": [
          {
            "coding": [
              {
                "system": "http://terminology.hl7.org/CodeSystem/observation-category",
                "code": "laboratory"
              }
            ]
          }
        ],
        "code": {
          "coding": [
            {
              "code": "17861-6",
              "system": "http://loinc.org",
              "display": "Calcium [Mass/volume] in Serum or Plasma"
            }
          ],
          "text": "Calcium [Mass/volume] in Serum or Plasma"
        },
        "valueQuantity": {
          "system": "http://unitsofmeasure.org",
          "value": 9.9,
          "unit": "mg/dL",
          "code": "mg/dL"
        },
        "referenceRange": [
          {
            "low": {
              "value": 8.5,
              "code": "mg/dL",
              "system": "http://unitsofmeasure.org"
            }
          },
          {
            "high": {
              "value": 10.5,
              "code": "mg/dL",
              "system": "http://unitsofmeasure.org"
            }
          }
        ],
        "text": {
          "status": "generated",
          "div": "<div xmlns=\"http://www.w3.org/1999/xhtml\"><table class=\"hl7__eu__lab__report\"><tr><th>Test</th><th>02-Jul-2021</th><th>Reference&#xA0;Range</th><th>Unit</th></tr><tr><td>Calcium [Mass/volume] in Serum or Plasma</td><td>9.9</td><td>8.5 - 10.5</td><td></td><td>mg/dL</td></tr></table></div>"
        },
        "status": "final",
        "subject": {
          "reference": "urn:uuid:5b2ce4e9-5661-4554-9682-7f62e63a3281",
          "display": "Victor Lagarde"
        },
        "effectiveDateTime": "2021-07-02T04:48:18Z",
        "specimen": {
          "reference": "urn:uuid:3d120e17-0251-47ae-bb07-436569fa50ff"
        }
      }
    },
    {
      "fullUrl": "urn:uuid:7de54ce1-538f-402e-b846-f2162a4a2b24",
      "resource": {
        "resourceType": "Observation",
        "id": "7de54ce1-538f-402e-b846-f2162a4a2b24",
        "meta": {
          "profile": [
            "http://hl7.eu/fhir/laboratory/StructureDefinition/Observation-resultslab-eu-lab"
          ]
        },
        "performer": [
          {
            "display": "The Central European Lab"
          }
        ],
        "category": [
          {
            "coding": [
              {
                "system": "http://terminology.hl7.org/CodeSystem/observation-category",
                "code": "laboratory"
              }
            ]
          }
        ],
        "code": {
          "coding": [
            {
              "code": "2951-2",
              "system": "http://loinc.org",
              "display": "Sodium [Moles/volume] in Serum or Plasma"
            }
          ],
          "text": "Sodium [Moles/volume] in Serum or Plasma"
        },
        "valueQuantity": {
          "system": "http://unitsofmeasure.org",
          "value": 137.2,
          "unit": "mmol/L",
          "code": "mmol/L"
        },
        "referenceRange": [
          {
            "low": {
              "value": 135,
              "code": "mmol/L",
              "system": "http://unitsofmeasure.org"
            }
          },
          {
            "high": {
              "value": 145,
              "code": "mmol/L",
              "system": "http://unitsofmeasure.org"
            }
          }
        ],
        "text": {
          "status": "generated",
          "div": "<div xmlns=\"http://www.w3.org/1999/xhtml\"><table class=\"hl7__eu__lab__report\"><tr><th>Test</th><th>02-Jul-2021</th><th>Reference&#xA0;Range</th><th>Unit</th></tr><tr><td>Sodium [Moles/volume] in Serum or Plasma</td><td>137.2</td><td>135 - 145</td><td></td><td>mmol/L</td></tr></table></div>"
        },
        "status": "final",
        "subject": {
          "reference": "urn:uuid:5b2ce4e9-5661-4554-9682-7f62e63a3281",
          "display": "Victor Lagarde"
        },
        "effectiveDateTime": "2021-07-02T04:48:18Z",
        "specimen": {
          "reference": "urn:uuid:3d120e17-0251-47ae-bb07-436569fa50ff"
        }
      }
    },
    {
      "fullUrl": "urn:uuid:2c3715d5-91d6-4827-8376-9de24f70431b",
      "resource": {
        "resourceType": "Observation",
        "id": "2c3715d5-91d6-4827-8376-9de24f70431b",
        "meta": {
          "profile": [
            "http://hl7.eu/fhir/laboratory/StructureDefinition/Observation-resultslab-eu-lab"
          ]
        },
        "performer": [
          {
            "display": "The Central European Lab"
          }
        ],
        "category": [
          {
            "coding": [
              {
                "system": "http://terminology.hl7.org/CodeSystem/observation-category",
                "code": "laboratory"
              }
            ]
          }
        ],
        "code": {
          "coding": [
            {
              "code": "2823-3",
              "system": "http://loinc.org",
              "display": "Potassium [Moles/volume] in Serum or Plasma"
            }
          ],
          "text": "Potassium [Moles/volume] in Serum or Plasma"
        },
        "valueQuantity": {
          "system": "http://unitsofmeasure.org",
          "value": 4.9,
          "unit": "mmol/L",
          "code": "mmol/L"
        },
        "referenceRange": [
          {
            "low": {
              "value": 3.5,
              "code": "mmol/L",
              "system": "http://unitsofmeasure.org"
            }
          },
          {
            "high": {
              "value": 5.3,
              "code": "mmol/L",
              "system": "http://unitsofmeasure.org"
            }
          }
        ],
        "text": {
          "status": "generated",
          "div": "<div xmlns=\"http://www.w3.org/1999/xhtml\"><table class=\"hl7__eu__lab__report\"><tr><th>Test</th><th>02-Jul-2021</th><th>Reference&#xA0;Range</th><th>Unit</th></tr><tr><td>Potassium [Moles/volume] in Serum or Plasma</td><td>4.9</td><td>3.5 - 5.3</td><td></td><td>mmol/L</td></tr></table></div>"
        },
        "status": "final",
        "subject": {
          "reference": "urn:uuid:5b2ce4e9-5661-4554-9682-7f62e63a3281",
          "display": "Victor Lagarde"
        },
        "effectiveDateTime": "2021-07-02T04:48:18Z",
        "specimen": {
          "reference": "urn:uuid:3d120e17-0251-47ae-bb07-436569fa50ff"
        }
      }
    },
    {
      "fullUrl": "urn:uuid:aa92af1b-9a50-4275-8b94-39f75c4092a8",
      "resource": {
        "resourceType": "Observation",
        "id": "aa92af1b-9a50-4275-8b94-39f75c4092a8",
        "meta": {
          "profile": [
            "http://hl7.eu/fhir/laboratory/StructureDefinition/Observation-resultslab-eu-lab"
          ]
        },
        "performer": [
          {
            "display": "The Central European Lab"
          }
        ],
        "category": [
          {
            "coding": [
              {
                "system": "http://terminology.hl7.org/CodeSystem/observation-category",
                "code": "laboratory"
              }
            ]
          }
        ],
        "code": {
          "coding": [
            {
              "code": "2075-0",
              "system": "http://loinc.org",
              "display": "Chloride [Moles/volume] in Serum or Plasma"
            }
          ],
          "text": "Chloride [Moles/volume] in Serum or Plasma"
        },
        "valueQuantity": {
          "system": "http://unitsofmeasure.org",
          "value": 110.8,
          "unit": "mmol/L",
          "code": "mmol/L"
        },
        "referenceRange": [
          {
            "low": {
              "value": 98,
              "code": "mmol/L",
              "system": "http://unitsofmeasure.org"
            }
          },
          {
            "high": {
              "value": 107,
              "code": "mmol/L",
              "system": "http://unitsofmeasure.org"
            }
          }
        ],
        "interpretation": [
          {
            "coding": [
              {
                "code": "H",
                "system": "http://terminology.hl7.org/CodeSystem/v3-ObservationInterpretation",
                "display": "High"
              }
            ]
          }
        ],
        "text": {
          "status": "generated",
          "div": "<div xmlns=\"http://www.w3.org/1999/xhtml\"><table class=\"hl7__eu__lab__report\"><tr><th>Test</th><th>02-Jul-2021</th><th>Reference&#xA0;Range</th><th>Unit</th></tr><tr><td>Chloride [Moles/volume] in Serum or Plasma</td><td>110.8</td><td>98 - 107</td><td>H</td><td>mmol/L</td></tr></table></div>"
        },
        "status": "final",
        "subject": {
          "reference": "urn:uuid:5b2ce4e9-5661-4554-9682-7f62e63a3281",
          "display": "Victor Lagarde"
        },
        "effectiveDateTime": "2021-07-02T04:48:18Z",
        "specimen": {
          "reference": "urn:uuid:3d120e17-0251-47ae-bb07-436569fa50ff"
        }
      }
    },
    {
      "fullUrl": "urn:uuid:f4180409-a667-4c86-953d-d29df6014d59",
      "resource": {
        "resourceType": "Observation",
        "id": "f4180409-a667-4c86-953d-d29df6014d59",
        "meta": {
          "profile": [
            "http://hl7.eu/fhir/laboratory/StructureDefinition/Observation-resultslab-eu-lab"
          ]
        },
        "performer": [
          {
            "display": "The Central European Lab"
          }
        ],
        "category": [
          {
            "coding": [
              {
                "system": "http://terminology.hl7.org/CodeSystem/observation-category",
                "code": "laboratory"
              }
            ]
          }
        ],
        "code": {
          "coding": [
            {
              "code": "2028-9",
              "system": "http://loinc.org",
              "display": "Carbon dioxide, total [Moles/volume] in Serum or Plasma"
            }
          ],
          "text": "Carbon dioxide, total [Moles/volume] in Serum or Plasma"
        },
        "valueQuantity": {
          "system": "http://unitsofmeasure.org",
          "value": 28.4,
          "unit": "mmol/L",
          "code": "mmol/L"
        },
        "referenceRange": [
          {
            "low": {
              "value": 22,
              "code": "mmol/L",
              "system": "http://unitsofmeasure.org"
            }
          },
          {
            "high": {
              "value": 33,
              "code": "mmol/L",
              "system": "http://unitsofmeasure.org"
            }
          }
        ],
        "text": {
          "status": "generated",
          "div": "<div xmlns=\"http://www.w3.org/1999/xhtml\"><table class=\"hl7__eu__lab__report\"><tr><th>Test</th><th>02-Jul-2021</th><th>Reference&#xA0;Range</th><th>Unit</th></tr><tr><td>Carbon dioxide, total [Moles/volume] in Serum or Plasma</td><td>28.4</td><td>22 - 33</td><td></td><td>mmol/L</td></tr></table></div>"
        },
        "status": "final",
        "subject": {
          "reference": "urn:uuid:5b2ce4e9-5661-4554-9682-7f62e63a3281",
          "display": "Victor Lagarde"
        },
        "effectiveDateTime": "2021-07-02T04:48:18Z",
        "specimen": {
          "reference": "urn:uuid:3d120e17-0251-47ae-bb07-436569fa50ff"
        }
      }
    },
    {
      "fullUrl": "urn:uuid:afd885c1-5ed6-413c-9ff8-a9fafd2de220",
      "resource": {
        "resourceType": "Observation",
        "id": "afd885c1-5ed6-413c-9ff8-a9fafd2de220",
        "meta": {
          "profile": [
            "http://hl7.eu/fhir/laboratory/StructureDefinition/Observation-resultslab-eu-lab"
          ]
        },
        "performer": [
          {
            "display": "The Central European Lab"
          }
        ],
        "category": [
          {
            "coding": [
              {
                "system": "http://terminology.hl7.org/CodeSystem/observation-category",
                "code": "laboratory"
              }
            ]
          }
        ],
        "code": {
          "coding": [
            {
              "code": "5767-9",
              "system": "http://loinc.org",
              "display": "Appearance of Urine"
            }
          ],
          "text": "Appearance of Urine"
        },
        "text": {
          "status": "generated",
          "div": "<div xmlns=\"http://www.w3.org/1999/xhtml\"><table class=\"hl7__eu__lab__report\"><tr><th>Test</th><th>02-Jul-2021</th><th>Reference&#xA0;Range</th><th>Unit</th></tr><tr><td>Appearance of Urine</td></tr></table></div>"
        },
        "status": "final",
        "subject": {
          "reference": "urn:uuid:5b2ce4e9-5661-4554-9682-7f62e63a3281",
          "display": "Victor Lagarde"
        },
        "effectiveDateTime": "2021-07-02T04:48:18Z",
        "specimen": {
          "reference": "urn:uuid:8c45f21c-93c3-4341-a3c1-65bf725f9c8a"
        }
      }
    },
    {
      "fullUrl": "urn:uuid:f37bd080-0d2d-417d-b76d-1958d0f9d2dd",
      "resource": {
        "resourceType": "Observation",
        "id": "f37bd080-0d2d-417d-b76d-1958d0f9d2dd",
        "meta": {
          "profile": [
            "http://hl7.eu/fhir/laboratory/StructureDefinition/Observation-resultslab-eu-lab"
          ]
        },
        "performer": [
          {
            "display": "The Central European Lab"
          }
        ],
        "category": [
          {
            "coding": [
              {
                "system": "http://terminology.hl7.org/CodeSystem/observation-category",
                "code": "laboratory"
              }
            ]
          }
        ],
        "code": {
          "coding": [
            {
              "code": "34533-0",
              "system": "http://loinc.org",
              "display": "Odor of Urine"
            }
          ],
          "text": "Odor of Urine"
        },
        "text": {
          "status": "generated",
          "div": "<div xmlns=\"http://www.w3.org/1999/xhtml\"><table class=\"hl7__eu__lab__report\"><tr><th>Test</th><th>02-Jul-2021</th><th>Reference&#xA0;Range</th><th>Unit</th></tr><tr><td>Odor of Urine</td></tr></table></div>"
        },
        "status": "final",
        "subject": {
          "reference": "urn:uuid:5b2ce4e9-5661-4554-9682-7f62e63a3281",
          "display": "Victor Lagarde"
        },
        "effectiveDateTime": "2021-07-02T04:48:18Z",
        "specimen": {
          "reference": "urn:uuid:8c45f21c-93c3-4341-a3c1-65bf725f9c8a"
        }
      }
    },
    {
      "fullUrl": "urn:uuid:654fa055-3e86-40a5-bdce-e28d6590a8e4",
      "resource": {
        "resourceType": "Observation",
        "id": "654fa055-3e86-40a5-bdce-e28d6590a8e4",
        "meta": {
          "profile": [
            "http://hl7.eu/fhir/laboratory/StructureDefinition/Observation-resultslab-eu-lab"
          ]
        },
        "performer": [
          {
            "display": "The Central European Lab"
          }
        ],
        "category": [
          {
            "coding": [
              {
                "system": "http://terminology.hl7.org/CodeSystem/observation-category",
                "code": "laboratory"
              }
            ]
          }
        ],
        "code": {
          "coding": [
            {
              "code": "32167-9",
              "system": "http://loinc.org",
              "display": "Clarity of Urine"
            }
          ],
          "text": "Clarity of Urine"
        },
        "text": {
          "status": "generated",
          "div": "<div xmlns=\"http://www.w3.org/1999/xhtml\"><table class=\"hl7__eu__lab__report\"><tr><th>Test</th><th>02-Jul-2021</th><th>Reference&#xA0;Range</th><th>Unit</th></tr><tr><td>Clarity of Urine</td></tr></table></div>"
        },
        "status": "final",
        "subject": {
          "reference": "urn:uuid:5b2ce4e9-5661-4554-9682-7f62e63a3281",
          "display": "Victor Lagarde"
        },
        "effectiveDateTime": "2021-07-02T04:48:18Z",
        "specimen": {
          "reference": "urn:uuid:8c45f21c-93c3-4341-a3c1-65bf725f9c8a"
        }
      }
    },
    {
      "fullUrl": "urn:uuid:8cc6e625-bd41-49e2-b478-fcf98483d75e",
      "resource": {
        "resourceType": "Observation",
        "id": "8cc6e625-bd41-49e2-b478-fcf98483d75e",
        "meta": {
          "profile": [
            "http://hl7.eu/fhir/laboratory/StructureDefinition/Observation-resultslab-eu-lab"
          ]
        },
        "performer": [
          {
            "display": "The Central European Lab"
          }
        ],
        "category": [
          {
            "coding": [
              {
                "system": "http://terminology.hl7.org/CodeSystem/observation-category",
                "code": "laboratory"
              }
            ]
          }
        ],
        "code": {
          "coding": [
            {
              "code": "5778-6",
              "system": "http://loinc.org",
              "display": "Color of Urine"
            }
          ],
          "text": "Color of Urine"
        },
        "text": {
          "status": "generated",
          "div": "<div xmlns=\"http://www.w3.org/1999/xhtml\"><table class=\"hl7__eu__lab__report\"><tr><th>Test</th><th>02-Jul-2021</th><th>Reference&#xA0;Range</th><th>Unit</th></tr><tr><td>Color of Urine</td></tr></table></div>"
        },
        "status": "final",
        "subject": {
          "reference": "urn:uuid:5b2ce4e9-5661-4554-9682-7f62e63a3281",
          "display": "Victor Lagarde"
        },
        "effectiveDateTime": "2021-07-02T04:48:18Z",
        "specimen": {
          "reference": "urn:uuid:8c45f21c-93c3-4341-a3c1-65bf725f9c8a"
        }
      }
    },
    {
      "fullUrl": "urn:uuid:67c94b4e-49c2-491e-9092-aa7ce5bde073",
      "resource": {
        "resourceType": "Observation",
        "id": "67c94b4e-49c2-491e-9092-aa7ce5bde073",
        "meta": {
          "profile": [
            "http://hl7.eu/fhir/laboratory/StructureDefinition/Observation-resultslab-eu-lab"
          ]
        },
        "performer": [
          {
            "display": "The Central European Lab"
          }
        ],
        "category": [
          {
            "coding": [
              {
                "system": "http://terminology.hl7.org/CodeSystem/observation-category",
                "code": "laboratory"
              }
            ]
          }
        ],
        "code": {
          "coding": [
            {
              "code": "5792-7",
              "system": "http://loinc.org",
              "display": "Glucose [Mass/volume] in Urine by Test strip"
            }
          ],
          "text": "Glucose [Mass/volume] in Urine by Test strip"
        },
        "valueQuantity": {
          "system": "http://unitsofmeasure.org",
          "value": 2.2,
          "unit": "mg/dL",
          "code": "mg/dL"
        },
        "referenceRange": [
          {
            "low": {
              "value": 0,
              "code": "mg/dL",
              "system": "http://unitsofmeasure.org"
            }
          },
          {
            "high": {
              "value": 0.8,
              "code": "mg/dL",
              "system": "http://unitsofmeasure.org"
            }
          }
        ],
        "interpretation": [
          {
            "coding": [
              {
                "code": "H",
                "system": "http://terminology.hl7.org/CodeSystem/v3-ObservationInterpretation",
                "display": "High"
              }
            ]
          }
        ],
        "text": {
          "status": "generated",
          "div": "<div xmlns=\"http://www.w3.org/1999/xhtml\"><table class=\"hl7__eu__lab__report\"><tr><th>Test</th><th>02-Jul-2021</th><th>Reference&#xA0;Range</th><th>Unit</th></tr><tr><td>Glucose [Mass/volume] in Urine by Test strip</td><td>2.2</td><td>0 - 0.8</td><td>H</td><td>mg/dL</td></tr></table></div>"
        },
        "status": "final",
        "subject": {
          "reference": "urn:uuid:5b2ce4e9-5661-4554-9682-7f62e63a3281",
          "display": "Victor Lagarde"
        },
        "effectiveDateTime": "2021-07-02T04:48:18Z",
        "specimen": {
          "reference": "urn:uuid:8c45f21c-93c3-4341-a3c1-65bf725f9c8a"
        }
      }
    },
    {
      "fullUrl": "urn:uuid:e0a27ec7-53cf-448c-8b58-9cf006d31c17",
      "resource": {
        "resourceType": "Observation",
        "id": "e0a27ec7-53cf-448c-8b58-9cf006d31c17",
        "meta": {
          "profile": [
            "http://hl7.eu/fhir/laboratory/StructureDefinition/Observation-resultslab-eu-lab"
          ]
        },
        "performer": [
          {
            "display": "The Central European Lab"
          }
        ],
        "category": [
          {
            "coding": [
              {
                "system": "http://terminology.hl7.org/CodeSystem/observation-category",
                "code": "laboratory"
              }
            ]
          }
        ],
        "code": {
          "coding": [
            {
              "code": "25428-4",
              "system": "http://loinc.org",
              "display": "Glucose [Presence] in Urine by Test strip"
            }
          ],
          "text": "Glucose [Presence] in Urine by Test strip"
        },
        "text": {
          "status": "generated",
          "div": "<div xmlns=\"http://www.w3.org/1999/xhtml\"><table class=\"hl7__eu__lab__report\"><tr><th>Test</th><th>02-Jul-2021</th><th>Reference&#xA0;Range</th><th>Unit</th></tr><tr><td>Glucose [Presence] in Urine by Test strip</td></tr></table></div>"
        },
        "status": "final",
        "subject": {
          "reference": "urn:uuid:5b2ce4e9-5661-4554-9682-7f62e63a3281",
          "display": "Victor Lagarde"
        },
        "effectiveDateTime": "2021-07-02T04:48:18Z",
        "specimen": {
          "reference": "urn:uuid:8c45f21c-93c3-4341-a3c1-65bf725f9c8a"
        }
      }
    },
    {
      "fullUrl": "urn:uuid:7a963bda-6f5d-4f17-b2e5-eebd04359020",
      "resource": {
        "resourceType": "Observation",
        "id": "7a963bda-6f5d-4f17-b2e5-eebd04359020",
        "meta": {
          "profile": [
            "http://hl7.eu/fhir/laboratory/StructureDefinition/Observation-resultslab-eu-lab"
          ]
        },
        "performer": [
          {
            "display": "The Central European Lab"
          }
        ],
        "category": [
          {
            "coding": [
              {
                "system": "http://terminology.hl7.org/CodeSystem/observation-category",
                "code": "laboratory"
              }
            ]
          }
        ],
        "code": {
          "coding": [
            {
              "code": "20505-4",
              "system": "http://loinc.org",
              "display": "Bilirubin.total [Mass/volume] in Urine by Test strip"
            }
          ],
          "text": "Bilirubin.total [Mass/volume] in Urine by Test strip"
        },
        "valueQuantity": {
          "system": "http://unitsofmeasure.org",
          "value": 1.3,
          "unit": "mg/dL",
          "code": "mg/dL"
        },
        "referenceRange": [
          {
            "low": {
              "value": 0,
              "code": "mg/dL",
              "system": "http://unitsofmeasure.org"
            }
          },
          {
            "high": {
              "value": 1.9,
              "code": "mg/dL",
              "system": "http://unitsofmeasure.org"
            }
          }
        ],
        "text": {
          "status": "generated",
          "div": "<div xmlns=\"http://www.w3.org/1999/xhtml\"><table class=\"hl7__eu__lab__report\"><tr><th>Test</th><th>02-Jul-2021</th><th>Reference&#xA0;Range</th><th>Unit</th></tr><tr><td>Bilirubin.total [Mass/volume] in Urine by Test strip</td><td>1.3</td><td>0 - 1.9</td><td></td><td>mg/dL</td></tr></table></div>"
        },
        "status": "final",
        "subject": {
          "reference": "urn:uuid:5b2ce4e9-5661-4554-9682-7f62e63a3281",
          "display": "Victor Lagarde"
        },
        "effectiveDateTime": "2021-07-02T04:48:18Z",
        "specimen": {
          "reference": "urn:uuid:8c45f21c-93c3-4341-a3c1-65bf725f9c8a"
        }
      }
    },
    {
      "fullUrl": "urn:uuid:cf8b3d93-46ee-4062-a1b3-113957c3bb38",
      "resource": {
        "resourceType": "Observation",
        "id": "cf8b3d93-46ee-4062-a1b3-113957c3bb38",
        "meta": {
          "profile": [
            "http://hl7.eu/fhir/laboratory/StructureDefinition/Observation-resultslab-eu-lab"
          ]
        },
        "performer": [
          {
            "display": "The Central European Lab"
          }
        ],
        "category": [
          {
            "coding": [
              {
                "system": "http://terminology.hl7.org/CodeSystem/observation-category",
                "code": "laboratory"
              }
            ]
          }
        ],
        "code": {
          "coding": [
            {
              "code": "5770-3",
              "system": "http://loinc.org",
              "display": "Bilirubin.total [Presence] in Urine by Test strip"
            }
          ],
          "text": "Bilirubin.total [Presence] in Urine by Test strip"
        },
        "text": {
          "status": "generated",
          "div": "<div xmlns=\"http://www.w3.org/1999/xhtml\"><table class=\"hl7__eu__lab__report\"><tr><th>Test</th><th>02-Jul-2021</th><th>Reference&#xA0;Range</th><th>Unit</th></tr><tr><td>Bilirubin.total [Presence] in Urine by Test strip</td></tr></table></div>"
        },
        "status": "final",
        "subject": {
          "reference": "urn:uuid:5b2ce4e9-5661-4554-9682-7f62e63a3281",
          "display": "Victor Lagarde"
        },
        "effectiveDateTime": "2021-07-02T04:48:18Z",
        "specimen": {
          "reference": "urn:uuid:8c45f21c-93c3-4341-a3c1-65bf725f9c8a"
        }
      }
    },
    {
      "fullUrl": "urn:uuid:daed4dee-5c6a-41d3-9135-643b7218e87e",
      "resource": {
        "resourceType": "Observation",
        "id": "daed4dee-5c6a-41d3-9135-643b7218e87e",
        "meta": {
          "profile": [
            "http://hl7.eu/fhir/laboratory/StructureDefinition/Observation-resultslab-eu-lab"
          ]
        },
        "performer": [
          {
            "display": "The Central European Lab"
          }
        ],
        "category": [
          {
            "coding": [
              {
                "system": "http://terminology.hl7.org/CodeSystem/observation-category",
                "code": "laboratory"
              }
            ]
          }
        ],
        "code": {
          "coding": [
            {
              "code": "5797-6",
              "system": "http://loinc.org",
              "display": "Ketones [Mass/volume] in Urine by Test strip"
            }
          ],
          "text": "Ketones [Mass/volume] in Urine by Test strip"
        },
        "valueQuantity": {
          "system": "http://unitsofmeasure.org",
          "value": 2.8,
          "unit": "mg/dL",
          "code": "mg/dL"
        },
        "referenceRange": [
          {
            "low": {
              "value": 0,
              "code": "mg/dL",
              "system": "http://unitsofmeasure.org"
            }
          },
          {
            "high": {
              "value": 3,
              "code": "mg/dL",
              "system": "http://unitsofmeasure.org"
            }
          }
        ],
        "text": {
          "status": "generated",
          "div": "<div xmlns=\"http://www.w3.org/1999/xhtml\"><table class=\"hl7__eu__lab__report\"><tr><th>Test</th><th>02-Jul-2021</th><th>Reference&#xA0;Range</th><th>Unit</th></tr><tr><td>Ketones [Mass/volume] in Urine by Test strip</td><td>2.8</td><td>0 - 3</td><td></td><td>mg/dL</td></tr></table></div>"
        },
        "status": "final",
        "subject": {
          "reference": "urn:uuid:5b2ce4e9-5661-4554-9682-7f62e63a3281",
          "display": "Victor Lagarde"
        },
        "effectiveDateTime": "2021-07-02T04:48:18Z",
        "specimen": {
          "reference": "urn:uuid:8c45f21c-93c3-4341-a3c1-65bf725f9c8a"
        }
      }
    },
    {
      "fullUrl": "urn:uuid:51c7e502-5924-4cdf-b708-803f7776a921",
      "resource": {
        "resourceType": "Observation",
        "id": "51c7e502-5924-4cdf-b708-803f7776a921",
        "meta": {
          "profile": [
            "http://hl7.eu/fhir/laboratory/StructureDefinition/Observation-resultslab-eu-lab"
          ]
        },
        "performer": [
          {
            "display": "The Central European Lab"
          }
        ],
        "category": [
          {
            "coding": [
              {
                "system": "http://terminology.hl7.org/CodeSystem/observation-category",
                "code": "laboratory"
              }
            ]
          }
        ],
        "code": {
          "coding": [
            {
              "code": "2514-8",
              "system": "http://loinc.org",
              "display": "Ketones [Presence] in Urine by Test strip"
            }
          ],
          "text": "Ketones [Presence] in Urine by Test strip"
        },
        "text": {
          "status": "generated",
          "div": "<div xmlns=\"http://www.w3.org/1999/xhtml\"><table class=\"hl7__eu__lab__report\"><tr><th>Test</th><th>02-Jul-2021</th><th>Reference&#xA0;Range</th><th>Unit</th></tr><tr><td>Ketones [Presence] in Urine by Test strip</td></tr></table></div>"
        },
        "status": "final",
        "subject": {
          "reference": "urn:uuid:5b2ce4e9-5661-4554-9682-7f62e63a3281",
          "display": "Victor Lagarde"
        },
        "effectiveDateTime": "2021-07-02T04:48:18Z",
        "specimen": {
          "reference": "urn:uuid:8c45f21c-93c3-4341-a3c1-65bf725f9c8a"
        }
      }
    },
    {
      "fullUrl": "urn:uuid:20aab95c-059c-4b50-8bba-8a069e0b9b0a",
      "resource": {
        "resourceType": "Observation",
        "id": "20aab95c-059c-4b50-8bba-8a069e0b9b0a",
        "meta": {
          "profile": [
            "http://hl7.eu/fhir/laboratory/StructureDefinition/Observation-resultslab-eu-lab"
          ]
        },
        "performer": [
          {
            "display": "The Central European Lab"
          }
        ],
        "category": [
          {
            "coding": [
              {
                "system": "http://terminology.hl7.org/CodeSystem/observation-category",
                "code": "laboratory"
              }
            ]
          }
        ],
        "code": {
          "coding": [
            {
              "code": "5811-5",
              "system": "http://loinc.org",
              "display": "Specific gravity of Urine by Test strip"
            }
          ],
          "text": "Specific gravity of Urine by Test strip"
        },
        "valueQuantity": {
          "system": "http://unitsofmeasure.org",
          "value": 1,
          "unit": "{nominal}",
          "code": "{nominal}"
        },
        "referenceRange": [
          {
            "low": {
              "value": 1.01,
              "code": "g/mL",
              "system": "http://unitsofmeasure.org"
            }
          },
          {
            "high": {
              "value": 1.03,
              "code": "g/mL",
              "system": "http://unitsofmeasure.org"
            }
          }
        ],
        "interpretation": [
          {
            "coding": [
              {
                "code": "L",
                "system": "http://terminology.hl7.org/CodeSystem/v3-ObservationInterpretation",
                "display": "Low"
              }
            ]
          }
        ],
        "text": {
          "status": "generated",
          "div": "<div xmlns=\"http://www.w3.org/1999/xhtml\"><table class=\"hl7__eu__lab__report\"><tr><th>Test</th><th>02-Jul-2021</th><th>Reference&#xA0;Range</th><th>Unit</th></tr><tr><td>Specific gravity of Urine by Test strip</td><td>1.0</td><td>1.01 - 1.03</td><td>L</td><td>{nominal}</td></tr></table></div>"
        },
        "status": "final",
        "subject": {
          "reference": "urn:uuid:5b2ce4e9-5661-4554-9682-7f62e63a3281",
          "display": "Victor Lagarde"
        },
        "effectiveDateTime": "2021-07-02T04:48:18Z",
        "specimen": {
          "reference": "urn:uuid:8c45f21c-93c3-4341-a3c1-65bf725f9c8a"
        }
      }
    },
    {
      "fullUrl": "urn:uuid:803b5aaf-97c6-464c-a589-27454f4887d7",
      "resource": {
        "resourceType": "Observation",
        "id": "803b5aaf-97c6-464c-a589-27454f4887d7",
        "meta": {
          "profile": [
            "http://hl7.eu/fhir/laboratory/StructureDefinition/Observation-resultslab-eu-lab"
          ]
        },
        "performer": [
          {
            "display": "The Central European Lab"
          }
        ],
        "category": [
          {
            "coding": [
              {
                "system": "http://terminology.hl7.org/CodeSystem/observation-category",
                "code": "laboratory"
              }
            ]
          }
        ],
        "code": {
          "coding": [
            {
              "code": "5803-2",
              "system": "http://loinc.org",
              "display": "pH of Urine by Test strip"
            }
          ],
          "text": "pH of Urine by Test strip"
        },
        "valueQuantity": {
          "system": "http://unitsofmeasure.org",
          "value": 6.3,
          "unit": "pH",
          "code": "pH"
        },
        "referenceRange": [
          {
            "low": {
              "value": 4.5,
              "code": "pH",
              "system": "http://unitsofmeasure.org"
            }
          },
          {
            "high": {
              "value": 7.5,
              "code": "pH",
              "system": "http://unitsofmeasure.org"
            }
          }
        ],
        "text": {
          "status": "generated",
          "div": "<div xmlns=\"http://www.w3.org/1999/xhtml\"><table class=\"hl7__eu__lab__report\"><tr><th>Test</th><th>02-Jul-2021</th><th>Reference&#xA0;Range</th><th>Unit</th></tr><tr><td>pH of Urine by Test strip</td><td>6.3</td><td>4.5 - 7.5</td><td></td><td>pH</td></tr></table></div>"
        },
        "status": "final",
        "subject": {
          "reference": "urn:uuid:5b2ce4e9-5661-4554-9682-7f62e63a3281",
          "display": "Victor Lagarde"
        },
        "effectiveDateTime": "2021-07-02T04:48:18Z",
        "specimen": {
          "reference": "urn:uuid:8c45f21c-93c3-4341-a3c1-65bf725f9c8a"
        }
      }
    },
    {
      "fullUrl": "urn:uuid:d21542fd-6cd1-4635-ba4a-2383af248324",
      "resource": {
        "resourceType": "Observation",
        "id": "d21542fd-6cd1-4635-ba4a-2383af248324",
        "meta": {
          "profile": [
            "http://hl7.eu/fhir/laboratory/StructureDefinition/Observation-resultslab-eu-lab"
          ]
        },
        "performer": [
          {
            "display": "The Central European Lab"
          }
        ],
        "category": [
          {
            "coding": [
              {
                "system": "http://terminology.hl7.org/CodeSystem/observation-category",
                "code": "laboratory"
              }
            ]
          }
        ],
        "code": {
          "coding": [
            {
              "code": "5804-0",
              "system": "http://loinc.org",
              "display": "Protein [Mass/volume] in Urine by Test strip"
            }
          ],
          "text": "Protein [Mass/volume] in Urine by Test strip"
        },
        "valueQuantity": {
          "system": "http://unitsofmeasure.org",
          "value": 359.4,
          "unit": "mg/dL",
          "code": "mg/dL"
        },
        "referenceRange": [
          {
            "low": {
              "value": 0,
              "code": "mg/dL",
              "system": "http://unitsofmeasure.org"
            }
          },
          {
            "high": {
              "value": 149,
              "code": "mg/dL",
              "system": "http://unitsofmeasure.org"
            }
          }
        ],
        "interpretation": [
          {
            "coding": [
              {
                "code": "H",
                "system": "http://terminology.hl7.org/CodeSystem/v3-ObservationInterpretation",
                "display": "High"
              }
            ]
          }
        ],
        "text": {
          "status": "generated",
          "div": "<div xmlns=\"http://www.w3.org/1999/xhtml\"><table class=\"hl7__eu__lab__report\"><tr><th>Test</th><th>02-Jul-2021</th><th>Reference&#xA0;Range</th><th>Unit</th></tr><tr><td>Protein [Mass/volume] in Urine by Test strip</td><td>359.4</td><td>0 - 149</td><td>H</td><td>mg/dL</td></tr></table></div>"
        },
        "status": "final",
        "subject": {
          "reference": "urn:uuid:5b2ce4e9-5661-4554-9682-7f62e63a3281",
          "display": "Victor Lagarde"
        },
        "effectiveDateTime": "2021-07-02T04:48:18Z",
        "specimen": {
          "reference": "urn:uuid:8c45f21c-93c3-4341-a3c1-65bf725f9c8a"
        }
      }
    },
    {
      "fullUrl": "urn:uuid:51ea5c42-fec8-46ef-90e8-e2426748b670",
      "resource": {
        "resourceType": "Observation",
        "id": "51ea5c42-fec8-46ef-90e8-e2426748b670",
        "meta": {
          "profile": [
            "http://hl7.eu/fhir/laboratory/StructureDefinition/Observation-resultslab-eu-lab"
          ]
        },
        "performer": [
          {
            "display": "The Central European Lab"
          }
        ],
        "category": [
          {
            "coding": [
              {
                "system": "http://terminology.hl7.org/CodeSystem/observation-category",
                "code": "laboratory"
              }
            ]
          }
        ],
        "code": {
          "coding": [
            {
              "code": "20454-5",
              "system": "http://loinc.org",
              "display": "Protein [Presence] in Urine by Test strip"
            }
          ],
          "text": "Protein [Presence] in Urine by Test strip"
        },
        "text": {
          "status": "generated",
          "div": "<div xmlns=\"http://www.w3.org/1999/xhtml\"><table class=\"hl7__eu__lab__report\"><tr><th>Test</th><th>02-Jul-2021</th><th>Reference&#xA0;Range</th><th>Unit</th></tr><tr><td>Protein [Presence] in Urine by Test strip</td></tr></table></div>"
        },
        "status": "final",
        "subject": {
          "reference": "urn:uuid:5b2ce4e9-5661-4554-9682-7f62e63a3281",
          "display": "Victor Lagarde"
        },
        "effectiveDateTime": "2021-07-02T04:48:18Z",
        "specimen": {
          "reference": "urn:uuid:8c45f21c-93c3-4341-a3c1-65bf725f9c8a"
        }
      }
    },
    {
      "fullUrl": "urn:uuid:dd1194e6-03ce-474a-acfa-e1e3fa19ca98",
      "resource": {
        "resourceType": "Observation",
        "id": "dd1194e6-03ce-474a-acfa-e1e3fa19ca98",
        "meta": {
          "profile": [
            "http://hl7.eu/fhir/laboratory/StructureDefinition/Observation-resultslab-eu-lab"
          ]
        },
        "performer": [
          {
            "display": "The Central European Lab"
          }
        ],
        "category": [
          {
            "coding": [
              {
                "system": "http://terminology.hl7.org/CodeSystem/observation-category",
                "code": "laboratory"
              }
            ]
          }
        ],
        "code": {
          "coding": [
            {
              "code": "5802-4",
              "system": "http://loinc.org",
              "display": "Nitrite [Presence] in Urine by Test strip"
            }
          ],
          "text": "Nitrite [Presence] in Urine by Test strip"
        },
        "text": {
          "status": "generated",
          "div": "<div xmlns=\"http://www.w3.org/1999/xhtml\"><table class=\"hl7__eu__lab__report\"><tr><th>Test</th><th>02-Jul-2021</th><th>Reference&#xA0;Range</th><th>Unit</th></tr><tr><td>Nitrite [Presence] in Urine by Test strip</td></tr></table></div>"
        },
        "status": "final",
        "subject": {
          "reference": "urn:uuid:5b2ce4e9-5661-4554-9682-7f62e63a3281",
          "display": "Victor Lagarde"
        },
        "effectiveDateTime": "2021-07-02T04:48:18Z",
        "specimen": {
          "reference": "urn:uuid:8c45f21c-93c3-4341-a3c1-65bf725f9c8a"
        }
      }
    },
    {
      "fullUrl": "urn:uuid:6eb00be4-66d3-4d69-a991-f42ced911315",
      "resource": {
        "resourceType": "Observation",
        "id": "6eb00be4-66d3-4d69-a991-f42ced911315",
        "meta": {
          "profile": [
            "http://hl7.eu/fhir/laboratory/StructureDefinition/Observation-resultslab-eu-lab"
          ]
        },
        "performer": [
          {
            "display": "The Central European Lab"
          }
        ],
        "category": [
          {
            "coding": [
              {
                "system": "http://terminology.hl7.org/CodeSystem/observation-category",
                "code": "laboratory"
              }
            ]
          }
        ],
        "code": {
          "coding": [
            {
              "code": "5794-3",
              "system": "http://loinc.org",
              "display": "Hemoglobin [Presence] in Urine by Test strip"
            }
          ],
          "text": "Hemoglobin [Presence] in Urine by Test strip"
        },
        "text": {
          "status": "generated",
          "div": "<div xmlns=\"http://www.w3.org/1999/xhtml\"><table class=\"hl7__eu__lab__report\"><tr><th>Test</th><th>02-Jul-2021</th><th>Reference&#xA0;Range</th><th>Unit</th></tr><tr><td>Hemoglobin [Presence] in Urine by Test strip</td></tr></table></div>"
        },
        "status": "final",
        "subject": {
          "reference": "urn:uuid:5b2ce4e9-5661-4554-9682-7f62e63a3281",
          "display": "Victor Lagarde"
        },
        "effectiveDateTime": "2021-07-02T04:48:18Z",
        "specimen": {
          "reference": "urn:uuid:8c45f21c-93c3-4341-a3c1-65bf725f9c8a"
        }
      }
    },
    {
      "fullUrl": "urn:uuid:ba35f26d-4dc7-4020-835c-c4f7a47e14db",
      "resource": {
        "resourceType": "Observation",
        "id": "ba35f26d-4dc7-4020-835c-c4f7a47e14db",
        "meta": {
          "profile": [
            "http://hl7.eu/fhir/laboratory/StructureDefinition/Observation-resultslab-eu-lab"
          ]
        },
        "performer": [
          {
            "display": "The Central European Lab"
          }
        ],
        "category": [
          {
            "coding": [
              {
                "system": "http://terminology.hl7.org/CodeSystem/observation-category",
                "code": "laboratory"
              }
            ]
          }
        ],
        "code": {
          "coding": [
            {
              "code": "5799-2",
              "system": "http://loinc.org",
              "display": "Leukocyte esterase [Presence] in Urine by Test strip"
            }
          ],
          "text": "Leukocyte esterase [Presence] in Urine by Test strip"
        },
        "text": {
          "status": "generated",
          "div": "<div xmlns=\"http://www.w3.org/1999/xhtml\"><table class=\"hl7__eu__lab__report\"><tr><th>Test</th><th>02-Jul-2021</th><th>Reference&#xA0;Range</th><th>Unit</th></tr><tr><td>Leukocyte esterase [Presence] in Urine by Test strip</td></tr></table></div>"
        },
        "status": "final",
        "subject": {
          "reference": "urn:uuid:5b2ce4e9-5661-4554-9682-7f62e63a3281",
          "display": "Victor Lagarde"
        },
        "effectiveDateTime": "2021-07-02T04:48:18Z",
        "specimen": {
          "reference": "urn:uuid:8c45f21c-93c3-4341-a3c1-65bf725f9c8a"
        }
      }
    },
    {
      "fullUrl": "urn:uuid:632494d6-a9eb-4755-9599-89fb144f2950",
      "resource": {
        "resourceType": "Observation",
        "id": "632494d6-a9eb-4755-9599-89fb144f2950",
        "meta": {
          "profile": [
            "http://hl7.eu/fhir/laboratory/StructureDefinition/Observation-resultslab-eu-lab"
          ]
        },
        "performer": [
          {
            "display": "The Central European Lab"
          }
        ],
        "category": [
          {
            "coding": [
              {
                "system": "http://terminology.hl7.org/CodeSystem/observation-category",
                "code": "laboratory"
              }
            ]
          }
        ],
        "code": {
          "coding": [
            {
              "code": "4548-4",
              "system": "http://loinc.org",
              "display": "Hemoglobin A1c/Hemoglobin.total in Blood"
            }
          ],
          "text": "Hemoglobin A1c/Hemoglobin.total in Blood"
        },
        "valueQuantity": {
          "system": "http://unitsofmeasure.org",
          "value": 3.4,
          "unit": "%",
          "code": "%"
        },
        "referenceRange": [
          {
            "low": {
              "value": 4.3,
              "code": "%",
              "system": "http://unitsofmeasure.org"
            }
          },
          {
            "high": {
              "value": 6,
              "code": "%",
              "system": "http://unitsofmeasure.org"
            }
          }
        ],
        "interpretation": [
          {
            "coding": [
              {
                "code": "L",
                "system": "http://terminology.hl7.org/CodeSystem/v3-ObservationInterpretation",
                "display": "Low"
              }
            ]
          }
        ],
        "text": {
          "status": "generated",
          "div": "<div xmlns=\"http://www.w3.org/1999/xhtml\"><table class=\"hl7__eu__lab__report\"><tr><th>Test</th><th>02-Jul-2021</th><th>Reference&#xA0;Range</th><th>Unit</th></tr><tr><td>Hemoglobin A1c/Hemoglobin.total in Blood</td><td>3.4</td><td>4.3 - 6</td><td>L</td><td>%</td></tr></table></div>"
        },
        "status": "final",
        "subject": {
          "reference": "urn:uuid:5b2ce4e9-5661-4554-9682-7f62e63a3281",
          "display": "Victor Lagarde"
        },
        "effectiveDateTime": "2021-07-02T04:48:18Z",
        "specimen": {
          "reference": "urn:uuid:abc3f775-f2ac-4837-b101-8ff6e8fa3b3f"
        }
      }
    },
    {
      "fullUrl": "urn:uuid:36374079-3bca-400c-ace2-20fd891cc57c",
      "resource": {
        "resourceType": "Observation",
        "id": "36374079-3bca-400c-ace2-20fd891cc57c",
        "meta": {
          "profile": [
            "http://hl7.eu/fhir/laboratory/StructureDefinition/Observation-resultslab-eu-lab"
          ]
        },
        "performer": [
          {
            "display": "The Central European Lab"
          }
        ],
        "category": [
          {
            "coding": [
              {
                "system": "http://terminology.hl7.org/CodeSystem/observation-category",
                "code": "laboratory"
              }
            ]
          }
        ],
        "code": {
          "coding": [
            {
              "code": "2339-0",
              "system": "http://loinc.org",
              "display": "Glucose [Mass/volume] in Blood"
            }
          ],
          "text": "Glucose [Mass/volume] in Blood"
        },
        "valueQuantity": {
          "system": "http://unitsofmeasure.org",
          "value": 91.8,
          "unit": "mg/dL",
          "code": "mg/dL"
        },
        "referenceRange": [
          {
            "low": {
              "value": 70,
              "code": "mg/dL",
              "system": "http://unitsofmeasure.org"
            }
          },
          {
            "high": {
              "value": 140,
              "code": "mg/dL",
              "system": "http://unitsofmeasure.org"
            }
          }
        ],
        "text": {
          "status": "generated",
          "div": "<div xmlns=\"http://www.w3.org/1999/xhtml\"><table class=\"hl7__eu__lab__report\"><tr><th>Test</th><th>02-Jul-2021</th><th>Reference&#xA0;Range</th><th>Unit</th></tr><tr><td>Glucose [Mass/volume] in Blood</td><td>91.8</td><td>70 - 140</td><td></td><td>mg/dL</td></tr></table></div>"
        },
        "status": "final",
        "subject": {
          "reference": "urn:uuid:5b2ce4e9-5661-4554-9682-7f62e63a3281",
          "display": "Victor Lagarde"
        },
        "effectiveDateTime": "2021-07-02T04:48:18Z",
        "specimen": {
          "reference": "urn:uuid:abc3f775-f2ac-4837-b101-8ff6e8fa3b3f"
        }
      }
    },
    {
      "fullUrl": "urn:uuid:4d55dafa-c03b-40a3-924c-bf7170b717b3",
      "resource": {
        "resourceType": "Observation",
        "id": "4d55dafa-c03b-40a3-924c-bf7170b717b3",
        "meta": {
          "profile": [
            "http://hl7.eu/fhir/laboratory/StructureDefinition/Observation-resultslab-eu-lab"
          ]
        },
        "performer": [
          {
            "display": "The Central European Lab"
          }
        ],
        "category": [
          {
            "coding": [
              {
                "system": "http://terminology.hl7.org/CodeSystem/observation-category",
                "code": "laboratory"
              }
            ]
          }
        ],
        "code": {
          "coding": [
            {
              "code": "6299-2",
              "system": "http://loinc.org",
              "display": "Urea nitrogen [Mass/volume] in Blood"
            }
          ],
          "text": "Urea nitrogen [Mass/volume] in Blood"
        },
        "valueQuantity": {
          "system": "http://unitsofmeasure.org",
          "value": 12.6,
          "unit": "mg/dL",
          "code": "mg/dL"
        },
        "referenceRange": [
          {
            "low": {
              "value": 7,
              "code": "mg/dL",
              "system": "http://unitsofmeasure.org"
            }
          },
          {
            "high": {
              "value": 20,
              "code": "mg/dL",
              "system": "http://unitsofmeasure.org"
            }
          }
        ],
        "text": {
          "status": "generated",
          "div": "<div xmlns=\"http://www.w3.org/1999/xhtml\"><table class=\"hl7__eu__lab__report\"><tr><th>Test</th><th>02-Jul-2021</th><th>Reference&#xA0;Range</th><th>Unit</th></tr><tr><td>Urea nitrogen [Mass/volume] in Blood</td><td>12.6</td><td>7 - 20</td><td></td><td>mg/dL</td></tr></table></div>"
        },
        "status": "final",
        "subject": {
          "reference": "urn:uuid:5b2ce4e9-5661-4554-9682-7f62e63a3281",
          "display": "Victor Lagarde"
        },
        "effectiveDateTime": "2021-07-02T04:48:18Z",
        "specimen": {
          "reference": "urn:uuid:abc3f775-f2ac-4837-b101-8ff6e8fa3b3f"
        }
      }
    },
    {
      "fullUrl": "urn:uuid:871b4f2a-41a4-4d5a-948b-3896effae83c",
      "resource": {
        "resourceType": "Observation",
        "id": "871b4f2a-41a4-4d5a-948b-3896effae83c",
        "meta": {
          "profile": [
            "http://hl7.eu/fhir/laboratory/StructureDefinition/Observation-resultslab-eu-lab"
          ]
        },
        "performer": [
          {
            "display": "The Central European Lab"
          }
        ],
        "category": [
          {
            "coding": [
              {
                "system": "http://terminology.hl7.org/CodeSystem/observation-category",
                "code": "laboratory"
              }
            ]
          }
        ],
        "code": {
          "coding": [
            {
              "code": "38483-4",
              "system": "http://loinc.org",
              "display": "Creatinine [Mass/volume] in Blood"
            }
          ],
          "text": "Creatinine [Mass/volume] in Blood"
        },
        "valueQuantity": {
          "system": "http://unitsofmeasure.org",
          "value": 4.5,
          "unit": "mg/dL",
          "code": "mg/dL"
        },
        "referenceRange": [
          {
            "low": {
              "value": 0.9,
              "code": "mg/dL",
              "system": "http://unitsofmeasure.org"
            }
          },
          {
            "high": {
              "value": 1.3,
              "code": "mg/dL",
              "system": "http://unitsofmeasure.org"
            }
          }
        ],
        "interpretation": [
          {
            "coding": [
              {
                "code": "H",
                "system": "http://terminology.hl7.org/CodeSystem/v3-ObservationInterpretation",
                "display": "High"
              }
            ]
          }
        ],
        "text": {
          "status": "generated",
          "div": "<div xmlns=\"http://www.w3.org/1999/xhtml\"><table class=\"hl7__eu__lab__report\"><tr><th>Test</th><th>02-Jul-2021</th><th>Reference&#xA0;Range</th><th>Unit</th></tr><tr><td>Creatinine [Mass/volume] in Blood</td><td>4.5</td><td>0.9 - 1.3</td><td>H</td><td>mg/dL</td></tr></table></div>"
        },
        "status": "final",
        "subject": {
          "reference": "urn:uuid:5b2ce4e9-5661-4554-9682-7f62e63a3281",
          "display": "Victor Lagarde"
        },
        "effectiveDateTime": "2021-07-02T04:48:18Z",
        "specimen": {
          "reference": "urn:uuid:abc3f775-f2ac-4837-b101-8ff6e8fa3b3f"
        }
      }
    },
    {
      "fullUrl": "urn:uuid:d275144b-e288-4caa-bfe9-15c9e90cc63a",
      "resource": {
        "resourceType": "Observation",
        "id": "d275144b-e288-4caa-bfe9-15c9e90cc63a",
        "meta": {
          "profile": [
            "http://hl7.eu/fhir/laboratory/StructureDefinition/Observation-resultslab-eu-lab"
          ]
        },
        "performer": [
          {
            "display": "The Central European Lab"
          }
        ],
        "category": [
          {
            "coding": [
              {
                "system": "http://terminology.hl7.org/CodeSystem/observation-category",
                "code": "laboratory"
              }
            ]
          }
        ],
        "code": {
          "coding": [
            {
              "code": "49765-1",
              "system": "http://loinc.org",
              "display": "Calcium [Mass/volume] in Blood"
            }
          ],
          "text": "Calcium [Mass/volume] in Blood"
        },
        "valueQuantity": {
          "system": "http://unitsofmeasure.org",
          "value": 9.9,
          "unit": "mg/dL",
          "code": "mg/dL"
        },
        "referenceRange": [
          {
            "low": {
              "value": 8.5,
              "code": "mg/dL",
              "system": "http://unitsofmeasure.org"
            }
          },
          {
            "high": {
              "value": 10.5,
              "code": "mg/dL",
              "system": "http://unitsofmeasure.org"
            }
          }
        ],
        "text": {
          "status": "generated",
          "div": "<div xmlns=\"http://www.w3.org/1999/xhtml\"><table class=\"hl7__eu__lab__report\"><tr><th>Test</th><th>02-Jul-2021</th><th>Reference&#xA0;Range</th><th>Unit</th></tr><tr><td>Calcium [Mass/volume] in Blood</td><td>9.9</td><td>8.5 - 10.5</td><td></td><td>mg/dL</td></tr></table></div>"
        },
        "status": "final",
        "subject": {
          "reference": "urn:uuid:5b2ce4e9-5661-4554-9682-7f62e63a3281",
          "display": "Victor Lagarde"
        },
        "effectiveDateTime": "2021-07-02T04:48:18Z",
        "specimen": {
          "reference": "urn:uuid:abc3f775-f2ac-4837-b101-8ff6e8fa3b3f"
        }
      }
    },
    {
      "fullUrl": "urn:uuid:96d68d8d-a774-4b9d-9d94-e6b14aae6e34",
      "resource": {
        "resourceType": "Observation",
        "id": "96d68d8d-a774-4b9d-9d94-e6b14aae6e34",
        "meta": {
          "profile": [
            "http://hl7.eu/fhir/laboratory/StructureDefinition/Observation-resultslab-eu-lab"
          ]
        },
        "performer": [
          {
            "display": "The Central European Lab"
          }
        ],
        "category": [
          {
            "coding": [
              {
                "system": "http://terminology.hl7.org/CodeSystem/observation-category",
                "code": "laboratory"
              }
            ]
          }
        ],
        "code": {
          "coding": [
            {
              "code": "2947-0",
              "system": "http://loinc.org",
              "display": "Sodium [Moles/volume] in Blood"
            }
          ],
          "text": "Sodium [Moles/volume] in Blood"
        },
        "valueQuantity": {
          "system": "http://unitsofmeasure.org",
          "value": 137.2,
          "unit": "mmol/L",
          "code": "mmol/L"
        },
        "referenceRange": [
          {
            "low": {
              "value": 135,
              "code": "mmol/L",
              "system": "http://unitsofmeasure.org"
            }
          },
          {
            "high": {
              "value": 145,
              "code": "mmol/L",
              "system": "http://unitsofmeasure.org"
            }
          }
        ],
        "text": {
          "status": "generated",
          "div": "<div xmlns=\"http://www.w3.org/1999/xhtml\"><table class=\"hl7__eu__lab__report\"><tr><th>Test</th><th>02-Jul-2021</th><th>Reference&#xA0;Range</th><th>Unit</th></tr><tr><td>Sodium [Moles/volume] in Blood</td><td>137.2</td><td>135 - 145</td><td></td><td>mmol/L</td></tr></table></div>"
        },
        "status": "final",
        "subject": {
          "reference": "urn:uuid:5b2ce4e9-5661-4554-9682-7f62e63a3281",
          "display": "Victor Lagarde"
        },
        "effectiveDateTime": "2021-07-02T04:48:18Z",
        "specimen": {
          "reference": "urn:uuid:abc3f775-f2ac-4837-b101-8ff6e8fa3b3f"
        }
      }
    },
    {
      "fullUrl": "urn:uuid:bec85a1d-a879-4b04-bb95-958d0cf24eab",
      "resource": {
        "resourceType": "Observation",
        "id": "bec85a1d-a879-4b04-bb95-958d0cf24eab",
        "meta": {
          "profile": [
            "http://hl7.eu/fhir/laboratory/StructureDefinition/Observation-resultslab-eu-lab"
          ]
        },
        "performer": [
          {
            "display": "The Central European Lab"
          }
        ],
        "category": [
          {
            "coding": [
              {
                "system": "http://terminology.hl7.org/CodeSystem/observation-category",
                "code": "laboratory"
              }
            ]
          }
        ],
        "code": {
          "coding": [
            {
              "code": "6298-4",
              "system": "http://loinc.org",
              "display": "Potassium [Moles/volume] in Blood"
            }
          ],
          "text": "Potassium [Moles/volume] in Blood"
        },
        "valueQuantity": {
          "system": "http://unitsofmeasure.org",
          "value": 4.9,
          "unit": "mmol/L",
          "code": "mmol/L"
        },
        "referenceRange": [
          {
            "low": {
              "value": 3.5,
              "code": "mmol/L",
              "system": "http://unitsofmeasure.org"
            }
          },
          {
            "high": {
              "value": 5.1,
              "code": "mmol/L",
              "system": "http://unitsofmeasure.org"
            }
          }
        ],
        "text": {
          "status": "generated",
          "div": "<div xmlns=\"http://www.w3.org/1999/xhtml\"><table class=\"hl7__eu__lab__report\"><tr><th>Test</th><th>02-Jul-2021</th><th>Reference&#xA0;Range</th><th>Unit</th></tr><tr><td>Potassium [Moles/volume] in Blood</td><td>4.9</td><td>3.5 - 5.1</td><td></td><td>mmol/L</td></tr></table></div>"
        },
        "status": "final",
        "subject": {
          "reference": "urn:uuid:5b2ce4e9-5661-4554-9682-7f62e63a3281",
          "display": "Victor Lagarde"
        },
        "effectiveDateTime": "2021-07-02T04:48:18Z",
        "specimen": {
          "reference": "urn:uuid:abc3f775-f2ac-4837-b101-8ff6e8fa3b3f"
        }
      }
    },
    {
      "fullUrl": "urn:uuid:ea241973-751b-4ba9-84d7-9c259eca5992",
      "resource": {
        "resourceType": "Observation",
        "id": "ea241973-751b-4ba9-84d7-9c259eca5992",
        "meta": {
          "profile": [
            "http://hl7.eu/fhir/laboratory/StructureDefinition/Observation-resultslab-eu-lab"
          ]
        },
        "performer": [
          {
            "display": "The Central European Lab"
          }
        ],
        "category": [
          {
            "coding": [
              {
                "system": "http://terminology.hl7.org/CodeSystem/observation-category",
                "code": "laboratory"
              }
            ]
          }
        ],
        "code": {
          "coding": [
            {
              "code": "2069-3",
              "system": "http://loinc.org",
              "display": "Chloride [Moles/volume] in Blood"
            }
          ],
          "text": "Chloride [Moles/volume] in Blood"
        },
        "valueQuantity": {
          "system": "http://unitsofmeasure.org",
          "value": 110.8,
          "unit": "mmol/L",
          "code": "mmol/L"
        },
        "referenceRange": [
          {
            "low": {
              "value": 98,
              "code": "mmol/L",
              "system": "http://unitsofmeasure.org"
            }
          },
          {
            "high": {
              "value": 108,
              "code": "mmol/L",
              "system": "http://unitsofmeasure.org"
            }
          }
        ],
        "interpretation": [
          {
            "coding": [
              {
                "code": "H",
                "system": "http://terminology.hl7.org/CodeSystem/v3-ObservationInterpretation",
                "display": "High"
              }
            ]
          }
        ],
        "text": {
          "status": "generated",
          "div": "<div xmlns=\"http://www.w3.org/1999/xhtml\"><table class=\"hl7__eu__lab__report\"><tr><th>Test</th><th>02-Jul-2021</th><th>Reference&#xA0;Range</th><th>Unit</th></tr><tr><td>Chloride [Moles/volume] in Blood</td><td>110.8</td><td>98 - 108</td><td>H</td><td>mmol/L</td></tr></table></div>"
        },
        "status": "final",
        "subject": {
          "reference": "urn:uuid:5b2ce4e9-5661-4554-9682-7f62e63a3281",
          "display": "Victor Lagarde"
        },
        "effectiveDateTime": "2021-07-02T04:48:18Z",
        "specimen": {
          "reference": "urn:uuid:abc3f775-f2ac-4837-b101-8ff6e8fa3b3f"
        }
      }
    },
    {
      "fullUrl": "urn:uuid:3ae66ed5-27b9-4f20-901b-c68c22e0aedf",
      "resource": {
        "resourceType": "Observation",
        "id": "3ae66ed5-27b9-4f20-901b-c68c22e0aedf",
        "meta": {
          "profile": [
            "http://hl7.eu/fhir/laboratory/StructureDefinition/Observation-resultslab-eu-lab"
          ]
        },
        "performer": [
          {
            "display": "The Central European Lab"
          }
        ],
        "category": [
          {
            "coding": [
              {
                "system": "http://terminology.hl7.org/CodeSystem/observation-category",
                "code": "laboratory"
              }
            ]
          }
        ],
        "code": {
          "coding": [
            {
              "code": "20565-8",
              "system": "http://loinc.org",
              "display": "Carbon dioxide, total [Moles/volume] in Blood"
            }
          ],
          "text": "Carbon dioxide, total [Moles/volume] in Blood"
        },
        "valueQuantity": {
          "system": "http://unitsofmeasure.org",
          "value": 28.4,
          "unit": "mmol/L",
          "code": "mmol/L"
        },
        "referenceRange": [
          {
            "low": {
              "value": 22,
              "code": "mmol/L",
              "system": "http://unitsofmeasure.org"
            }
          },
          {
            "high": {
              "value": 29,
              "code": "mmol/L",
              "system": "http://unitsofmeasure.org"
            }
          }
        ],
        "text": {
          "status": "generated",
          "div": "<div xmlns=\"http://www.w3.org/1999/xhtml\"><table class=\"hl7__eu__lab__report\"><tr><th>Test</th><th>02-Jul-2021</th><th>Reference&#xA0;Range</th><th>Unit</th></tr><tr><td>Carbon dioxide, total [Moles/volume] in Blood</td><td>28.4</td><td>22 - 29</td><td></td><td>mmol/L</td></tr></table></div>"
        },
        "status": "final",
        "subject": {
          "reference": "urn:uuid:5b2ce4e9-5661-4554-9682-7f62e63a3281",
          "display": "Victor Lagarde"
        },
        "effectiveDateTime": "2021-07-02T04:48:18Z",
        "specimen": {
          "reference": "urn:uuid:abc3f775-f2ac-4837-b101-8ff6e8fa3b3f"
        }
      }
    },
    {
      "fullUrl": "urn:uuid:5582ec6e-7036-4e99-93d9-58884e36aec3",
      "resource": {
        "resourceType": "Device",
        "id": "5582ec6e-7036-4e99-93d9-58884e36aec3",
        "deviceName": [
          {
            "name": "SYNDERAI Synthetic Generator",
            "type": "manufacturer-name"
          }
        ],
        "version": [
          {
            "value": "5.0"
          }
        ],
        "text": {
          "status": "generated",
          "div": "<div xmlns=\"http://www.w3.org/1999/xhtml\">SYNDERAI Synthetic Generator v5.0</div>"
        },
        "status": "active\"",
        "distinctIdentifier": "synderai-generator-50",
        "manufacturer": "SYNDERAI Project"
      }
    },
    {
      "fullUrl": "urn:uuid:f8207125-aa27-4493-97f7-ec9088354619",
      "resource": {
        "resourceType": "Provenance",
        "id": "f8207125-aa27-4493-97f7-ec9088354619",
        "target": [
          {
            "reference": "Patient/5b2ce4e9-5661-4554-9682-7f62e63a3281"
          },
          {
            "reference": "Bundle/8aa8704d-3c7a-40cd-bcbf-bfa66e47359e"
          },
          {
            "reference": "Composition/7bc5e070-e19d-4548-891c-7b1b15286400"
          },
          {
            "reference": "PractitionerRole/516a8ff0-a3f0-452c-8883-e38f139e1083"
          },
          {
            "reference": "Practitioner/d5247503-ee7a-433c-aeb1-7ed3a59ef6ce"
          },
          {
            "reference": "PractitionerRole/1038421e-2ba9-4bf2-a1ef-b1bb99791f8f"
          },
          {
            "reference": "Organization/883997c5-55c1-46a6-b139-79277a1cb573"
          }
        ],
        "activity": {
          "text": "Synthetic Example Data Generation"
        },
        "policy": [
          "https://synderai.net/synderai-synthetic-data-policy"
        ],
        "agent": [
          {
            "type": {
              "text": "author"
            },
            "who": {
              "reference": "Device/5582ec6e-7036-4e99-93d9-58884e36aec3"
            }
          }
        ],
        "reason": [
          {
            "text": "Interoperability Testing and Training (non-clinical use)"
          }
        ],
        "text": {
          "status": "generated",
          "div": "<div xmlns=\"http://www.w3.org/1999/xhtml\">Provenance for SYNDERAI Synthetic Example Data Resource</div>"
        },
        "recorded": "2021-07-02T06:48:18Z"
      }
    },
    {
      "fullUrl": "urn:uuid:516a8ff0-a3f0-452c-8883-e38f139e1083",
      "resource": {
        "resourceType": "PractitionerRole",
        "id": "516a8ff0-a3f0-452c-8883-e38f139e1083",
        "meta": {
          "profile": [
            "http://hl7.eu/fhir/base/StructureDefinition/practitionerRole-eu"
          ]
        },
        "text": {
          "status": "generated",
          "div": "<div xmlns=\"http://www.w3.org/1999/xhtml\">Laboratory Role Id: 516a8ff0-a3f0-452c-8883-e38f139e1083</div>"
        },
        "practitioner": {
          "reference": "urn:uuid:d5247503-ee7a-433c-aeb1-7ed3a59ef6ce"
        }
      }
    },
    {
      "fullUrl": "urn:uuid:d5247503-ee7a-433c-aeb1-7ed3a59ef6ce",
      "resource": {
        "resourceType": "Practitioner",
        "id": "d5247503-ee7a-433c-aeb1-7ed3a59ef6ce",
        "meta": {
          "profile": [
            "http://hl7.eu/fhir/base/StructureDefinition/practitioner-eu"
          ]
        },
        "identifier": [
          {
            "assigner": {
              "display": "HL7 Europe"
            },
            "system": "urn:oid:2.16.840.1.113883.2.51.999",
            "value": "72f7a7ef-21df-4fff-9765-7e2dbf8727dd"
          }
        ],
        "name": [
          {
            "prefix": [
              "dr"
            ],
            "given": [
              "Ex"
            ],
            "family": "Ample"
          }
        ],
        "address": [
          {
            "line": [
              "Laboratoire Central Européenne",
              "Boulevard du Jardin Botanique 32"
            ],
            "postalCode": "1000",
            "city": "Brussels",
            "country": "Belgium"
          }
        ],
        "text": {
          "status": "generated",
          "div": "<div xmlns=\"http://www.w3.org/1999/xhtml\">Laboratory: Laboratoire Central Européenne, 1000 Brussels, Belgium</div>"
        }
      }
    }
  ],
  "type": "document",
  "timestamp": "2021-07-02T06:48:18Z"
}
