{
  "resourceType": "Bundle",
  "id": "699be0d3-5cc9-4d22-aeb0-83905d225218",
  "meta": {
    "profile": [
      "http://hl7.eu/fhir/laboratory/StructureDefinition/Bundle-eu-lab"
    ]
  },
  "identifier": {
    "assigner": {
      "display": "HL7 Europe"
    },
    "system": "urn:oid:2.16.840.1.113883.2.51.999",
    "value": "4b422c02-d3a9-41b2-8207-488aa57860f2"
  },
  "entry": [
    {
      "fullUrl": "urn:uuid:f2efe11d-ffbe-4b0e-bab1-38d9f284ef14",
      "resource": {
        "resourceType": "Composition",
        "id": "f2efe11d-ffbe-4b0e-bab1-38d9f284ef14",
        "meta": {
          "profile": [
            "http://hl7.eu/fhir/laboratory/StructureDefinition/Composition-eu-lab"
          ]
        },
        "identifier": {
          "assigner": {
            "display": "HL7 Europe"
          },
          "system": "urn:oid:2.16.840.1.113883.2.51.999",
          "value": "e369a42f-78d2-4393-868a-da775c5c58cf"
        },
        "author": [
          {
            "reference": "urn:uuid:8c6e5e0d-781f-47b7-9a43-38893dbfee40"
          }
        ],
        "category": [
          {
            "coding": [
              {
                "code": "26436-6",
                "system": "http://loinc.org",
                "display": "Laboratory studies (set)"
              }
            ]
          }
        ],
        "type": {
          "coding": [
            {
              "code": "11502-2",
              "system": "http://loinc.org",
              "display": "Laboratory report"
            }
          ],
          "text": "Laboratory Report"
        },
        "section": [
          {
            "code": {
              "coding": [
                {
                  "code": "26436-6",
                  "system": "http://loinc.org",
                  "display": "Laboratory studies (set)"
                }
              ],
              "text": "Laboratory studies"
            },
            "section": [
              {
                "code": {
                  "coding": [
                    {
                      "code": "$18719-5",
                      "system": "http://loinc.org",
                      "display": "Chemistry studies (set)"
                    }
                  ],
                  "text": "Chemistry"
                },
                "entry": [
                  {
                    "reference": "urn:uuid:cedc5f64-29a8-4bf4-9d5d-a6b1e8691ae0"
                  },
                  {
                    "reference": "urn:uuid:ef19aecf-9f76-4074-a759-0062184d89b0"
                  },
                  {
                    "reference": "urn:uuid:895b3780-9ff4-4d22-a99d-28e44900dadd"
                  },
                  {
                    "reference": "urn:uuid:95bded2c-155d-40fa-9195-c4664700300b"
                  },
                  {
                    "reference": "urn:uuid:e132d3fb-3a62-442f-9007-76932e49f4d8"
                  },
                  {
                    "reference": "urn:uuid:47be4c15-e83c-4044-9d27-84d7f0f953e4"
                  },
                  {
                    "reference": "urn:uuid:24c0253a-1258-491a-acca-c40edb19ef71"
                  },
                  {
                    "reference": "urn:uuid:9c5863a0-435c-4c51-8ef7-03f28bba4779"
                  },
                  {
                    "reference": "urn:uuid:cd07ca14-3b9a-40a7-a731-e2b16ae66efc"
                  },
                  {
                    "reference": "urn:uuid:446f9a77-06a9-474c-b4dc-3f42d50b9419"
                  },
                  {
                    "reference": "urn:uuid:ea0543ef-2b52-4770-ad31-f95502acb18d"
                  },
                  {
                    "reference": "urn:uuid:1d662749-6fe1-49c0-95ad-6d193f3c5840"
                  },
                  {
                    "reference": "urn:uuid:e4dfd2ea-5e08-4181-8a3a-569a516831b8"
                  },
                  {
                    "reference": "urn:uuid:abe6df77-7f40-4f6b-bbc9-a2a43e51d40e"
                  },
                  {
                    "reference": "urn:uuid:4d49b843-6525-43c0-a315-3aa97c843bbc"
                  },
                  {
                    "reference": "urn:uuid:56c8ebe8-4f30-49c2-967a-3bc5d5c0ddc1"
                  },
                  {
                    "reference": "urn:uuid:955acd42-dc23-47d2-9990-0dbfe98cea85"
                  },
                  {
                    "reference": "urn:uuid:c9ddaa6d-1815-4a52-a135-b6a64b5cc833"
                  }
                ],
                "text": {
                  "status": "generated",
                  "div": "<div xmlns=\"http://www.w3.org/1999/xhtml\"><h3>Chemistry</h3><table class=\"hl7__eu__lab__report\"><thead><tr><th>Test</th><th>08-JUN-2021</th><th>Reference&#xA0;Range</th><th>Unit</th></tr></thead><tbody><tr><td>Glucose [Mass/volume] in Serum or Plasma</td><td>78.6</td><td>70 - 99</td><td>mg/dL</td></tr><tr><td>Urea nitrogen [Mass/volume] in Serum or Plasma</td><td>12.8</td><td>7 - 50</td><td>mg/dL</td></tr><tr><td>Creatinine [Mass/volume] in Serum or Plasma</td><td><strong>2.1 H</strong></td><td>0.6 - 1.1</td><td>mg/dL</td></tr><tr><td>Calcium [Mass/volume] in Serum or Plasma</td><td>8.9</td><td>8.6 - 10.4</td><td>mg/dL</td></tr><tr><td>Sodium [Moles/volume] in Serum or Plasma</td><td>137.7</td><td>135 - 145</td><td>mmol/L</td></tr><tr><td>Potassium [Moles/volume] in Serum or Plasma</td><td>4.5</td><td>3.5 - 5.1</td><td>mmol/L</td></tr><tr><td>Chloride [Moles/volume] in Serum or Plasma</td><td><strong>110.4 H</strong></td><td>98 - 108</td><td>mmol/L</td></tr><tr><td>Carbon dioxide, total [Moles/volume] in Serum or Plasma</td><td><strong>21.6 L</strong></td><td>22 - 32</td><td>mmol/L</td></tr><tr><td>Ketones [Presence] in Urine by Test strip</td><td>Urine ketone test = ++</td><td></td><td></td></tr><tr><td>Hemoglobin A1c/Hemoglobin.total in Blood</td><td><strong>3.1 L</strong></td><td>4 - 6.4</td><td>%</td></tr><tr><td>Glucose [Mass/volume] in Blood</td><td>78.6</td><td>70 - 100</td><td>mg/dL</td></tr><tr><td>Urea nitrogen [Mass/volume] in Blood</td><td>12.8</td><td>7 - 43</td><td>mg/dL</td></tr><tr><td>Creatinine [Mass/volume] in Blood</td><td><strong>3.8 H</strong></td><td>0.6 - 1.1</td><td>mg/dL</td></tr><tr><td>Calcium [Mass/volume] in Blood</td><td>8.9</td><td>8.5 - 10.5</td><td>mg/dL</td></tr><tr><td>Sodium [Moles/volume] in Blood</td><td>137.7</td><td>135 - 145</td><td>mmol/L</td></tr><tr><td>Potassium [Moles/volume] in Blood</td><td>4.5</td><td>3.5 - 5.1</td><td>mmol/L</td></tr><tr><td>Chloride [Moles/volume] in Blood</td><td><strong>110.4 H</strong></td><td>98 - 108</td><td>mmol/L</td></tr><tr><td>Carbon dioxide, total [Moles/volume] in Blood</td><td><strong>21.6 L</strong></td><td>22 - 29</td><td>mmol/L</td></tr></tbody></table></div>"
                },
                "title": "Chemistry"
              },
              {
                "code": {
                  "coding": [
                    {
                      "code": "$18729-4",
                      "system": "http://loinc.org",
                      "display": "Urinalysis studies (set)"
                    }
                  ],
                  "text": "Urinalysis"
                },
                "entry": [
                  {
                    "reference": "urn:uuid:b068b23b-e62e-4688-bc76-2c9e4c7a659a"
                  },
                  {
                    "reference": "urn:uuid:74b4fc4b-ca06-4678-a2b6-ff9db5710c53"
                  },
                  {
                    "reference": "urn:uuid:5f568a86-a41f-4623-a69b-b9e396f114ad"
                  },
                  {
                    "reference": "urn:uuid:bde3fa12-a3e0-4554-817e-ddc09a4a9206"
                  },
                  {
                    "reference": "urn:uuid:75f7a035-98bb-430a-96c7-c15f464dd8eb"
                  },
                  {
                    "reference": "urn:uuid:aa21ee59-43c0-45f6-8a59-1589bd944026"
                  },
                  {
                    "reference": "urn:uuid:d8ef78b8-ce4a-4611-a7bb-d7ce5413981f"
                  },
                  {
                    "reference": "urn:uuid:95e66975-db0d-4956-a57e-bf334a5c8038"
                  },
                  {
                    "reference": "urn:uuid:cdca43f9-961a-42e0-b6e4-93a165a28422"
                  },
                  {
                    "reference": "urn:uuid:8885e884-93b6-46af-9c31-1b376759e71e"
                  },
                  {
                    "reference": "urn:uuid:abf0efaa-ee61-45d1-be73-752e1dd065b8"
                  },
                  {
                    "reference": "urn:uuid:4bcb4f04-2e61-4ebc-a6c8-788eee8ba998"
                  }
                ],
                "text": {
                  "status": "generated",
                  "div": "<div xmlns=\"http://www.w3.org/1999/xhtml\"><h3>Urinalysis</h3><table class=\"hl7__eu__lab__report\"><thead><tr><th>Test</th><th>08-JUN-2021</th><th>Reference&#xA0;Range</th><th>Unit</th></tr></thead><tbody><tr><td>Glucose [Mass/volume] in Urine by Test strip</td><td><strong>0.6 L</strong></td><td>0.8 - 0</td><td>mg/dL</td></tr><tr><td>Glucose [Presence] in Urine by Test strip</td><td>++</td><td></td><td></td></tr><tr><td>Bilirubin.total [Mass/volume] in Urine by Test strip</td><td>0.4</td><td>0 - 1</td><td>mg/dL</td></tr><tr><td>Bilirubin.total [Presence] in Urine by Test strip</td><td>Finding of bilirubin in urine</td><td></td><td></td></tr><tr><td>Ketones [Mass/volume] in Urine by Test strip</td><td>1.7</td><td>0 - 4</td><td>mg/dL</td></tr><tr><td>Specific gravity of Urine by Test strip</td><td><strong>1.0 L</strong></td><td>1.005 - 1.03</td><td>{nominal}</td></tr><tr><td>pH of Urine by Test strip</td><td>6.0</td><td>4.6 - 7</td><td>pH</td></tr><tr><td>Protein [Mass/volume] in Urine by Test strip</td><td><strong>260.6 H</strong></td><td>0 - 14</td><td>mg/dL</td></tr><tr><td>Protein [Presence] in Urine by Test strip</td><td>Urine protein test = ++</td><td></td><td></td></tr><tr><td>Nitrite [Presence] in Urine by Test strip</td><td>Urine nitrite negative</td><td></td><td></td></tr><tr><td>Hemoglobin [Presence] in Urine by Test strip</td><td>Urine blood test = negative</td><td></td><td></td></tr><tr><td>Leukocyte esterase [Presence] in Urine by Test strip</td><td>Urine leukocyte test negative</td><td></td><td></td></tr></tbody></table></div>"
                },
                "title": "Urinalysis"
              },
              {
                "code": {
                  "coding": [
                    {
                      "code": "$LP7846-1",
                      "system": "http://loinc.org",
                      "display": "Specimen information"
                    }
                  ],
                  "text": "Specimen information"
                },
                "entry": [
                  {
                    "reference": "urn:uuid:f2e141fe-7f0c-410e-b903-61816ac8eee3"
                  },
                  {
                    "reference": "urn:uuid:33d2b1c2-b440-450c-8ab9-731d85b861a2"
                  },
                  {
                    "reference": "urn:uuid:569a195d-df97-4937-9117-d3be3f820775"
                  },
                  {
                    "reference": "urn:uuid:63149b54-35e1-4124-a0cd-c057baa70751"
                  }
                ],
                "text": {
                  "status": "generated",
                  "div": "<div xmlns=\"http://www.w3.org/1999/xhtml\"><h3>Specimen information</h3><table class=\"hl7__eu__lab__report\"><thead><tr><th>Test</th><th>08-JUN-2021</th><th>Specimen</th><th></th></tr></thead><tbody><tr><td>Appearance of Urine</td><td>Cloudy urine</td><td>Urine</td><td></td></tr><tr><td>Odor of Urine</td><td>Urine smell ammoniacal</td><td>Urine</td><td></td></tr><tr><td>Clarity of Urine</td><td>Translucent</td><td>Urine</td><td></td></tr><tr><td>Color of Urine</td><td>Brown color</td><td>Urine</td><td></td></tr></tbody></table></div>"
                },
                "title": "Specimen information"
              }
            ],
            "title": "Laboratory Report"
          },
          {
            "text": {
              "status": "generated",
              "div": "<div xmlns=\"http://www.w3.org/1999/xhtml\"><h3>Annotation</h3><table class=\"hl7__eu__lab__report\"><tr><th>Conclusion and Recommendations based on this report and previous findings known to us</th></tr><tr><td>The patient shows markedly elevated creatinine, proteinuria, low urine specific gravity, and abnormal urine appearance, suggesting significant renal impairment, possibly chronic kidney disease. Metabolic acidosis is indicated by low CO₂ and high chloride. There is also glucosuria and ketonuria despite low-normal blood glucose and low HbA1c, which may suggest renal glycosuria or tubular dysfunction. Further nephrological evaluation is strongly recommended.</td></tr></table></div>"
            },
            "code": {
              "coding": [
                {
                  "system": "http://loinc.org",
                  "code": "48767-8",
                  "display": "Annotation comment"
                }
              ]
            },
            "title": "Annotation comment"
          }
        ],
        "status": "final",
        "subject": {
          "reference": "urn:uuid:30e7bdd5-13ff-4a27-95f7-8960682630da",
          "display": "Meaghan Neary"
        },
        "date": "2021-06-08T00:11:04Z",
        "title": "Laboratory Report",
        "confidentiality": "N"
      }
    },
    {
      "fullUrl": "urn:uuid:3861f245-af97-4a6c-8293-25fd7d9052ae",
      "resource": {
        "resourceType": "DiagnosticReport",
        "id": "3861f245-af97-4a6c-8293-25fd7d9052ae",
        "meta": {
          "profile": [
            "http://hl7.eu/fhir/laboratory/StructureDefinition/DiagnosticReport-eu-lab"
          ]
        },
        "identifier": [
          {
            "assigner": {
              "display": "HL7 Europe"
            },
            "system": "urn:oid:2.16.840.1.113883.2.51.999",
            "value": "8a099771-f800-4c4a-877b-e4ec24b5280a"
          }
        ],
        "extension": [
          {
            "url": "http://hl7.org/fhir/5.0/StructureDefinition/extension-DiagnosticReport.composition",
            "valueReference": {
              "reference": "urn:uuid:e369a42f-78d2-4393-868a-da775c5c58cf"
            }
          }
        ],
        "category": [
          {
            "coding": [
              {
                "code": "26436-6",
                "system": "http://loinc.org",
                "display": "Laboratory studies (set)"
              }
            ]
          }
        ],
        "specimen": [
          {
            "reference": "urn:uuid:052cf5a3-8c0d-437a-9588-06d56c8cd972"
          },
          {
            "reference": "urn:uuid:e32346cb-a98b-4e64-861e-1807c02dd650"
          },
          {
            "reference": "urn:uuid:0d85154e-1ee6-4629-bc4d-a6eac184a8fa"
          }
        ],
        "result": [
          {
            "reference": "urn:uuid:cedc5f64-29a8-4bf4-9d5d-a6b1e8691ae0"
          },
          {
            "reference": "urn:uuid:ef19aecf-9f76-4074-a759-0062184d89b0"
          },
          {
            "reference": "urn:uuid:895b3780-9ff4-4d22-a99d-28e44900dadd"
          },
          {
            "reference": "urn:uuid:95bded2c-155d-40fa-9195-c4664700300b"
          },
          {
            "reference": "urn:uuid:e132d3fb-3a62-442f-9007-76932e49f4d8"
          },
          {
            "reference": "urn:uuid:47be4c15-e83c-4044-9d27-84d7f0f953e4"
          },
          {
            "reference": "urn:uuid:24c0253a-1258-491a-acca-c40edb19ef71"
          },
          {
            "reference": "urn:uuid:9c5863a0-435c-4c51-8ef7-03f28bba4779"
          },
          {
            "reference": "urn:uuid:f2e141fe-7f0c-410e-b903-61816ac8eee3"
          },
          {
            "reference": "urn:uuid:33d2b1c2-b440-450c-8ab9-731d85b861a2"
          },
          {
            "reference": "urn:uuid:569a195d-df97-4937-9117-d3be3f820775"
          },
          {
            "reference": "urn:uuid:63149b54-35e1-4124-a0cd-c057baa70751"
          },
          {
            "reference": "urn:uuid:b068b23b-e62e-4688-bc76-2c9e4c7a659a"
          },
          {
            "reference": "urn:uuid:74b4fc4b-ca06-4678-a2b6-ff9db5710c53"
          },
          {
            "reference": "urn:uuid:5f568a86-a41f-4623-a69b-b9e396f114ad"
          },
          {
            "reference": "urn:uuid:bde3fa12-a3e0-4554-817e-ddc09a4a9206"
          },
          {
            "reference": "urn:uuid:75f7a035-98bb-430a-96c7-c15f464dd8eb"
          },
          {
            "reference": "urn:uuid:cd07ca14-3b9a-40a7-a731-e2b16ae66efc"
          },
          {
            "reference": "urn:uuid:aa21ee59-43c0-45f6-8a59-1589bd944026"
          },
          {
            "reference": "urn:uuid:d8ef78b8-ce4a-4611-a7bb-d7ce5413981f"
          },
          {
            "reference": "urn:uuid:95e66975-db0d-4956-a57e-bf334a5c8038"
          },
          {
            "reference": "urn:uuid:cdca43f9-961a-42e0-b6e4-93a165a28422"
          },
          {
            "reference": "urn:uuid:8885e884-93b6-46af-9c31-1b376759e71e"
          },
          {
            "reference": "urn:uuid:abf0efaa-ee61-45d1-be73-752e1dd065b8"
          },
          {
            "reference": "urn:uuid:4bcb4f04-2e61-4ebc-a6c8-788eee8ba998"
          },
          {
            "reference": "urn:uuid:446f9a77-06a9-474c-b4dc-3f42d50b9419"
          },
          {
            "reference": "urn:uuid:ea0543ef-2b52-4770-ad31-f95502acb18d"
          },
          {
            "reference": "urn:uuid:1d662749-6fe1-49c0-95ad-6d193f3c5840"
          },
          {
            "reference": "urn:uuid:e4dfd2ea-5e08-4181-8a3a-569a516831b8"
          },
          {
            "reference": "urn:uuid:abe6df77-7f40-4f6b-bbc9-a2a43e51d40e"
          },
          {
            "reference": "urn:uuid:4d49b843-6525-43c0-a315-3aa97c843bbc"
          },
          {
            "reference": "urn:uuid:56c8ebe8-4f30-49c2-967a-3bc5d5c0ddc1"
          },
          {
            "reference": "urn:uuid:955acd42-dc23-47d2-9990-0dbfe98cea85"
          },
          {
            "reference": "urn:uuid:c9ddaa6d-1815-4a52-a135-b6a64b5cc833"
          }
        ],
        "status": "registered",
        "code": {
          "coding": [
            {
              "code": "11502-2",
              "system": "http://loinc.org",
              "display": "Laboratory report"
            }
          ]
        },
        "subject": {
          "reference": "urn:uuid:30e7bdd5-13ff-4a27-95f7-8960682630da",
          "display": "Meaghan Neary"
        }
      }
    },
    {
      "fullUrl": "urn:uuid:30e7bdd5-13ff-4a27-95f7-8960682630da",
      "resource": {
        "resourceType": "Patient",
        "id": "30e7bdd5-13ff-4a27-95f7-8960682630da",
        "meta": {
          "security": [
            {
              "system": "http://terminology.hl7.org/CodeSystem/v3-ActReason",
              "code": "HTEST"
            },
            {
              "system": "http://terminology.hl7.org/CodeSystem/v3-ActReason",
              "code": "TRAIN"
            }
          ],
          "tag": [
            {
              "system": "https://synderai.net/fhir/CodeSystem/tags",
              "code": "synthetic",
              "display": "SYNDERAI Synthetic data"
            }
          ],
          "profile": [
            "http://hl7.eu/fhir/base/StructureDefinition/patient-eu-core"
          ]
        },
        "identifier": [
          {
            "type": {
              "coding": [
                {
                  "code": "PT",
                  "system": "http://terminology.hl7.org/CodeSystem/v2-0203"
                }
              ]
            },
            "system": "http://ec.europa.eu/identifier/eci",
            "value": "1586-567257-8"
          },
          {
            "type": {
              "coding": [
                {
                  "code": "MR",
                  "system": "http://terminology.hl7.org/CodeSystem/v2-0203"
                }
              ]
            },
            "system": "http://local.setting.eu/identifier",
            "value": "443e6379-f231-b364-3ccb-644740a1aa2a"
          }
        ],
        "name": [
          {
            "family": "Neary"
          },
          {
            "given": [
              "Meaghan"
            ]
          },
          {
            "text": "Meaghan Neary"
          }
        ],
        "address": [
          {
            "line": [
              "64 Linskey Street"
            ],
            "use": "home",
            "type": "physical",
            "postalCode": "D02",
            "city": "Dublin",
            "country": "Ireland"
          }
        ],
        "telecom": [
          {
            "system": "phone",
            "value": "001-967-573-0911x465"
          }
        ],
        "extension": [
          {
            "url": "http://hl7.org/fhir/StructureDefinition/patient-nationality",
            "valueCodeableConcept": {
              "coding": [
                {
                  "code": "IE",
                  "system": "http://hl7.org/fhir/ValueSet/country"
                }
              ]
            }
          }
        ],
        "text": {
          "status": "generated",
          "div": "<div xmlns=\"http://www.w3.org/1999/xhtml\"><table class=\"hl7__ips\"><tr><td>Meaghan Neary</td><td>female</td><td>19-Dec-1960</td></tr></table></div>"
        },
        "gender": "female",
        "birthDate": "1960-12-19"
      }
    },
    {
      "fullUrl": "urn:uuid:9641e323-d67c-493a-a1b9-6eb3a439f4a7",
      "resource": {
        "resourceType": "ServiceRequest",
        "id": "9641e323-d67c-493a-a1b9-6eb3a439f4a7",
        "meta": {
          "profile": [
            "http://hl7.eu/fhir/laboratory/StructureDefinition/ServiceRequest-eu-lab"
          ]
        },
        "identifier": [
          {
            "system": "http://example.org",
            "value": "0c110739-4459-4e16-8452-012932d1590d"
          }
        ],
        "specimen": [
          {
            "reference": "urn:uuid:052cf5a3-8c0d-437a-9588-06d56c8cd972"
          },
          {
            "reference": "urn:uuid:e32346cb-a98b-4e64-861e-1807c02dd650"
          },
          {
            "reference": "urn:uuid:0d85154e-1ee6-4629-bc4d-a6eac184a8fa"
          }
        ],
        "reasonCode": [
          {
            "coding": [
              {
                "code": "55822004",
                "system": "http://snomed.info/sct",
                "display": "Hyperlipidemia"
              }
            ]
          },
          {
            "coding": [
              {
                "code": "433144002",
                "system": "http://snomed.info/sct",
                "display": "Chronic kidney disease stage 3"
              }
            ]
          },
          {
            "coding": [
              {
                "code": "157141000119108",
                "system": "http://snomed.info/sct",
                "display": "Proteinuria due to type 2 diabetes mellitus"
              }
            ]
          },
          {
            "coding": [
              {
                "code": "431856006",
                "system": "http://snomed.info/sct",
                "display": "Chronic kidney disease stage 2"
              }
            ]
          },
          {
            "coding": [
              {
                "code": "90781000119102",
                "system": "http://snomed.info/sct",
                "display": "Microalbuminuria due to type 2 diabetes mellitus"
              }
            ]
          },
          {
            "coding": [
              {
                "code": "127013003",
                "system": "http://snomed.info/sct",
                "display": "Disorder of kidney due to diabetes mellitus"
              }
            ]
          },
          {
            "coding": [
              {
                "code": "431855005",
                "system": "http://snomed.info/sct",
                "display": "Chronic kidney disease stage 1"
              }
            ]
          },
          {
            "coding": [
              {
                "code": "237602007",
                "system": "http://snomed.info/sct",
                "display": "Metabolic syndrome X"
              }
            ]
          },
          {
            "coding": [
              {
                "code": "271737000",
                "system": "http://snomed.info/sct",
                "display": "Anemia"
              }
            ]
          },
          {
            "coding": [
              {
                "code": "15777000",
                "system": "http://snomed.info/sct",
                "display": "Prediabetes"
              }
            ]
          },
          {
            "coding": [
              {
                "code": "59621000",
                "system": "http://snomed.info/sct",
                "display": "Essential hypertension"
              }
            ]
          }
        ],
        "status": "active",
        "intent": "order",
        "code": {
          "coding": [
            {
              "code": "108252007",
              "system": "http://snomed.info/sct",
              "display": "Laboratory procedure"
            }
          ]
        },
        "subject": {
          "reference": "urn:uuid:30e7bdd5-13ff-4a27-95f7-8960682630da",
          "display": "Meaghan Neary"
        },
        "requester": {
          "reference": "urn:uuid:b40fbc9e-f54b-4b84-8c7b-fa9a9e6358c7"
        }
      }
    },
    {
      "fullUrl": "urn:uuid:b40fbc9e-f54b-4b84-8c7b-fa9a9e6358c7",
      "resource": {
        "resourceType": "PractitionerRole",
        "id": "b40fbc9e-f54b-4b84-8c7b-fa9a9e6358c7",
        "meta": {
          "profile": [
            "http://hl7.eu/fhir/base/StructureDefinition/practitionerRole-eu"
          ]
        },
        "text": {
          "status": "generated",
          "div": "<div xmlns=\"http://www.w3.org/1999/xhtml\">Provider Role Id: b40fbc9e-f54b-4b84-8c7b-fa9a9e6358c7</div>"
        },
        "organization": {
          "reference": "urn:uuid:8b8a4611-e730-4c7b-93c3-2e156cd68cf6"
        }
      }
    },
    {
      "fullUrl": "urn:uuid:8b8a4611-e730-4c7b-93c3-2e156cd68cf6",
      "resource": {
        "resourceType": "Organization",
        "id": "8b8a4611-e730-4c7b-93c3-2e156cd68cf6",
        "meta": {
          "profile": [
            "http://hl7.eu/fhir/base/StructureDefinition/organization-eu"
          ]
        },
        "identifier": [
          {
            "assigner": {
              "display": "HL7 Europe"
            },
            "system": "urn:oid:2.16.840.1.113883.2.51.999",
            "value": "a84eb15b-2280-4269-8385-e869a2f9a729"
          }
        ],
        "address": [
          {
            "line": [
              "Parnell Square West nan"
            ],
            "city": "Dublin",
            "postalCode": "D01",
            "country": "Ireland"
          }
        ],
        "text": {
          "status": "generated",
          "div": "<div xmlns=\"http://www.w3.org/1999/xhtml\">Provider Organization: Rotunda Hospital</div>"
        },
        "name": "Rotunda Hospital"
      }
    },
    {
      "fullUrl": "urn:uuid:052cf5a3-8c0d-437a-9588-06d56c8cd972",
      "resource": {
        "resourceType": "Specimen",
        "id": "052cf5a3-8c0d-437a-9588-06d56c8cd972",
        "meta": {
          "profile": [
            "http://hl7.eu/fhir/laboratory/StructureDefinition/Specimen-eu-lab"
          ]
        },
        "collection": {
          "collectedDateTime": "2021-06-07"
        },
        "text": {
          "status": "generated",
          "div": "<div xmlns=\"http://www.w3.org/1999/xhtml\"><table class=\"hl7__eu__lab__report\"><tr><th>Specimen</th><th>Collection Date</th></tr><tr><td>Acellular blood (serum or plasma) specimen</td><td><span class=\"nb\">07-Jun-2021</span></td></tr></table></div>"
        },
        "type": {
          "coding": [
            {
              "code": "122592007",
              "system": "http://snomed.info/sct",
              "display": "Acellular blood (serum or plasma) specimen"
            }
          ]
        }
      }
    },
    {
      "fullUrl": "urn:uuid:e32346cb-a98b-4e64-861e-1807c02dd650",
      "resource": {
        "resourceType": "Specimen",
        "id": "e32346cb-a98b-4e64-861e-1807c02dd650",
        "meta": {
          "profile": [
            "http://hl7.eu/fhir/laboratory/StructureDefinition/Specimen-eu-lab"
          ]
        },
        "collection": {
          "collectedDateTime": "2021-06-07"
        },
        "text": {
          "status": "generated",
          "div": "<div xmlns=\"http://www.w3.org/1999/xhtml\"><table class=\"hl7__eu__lab__report\"><tr><th>Specimen</th><th>Collection Date</th></tr><tr><td>Urine specimen</td><td><span class=\"nb\">07-Jun-2021</span></td></tr></table></div>"
        },
        "type": {
          "coding": [
            {
              "code": "122575003",
              "system": "http://snomed.info/sct",
              "display": "Urine specimen"
            }
          ]
        }
      }
    },
    {
      "fullUrl": "urn:uuid:0d85154e-1ee6-4629-bc4d-a6eac184a8fa",
      "resource": {
        "resourceType": "Specimen",
        "id": "0d85154e-1ee6-4629-bc4d-a6eac184a8fa",
        "meta": {
          "profile": [
            "http://hl7.eu/fhir/laboratory/StructureDefinition/Specimen-eu-lab"
          ]
        },
        "collection": {
          "collectedDateTime": "2021-06-07"
        },
        "text": {
          "status": "generated",
          "div": "<div xmlns=\"http://www.w3.org/1999/xhtml\"><table class=\"hl7__eu__lab__report\"><tr><th>Specimen</th><th>Collection Date</th></tr><tr><td>Whole blood specimen (specimen)</td><td><span class=\"nb\">07-Jun-2021</span></td></tr></table></div>"
        },
        "type": {
          "coding": [
            {
              "code": "258580003",
              "system": "http://snomed.info/sct",
              "display": "Whole blood specimen (specimen)"
            }
          ]
        }
      }
    },
    {
      "fullUrl": "urn:uuid:cedc5f64-29a8-4bf4-9d5d-a6b1e8691ae0",
      "resource": {
        "resourceType": "Observation",
        "id": "cedc5f64-29a8-4bf4-9d5d-a6b1e8691ae0",
        "meta": {
          "profile": [
            "http://hl7.eu/fhir/laboratory/StructureDefinition/Observation-resultslab-eu-lab"
          ]
        },
        "performer": [
          {
            "display": "The Central European Lab"
          }
        ],
        "category": [
          {
            "coding": [
              {
                "system": "http://terminology.hl7.org/CodeSystem/observation-category",
                "code": "laboratory"
              }
            ]
          }
        ],
        "code": {
          "coding": [
            {
              "code": "2345-7",
              "system": "http://loinc.org",
              "display": "Glucose [Mass/volume] in Serum or Plasma"
            }
          ],
          "text": "Glucose [Mass/volume] in Serum or Plasma"
        },
        "valueQuantity": {
          "system": "http://unitsofmeasure.org",
          "value": 78.6,
          "unit": "mg/dL",
          "code": "mg/dL"
        },
        "referenceRange": [
          {
            "low": {
              "value": 70,
              "code": "mg/dL",
              "system": "http://unitsofmeasure.org"
            }
          },
          {
            "high": {
              "value": 99,
              "code": "mg/dL",
              "system": "http://unitsofmeasure.org"
            }
          }
        ],
        "text": {
          "status": "generated",
          "div": "<div xmlns=\"http://www.w3.org/1999/xhtml\"><table class=\"hl7__eu__lab__report\"><tr><th>Test</th><th>08-Jun-2021</th><th>Reference&#xA0;Range</th><th>Unit</th></tr><tr><td>Glucose [Mass/volume] in Serum or Plasma</td><td>78.6</td><td>70 - 99</td><td></td><td>mg/dL</td></tr></table></div>"
        },
        "status": "final",
        "subject": {
          "reference": "urn:uuid:30e7bdd5-13ff-4a27-95f7-8960682630da",
          "display": "Meaghan Neary"
        },
        "effectiveDateTime": "2021-06-07T22:11:04Z",
        "specimen": {
          "reference": "urn:uuid:052cf5a3-8c0d-437a-9588-06d56c8cd972"
        }
      }
    },
    {
      "fullUrl": "urn:uuid:ef19aecf-9f76-4074-a759-0062184d89b0",
      "resource": {
        "resourceType": "Observation",
        "id": "ef19aecf-9f76-4074-a759-0062184d89b0",
        "meta": {
          "profile": [
            "http://hl7.eu/fhir/laboratory/StructureDefinition/Observation-resultslab-eu-lab"
          ]
        },
        "performer": [
          {
            "display": "The Central European Lab"
          }
        ],
        "category": [
          {
            "coding": [
              {
                "system": "http://terminology.hl7.org/CodeSystem/observation-category",
                "code": "laboratory"
              }
            ]
          }
        ],
        "code": {
          "coding": [
            {
              "code": "3094-0",
              "system": "http://loinc.org",
              "display": "Urea nitrogen [Mass/volume] in Serum or Plasma"
            }
          ],
          "text": "Urea nitrogen [Mass/volume] in Serum or Plasma"
        },
        "valueQuantity": {
          "system": "http://unitsofmeasure.org",
          "value": 12.8,
          "unit": "mg/dL",
          "code": "mg/dL"
        },
        "referenceRange": [
          {
            "low": {
              "value": 7,
              "code": "mg/dL",
              "system": "http://unitsofmeasure.org"
            }
          },
          {
            "high": {
              "value": 50,
              "code": "mg/dL",
              "system": "http://unitsofmeasure.org"
            }
          }
        ],
        "text": {
          "status": "generated",
          "div": "<div xmlns=\"http://www.w3.org/1999/xhtml\"><table class=\"hl7__eu__lab__report\"><tr><th>Test</th><th>08-Jun-2021</th><th>Reference&#xA0;Range</th><th>Unit</th></tr><tr><td>Urea nitrogen [Mass/volume] in Serum or Plasma</td><td>12.8</td><td>7 - 50</td><td></td><td>mg/dL</td></tr></table></div>"
        },
        "status": "final",
        "subject": {
          "reference": "urn:uuid:30e7bdd5-13ff-4a27-95f7-8960682630da",
          "display": "Meaghan Neary"
        },
        "effectiveDateTime": "2021-06-07T22:11:04Z",
        "specimen": {
          "reference": "urn:uuid:052cf5a3-8c0d-437a-9588-06d56c8cd972"
        }
      }
    },
    {
      "fullUrl": "urn:uuid:895b3780-9ff4-4d22-a99d-28e44900dadd",
      "resource": {
        "resourceType": "Observation",
        "id": "895b3780-9ff4-4d22-a99d-28e44900dadd",
        "meta": {
          "profile": [
            "http://hl7.eu/fhir/laboratory/StructureDefinition/Observation-resultslab-eu-lab"
          ]
        },
        "performer": [
          {
            "display": "The Central European Lab"
          }
        ],
        "category": [
          {
            "coding": [
              {
                "system": "http://terminology.hl7.org/CodeSystem/observation-category",
                "code": "laboratory"
              }
            ]
          }
        ],
        "code": {
          "coding": [
            {
              "code": "2160-0",
              "system": "http://loinc.org",
              "display": "Creatinine [Mass/volume] in Serum or Plasma"
            }
          ],
          "text": "Creatinine [Mass/volume] in Serum or Plasma"
        },
        "valueQuantity": {
          "system": "http://unitsofmeasure.org",
          "value": 2.1,
          "unit": "mg/dL",
          "code": "mg/dL"
        },
        "referenceRange": [
          {
            "low": {
              "value": 0.6,
              "code": "mg/dL",
              "system": "http://unitsofmeasure.org"
            }
          },
          {
            "high": {
              "value": 1.1,
              "code": "mg/dL",
              "system": "http://unitsofmeasure.org"
            }
          }
        ],
        "interpretation": [
          {
            "coding": [
              {
                "code": "H",
                "system": "http://terminology.hl7.org/CodeSystem/v3-ObservationInterpretation",
                "display": "High"
              }
            ]
          }
        ],
        "text": {
          "status": "generated",
          "div": "<div xmlns=\"http://www.w3.org/1999/xhtml\"><table class=\"hl7__eu__lab__report\"><tr><th>Test</th><th>08-Jun-2021</th><th>Reference&#xA0;Range</th><th>Unit</th></tr><tr><td>Creatinine [Mass/volume] in Serum or Plasma</td><td>2.1</td><td>0.6 - 1.1</td><td>H</td><td>mg/dL</td></tr></table></div>"
        },
        "status": "final",
        "subject": {
          "reference": "urn:uuid:30e7bdd5-13ff-4a27-95f7-8960682630da",
          "display": "Meaghan Neary"
        },
        "effectiveDateTime": "2021-06-07T22:11:04Z",
        "specimen": {
          "reference": "urn:uuid:052cf5a3-8c0d-437a-9588-06d56c8cd972"
        }
      }
    },
    {
      "fullUrl": "urn:uuid:95bded2c-155d-40fa-9195-c4664700300b",
      "resource": {
        "resourceType": "Observation",
        "id": "95bded2c-155d-40fa-9195-c4664700300b",
        "meta": {
          "profile": [
            "http://hl7.eu/fhir/laboratory/StructureDefinition/Observation-resultslab-eu-lab"
          ]
        },
        "performer": [
          {
            "display": "The Central European Lab"
          }
        ],
        "category": [
          {
            "coding": [
              {
                "system": "http://terminology.hl7.org/CodeSystem/observation-category",
                "code": "laboratory"
              }
            ]
          }
        ],
        "code": {
          "coding": [
            {
              "code": "17861-6",
              "system": "http://loinc.org",
              "display": "Calcium [Mass/volume] in Serum or Plasma"
            }
          ],
          "text": "Calcium [Mass/volume] in Serum or Plasma"
        },
        "valueQuantity": {
          "system": "http://unitsofmeasure.org",
          "value": 8.9,
          "unit": "mg/dL",
          "code": "mg/dL"
        },
        "referenceRange": [
          {
            "low": {
              "value": 8.6,
              "code": "mg/dL",
              "system": "http://unitsofmeasure.org"
            }
          },
          {
            "high": {
              "value": 10.4,
              "code": "mg/dL",
              "system": "http://unitsofmeasure.org"
            }
          }
        ],
        "text": {
          "status": "generated",
          "div": "<div xmlns=\"http://www.w3.org/1999/xhtml\"><table class=\"hl7__eu__lab__report\"><tr><th>Test</th><th>08-Jun-2021</th><th>Reference&#xA0;Range</th><th>Unit</th></tr><tr><td>Calcium [Mass/volume] in Serum or Plasma</td><td>8.9</td><td>8.6 - 10.4</td><td></td><td>mg/dL</td></tr></table></div>"
        },
        "status": "final",
        "subject": {
          "reference": "urn:uuid:30e7bdd5-13ff-4a27-95f7-8960682630da",
          "display": "Meaghan Neary"
        },
        "effectiveDateTime": "2021-06-07T22:11:04Z",
        "specimen": {
          "reference": "urn:uuid:052cf5a3-8c0d-437a-9588-06d56c8cd972"
        }
      }
    },
    {
      "fullUrl": "urn:uuid:e132d3fb-3a62-442f-9007-76932e49f4d8",
      "resource": {
        "resourceType": "Observation",
        "id": "e132d3fb-3a62-442f-9007-76932e49f4d8",
        "meta": {
          "profile": [
            "http://hl7.eu/fhir/laboratory/StructureDefinition/Observation-resultslab-eu-lab"
          ]
        },
        "performer": [
          {
            "display": "The Central European Lab"
          }
        ],
        "category": [
          {
            "coding": [
              {
                "system": "http://terminology.hl7.org/CodeSystem/observation-category",
                "code": "laboratory"
              }
            ]
          }
        ],
        "code": {
          "coding": [
            {
              "code": "2951-2",
              "system": "http://loinc.org",
              "display": "Sodium [Moles/volume] in Serum or Plasma"
            }
          ],
          "text": "Sodium [Moles/volume] in Serum or Plasma"
        },
        "valueQuantity": {
          "system": "http://unitsofmeasure.org",
          "value": 137.7,
          "unit": "mmol/L",
          "code": "mmol/L"
        },
        "referenceRange": [
          {
            "low": {
              "value": 135,
              "code": "mmol/L",
              "system": "http://unitsofmeasure.org"
            }
          },
          {
            "high": {
              "value": 145,
              "code": "mmol/L",
              "system": "http://unitsofmeasure.org"
            }
          }
        ],
        "text": {
          "status": "generated",
          "div": "<div xmlns=\"http://www.w3.org/1999/xhtml\"><table class=\"hl7__eu__lab__report\"><tr><th>Test</th><th>08-Jun-2021</th><th>Reference&#xA0;Range</th><th>Unit</th></tr><tr><td>Sodium [Moles/volume] in Serum or Plasma</td><td>137.7</td><td>135 - 145</td><td></td><td>mmol/L</td></tr></table></div>"
        },
        "status": "final",
        "subject": {
          "reference": "urn:uuid:30e7bdd5-13ff-4a27-95f7-8960682630da",
          "display": "Meaghan Neary"
        },
        "effectiveDateTime": "2021-06-07T22:11:04Z",
        "specimen": {
          "reference": "urn:uuid:052cf5a3-8c0d-437a-9588-06d56c8cd972"
        }
      }
    },
    {
      "fullUrl": "urn:uuid:47be4c15-e83c-4044-9d27-84d7f0f953e4",
      "resource": {
        "resourceType": "Observation",
        "id": "47be4c15-e83c-4044-9d27-84d7f0f953e4",
        "meta": {
          "profile": [
            "http://hl7.eu/fhir/laboratory/StructureDefinition/Observation-resultslab-eu-lab"
          ]
        },
        "performer": [
          {
            "display": "The Central European Lab"
          }
        ],
        "category": [
          {
            "coding": [
              {
                "system": "http://terminology.hl7.org/CodeSystem/observation-category",
                "code": "laboratory"
              }
            ]
          }
        ],
        "code": {
          "coding": [
            {
              "code": "2823-3",
              "system": "http://loinc.org",
              "display": "Potassium [Moles/volume] in Serum or Plasma"
            }
          ],
          "text": "Potassium [Moles/volume] in Serum or Plasma"
        },
        "valueQuantity": {
          "system": "http://unitsofmeasure.org",
          "value": 4.5,
          "unit": "mmol/L",
          "code": "mmol/L"
        },
        "referenceRange": [
          {
            "low": {
              "value": 3.5,
              "code": "mmol/L",
              "system": "http://unitsofmeasure.org"
            }
          },
          {
            "high": {
              "value": 5.1,
              "code": "mmol/L",
              "system": "http://unitsofmeasure.org"
            }
          }
        ],
        "text": {
          "status": "generated",
          "div": "<div xmlns=\"http://www.w3.org/1999/xhtml\"><table class=\"hl7__eu__lab__report\"><tr><th>Test</th><th>08-Jun-2021</th><th>Reference&#xA0;Range</th><th>Unit</th></tr><tr><td>Potassium [Moles/volume] in Serum or Plasma</td><td>4.5</td><td>3.5 - 5.1</td><td></td><td>mmol/L</td></tr></table></div>"
        },
        "status": "final",
        "subject": {
          "reference": "urn:uuid:30e7bdd5-13ff-4a27-95f7-8960682630da",
          "display": "Meaghan Neary"
        },
        "effectiveDateTime": "2021-06-07T22:11:04Z",
        "specimen": {
          "reference": "urn:uuid:052cf5a3-8c0d-437a-9588-06d56c8cd972"
        }
      }
    },
    {
      "fullUrl": "urn:uuid:24c0253a-1258-491a-acca-c40edb19ef71",
      "resource": {
        "resourceType": "Observation",
        "id": "24c0253a-1258-491a-acca-c40edb19ef71",
        "meta": {
          "profile": [
            "http://hl7.eu/fhir/laboratory/StructureDefinition/Observation-resultslab-eu-lab"
          ]
        },
        "performer": [
          {
            "display": "The Central European Lab"
          }
        ],
        "category": [
          {
            "coding": [
              {
                "system": "http://terminology.hl7.org/CodeSystem/observation-category",
                "code": "laboratory"
              }
            ]
          }
        ],
        "code": {
          "coding": [
            {
              "code": "2075-0",
              "system": "http://loinc.org",
              "display": "Chloride [Moles/volume] in Serum or Plasma"
            }
          ],
          "text": "Chloride [Moles/volume] in Serum or Plasma"
        },
        "valueQuantity": {
          "system": "http://unitsofmeasure.org",
          "value": 110.4,
          "unit": "mmol/L",
          "code": "mmol/L"
        },
        "referenceRange": [
          {
            "low": {
              "value": 98,
              "code": "mmol/L",
              "system": "http://unitsofmeasure.org"
            }
          },
          {
            "high": {
              "value": 108,
              "code": "mmol/L",
              "system": "http://unitsofmeasure.org"
            }
          }
        ],
        "interpretation": [
          {
            "coding": [
              {
                "code": "H",
                "system": "http://terminology.hl7.org/CodeSystem/v3-ObservationInterpretation",
                "display": "High"
              }
            ]
          }
        ],
        "text": {
          "status": "generated",
          "div": "<div xmlns=\"http://www.w3.org/1999/xhtml\"><table class=\"hl7__eu__lab__report\"><tr><th>Test</th><th>08-Jun-2021</th><th>Reference&#xA0;Range</th><th>Unit</th></tr><tr><td>Chloride [Moles/volume] in Serum or Plasma</td><td>110.4</td><td>98 - 108</td><td>H</td><td>mmol/L</td></tr></table></div>"
        },
        "status": "final",
        "subject": {
          "reference": "urn:uuid:30e7bdd5-13ff-4a27-95f7-8960682630da",
          "display": "Meaghan Neary"
        },
        "effectiveDateTime": "2021-06-07T22:11:04Z",
        "specimen": {
          "reference": "urn:uuid:052cf5a3-8c0d-437a-9588-06d56c8cd972"
        }
      }
    },
    {
      "fullUrl": "urn:uuid:9c5863a0-435c-4c51-8ef7-03f28bba4779",
      "resource": {
        "resourceType": "Observation",
        "id": "9c5863a0-435c-4c51-8ef7-03f28bba4779",
        "meta": {
          "profile": [
            "http://hl7.eu/fhir/laboratory/StructureDefinition/Observation-resultslab-eu-lab"
          ]
        },
        "performer": [
          {
            "display": "The Central European Lab"
          }
        ],
        "category": [
          {
            "coding": [
              {
                "system": "http://terminology.hl7.org/CodeSystem/observation-category",
                "code": "laboratory"
              }
            ]
          }
        ],
        "code": {
          "coding": [
            {
              "code": "2028-9",
              "system": "http://loinc.org",
              "display": "Carbon dioxide, total [Moles/volume] in Serum or Plasma"
            }
          ],
          "text": "Carbon dioxide, total [Moles/volume] in Serum or Plasma"
        },
        "valueQuantity": {
          "system": "http://unitsofmeasure.org",
          "value": 21.6,
          "unit": "mmol/L",
          "code": "mmol/L"
        },
        "referenceRange": [
          {
            "low": {
              "value": 22,
              "code": "mmol/L",
              "system": "http://unitsofmeasure.org"
            }
          },
          {
            "high": {
              "value": 32,
              "code": "mmol/L",
              "system": "http://unitsofmeasure.org"
            }
          }
        ],
        "interpretation": [
          {
            "coding": [
              {
                "code": "L",
                "system": "http://terminology.hl7.org/CodeSystem/v3-ObservationInterpretation",
                "display": "Low"
              }
            ]
          }
        ],
        "text": {
          "status": "generated",
          "div": "<div xmlns=\"http://www.w3.org/1999/xhtml\"><table class=\"hl7__eu__lab__report\"><tr><th>Test</th><th>08-Jun-2021</th><th>Reference&#xA0;Range</th><th>Unit</th></tr><tr><td>Carbon dioxide, total [Moles/volume] in Serum or Plasma</td><td>21.6</td><td>22 - 32</td><td>L</td><td>mmol/L</td></tr></table></div>"
        },
        "status": "final",
        "subject": {
          "reference": "urn:uuid:30e7bdd5-13ff-4a27-95f7-8960682630da",
          "display": "Meaghan Neary"
        },
        "effectiveDateTime": "2021-06-07T22:11:04Z",
        "specimen": {
          "reference": "urn:uuid:052cf5a3-8c0d-437a-9588-06d56c8cd972"
        }
      }
    },
    {
      "fullUrl": "urn:uuid:f2e141fe-7f0c-410e-b903-61816ac8eee3",
      "resource": {
        "resourceType": "Observation",
        "id": "f2e141fe-7f0c-410e-b903-61816ac8eee3",
        "meta": {
          "profile": [
            "http://hl7.eu/fhir/laboratory/StructureDefinition/Observation-resultslab-eu-lab"
          ]
        },
        "performer": [
          {
            "display": "The Central European Lab"
          }
        ],
        "category": [
          {
            "coding": [
              {
                "system": "http://terminology.hl7.org/CodeSystem/observation-category",
                "code": "laboratory"
              }
            ]
          }
        ],
        "code": {
          "coding": [
            {
              "code": "5767-9",
              "system": "http://loinc.org",
              "display": "Appearance of Urine"
            }
          ],
          "text": "Appearance of Urine"
        },
        "text": {
          "status": "generated",
          "div": "<div xmlns=\"http://www.w3.org/1999/xhtml\"><table class=\"hl7__eu__lab__report\"><tr><th>Test</th><th>08-Jun-2021</th><th>Reference&#xA0;Range</th><th>Unit</th></tr><tr><td>Appearance of Urine</td></tr></table></div>"
        },
        "status": "final",
        "subject": {
          "reference": "urn:uuid:30e7bdd5-13ff-4a27-95f7-8960682630da",
          "display": "Meaghan Neary"
        },
        "effectiveDateTime": "2021-06-07T22:11:04Z",
        "specimen": {
          "reference": "urn:uuid:e32346cb-a98b-4e64-861e-1807c02dd650"
        }
      }
    },
    {
      "fullUrl": "urn:uuid:33d2b1c2-b440-450c-8ab9-731d85b861a2",
      "resource": {
        "resourceType": "Observation",
        "id": "33d2b1c2-b440-450c-8ab9-731d85b861a2",
        "meta": {
          "profile": [
            "http://hl7.eu/fhir/laboratory/StructureDefinition/Observation-resultslab-eu-lab"
          ]
        },
        "performer": [
          {
            "display": "The Central European Lab"
          }
        ],
        "category": [
          {
            "coding": [
              {
                "system": "http://terminology.hl7.org/CodeSystem/observation-category",
                "code": "laboratory"
              }
            ]
          }
        ],
        "code": {
          "coding": [
            {
              "code": "34533-0",
              "system": "http://loinc.org",
              "display": "Odor of Urine"
            }
          ],
          "text": "Odor of Urine"
        },
        "text": {
          "status": "generated",
          "div": "<div xmlns=\"http://www.w3.org/1999/xhtml\"><table class=\"hl7__eu__lab__report\"><tr><th>Test</th><th>08-Jun-2021</th><th>Reference&#xA0;Range</th><th>Unit</th></tr><tr><td>Odor of Urine</td></tr></table></div>"
        },
        "status": "final",
        "subject": {
          "reference": "urn:uuid:30e7bdd5-13ff-4a27-95f7-8960682630da",
          "display": "Meaghan Neary"
        },
        "effectiveDateTime": "2021-06-07T22:11:04Z",
        "specimen": {
          "reference": "urn:uuid:e32346cb-a98b-4e64-861e-1807c02dd650"
        }
      }
    },
    {
      "fullUrl": "urn:uuid:569a195d-df97-4937-9117-d3be3f820775",
      "resource": {
        "resourceType": "Observation",
        "id": "569a195d-df97-4937-9117-d3be3f820775",
        "meta": {
          "profile": [
            "http://hl7.eu/fhir/laboratory/StructureDefinition/Observation-resultslab-eu-lab"
          ]
        },
        "performer": [
          {
            "display": "The Central European Lab"
          }
        ],
        "category": [
          {
            "coding": [
              {
                "system": "http://terminology.hl7.org/CodeSystem/observation-category",
                "code": "laboratory"
              }
            ]
          }
        ],
        "code": {
          "coding": [
            {
              "code": "32167-9",
              "system": "http://loinc.org",
              "display": "Clarity of Urine"
            }
          ],
          "text": "Clarity of Urine"
        },
        "text": {
          "status": "generated",
          "div": "<div xmlns=\"http://www.w3.org/1999/xhtml\"><table class=\"hl7__eu__lab__report\"><tr><th>Test</th><th>08-Jun-2021</th><th>Reference&#xA0;Range</th><th>Unit</th></tr><tr><td>Clarity of Urine</td></tr></table></div>"
        },
        "status": "final",
        "subject": {
          "reference": "urn:uuid:30e7bdd5-13ff-4a27-95f7-8960682630da",
          "display": "Meaghan Neary"
        },
        "effectiveDateTime": "2021-06-07T22:11:04Z",
        "specimen": {
          "reference": "urn:uuid:e32346cb-a98b-4e64-861e-1807c02dd650"
        }
      }
    },
    {
      "fullUrl": "urn:uuid:63149b54-35e1-4124-a0cd-c057baa70751",
      "resource": {
        "resourceType": "Observation",
        "id": "63149b54-35e1-4124-a0cd-c057baa70751",
        "meta": {
          "profile": [
            "http://hl7.eu/fhir/laboratory/StructureDefinition/Observation-resultslab-eu-lab"
          ]
        },
        "performer": [
          {
            "display": "The Central European Lab"
          }
        ],
        "category": [
          {
            "coding": [
              {
                "system": "http://terminology.hl7.org/CodeSystem/observation-category",
                "code": "laboratory"
              }
            ]
          }
        ],
        "code": {
          "coding": [
            {
              "code": "5778-6",
              "system": "http://loinc.org",
              "display": "Color of Urine"
            }
          ],
          "text": "Color of Urine"
        },
        "text": {
          "status": "generated",
          "div": "<div xmlns=\"http://www.w3.org/1999/xhtml\"><table class=\"hl7__eu__lab__report\"><tr><th>Test</th><th>08-Jun-2021</th><th>Reference&#xA0;Range</th><th>Unit</th></tr><tr><td>Color of Urine</td></tr></table></div>"
        },
        "status": "final",
        "subject": {
          "reference": "urn:uuid:30e7bdd5-13ff-4a27-95f7-8960682630da",
          "display": "Meaghan Neary"
        },
        "effectiveDateTime": "2021-06-07T22:11:04Z",
        "specimen": {
          "reference": "urn:uuid:e32346cb-a98b-4e64-861e-1807c02dd650"
        }
      }
    },
    {
      "fullUrl": "urn:uuid:b068b23b-e62e-4688-bc76-2c9e4c7a659a",
      "resource": {
        "resourceType": "Observation",
        "id": "b068b23b-e62e-4688-bc76-2c9e4c7a659a",
        "meta": {
          "profile": [
            "http://hl7.eu/fhir/laboratory/StructureDefinition/Observation-resultslab-eu-lab"
          ]
        },
        "performer": [
          {
            "display": "The Central European Lab"
          }
        ],
        "category": [
          {
            "coding": [
              {
                "system": "http://terminology.hl7.org/CodeSystem/observation-category",
                "code": "laboratory"
              }
            ]
          }
        ],
        "code": {
          "coding": [
            {
              "code": "5792-7",
              "system": "http://loinc.org",
              "display": "Glucose [Mass/volume] in Urine by Test strip"
            }
          ],
          "text": "Glucose [Mass/volume] in Urine by Test strip"
        },
        "valueQuantity": {
          "system": "http://unitsofmeasure.org",
          "value": 0.6,
          "unit": "mg/dL",
          "code": "mg/dL"
        },
        "referenceRange": [
          {
            "low": {
              "value": 0.8,
              "code": "mg/dL",
              "system": "http://unitsofmeasure.org"
            }
          },
          {
            "high": {
              "value": 0,
              "code": "mg/dL",
              "system": "http://unitsofmeasure.org"
            }
          }
        ],
        "interpretation": [
          {
            "coding": [
              {
                "code": "L",
                "system": "http://terminology.hl7.org/CodeSystem/v3-ObservationInterpretation",
                "display": "Low"
              }
            ]
          }
        ],
        "text": {
          "status": "generated",
          "div": "<div xmlns=\"http://www.w3.org/1999/xhtml\"><table class=\"hl7__eu__lab__report\"><tr><th>Test</th><th>08-Jun-2021</th><th>Reference&#xA0;Range</th><th>Unit</th></tr><tr><td>Glucose [Mass/volume] in Urine by Test strip</td><td>0.6</td><td>0.8 - 0</td><td>L</td><td>mg/dL</td></tr></table></div>"
        },
        "status": "final",
        "subject": {
          "reference": "urn:uuid:30e7bdd5-13ff-4a27-95f7-8960682630da",
          "display": "Meaghan Neary"
        },
        "effectiveDateTime": "2021-06-07T22:11:04Z",
        "specimen": {
          "reference": "urn:uuid:e32346cb-a98b-4e64-861e-1807c02dd650"
        }
      }
    },
    {
      "fullUrl": "urn:uuid:74b4fc4b-ca06-4678-a2b6-ff9db5710c53",
      "resource": {
        "resourceType": "Observation",
        "id": "74b4fc4b-ca06-4678-a2b6-ff9db5710c53",
        "meta": {
          "profile": [
            "http://hl7.eu/fhir/laboratory/StructureDefinition/Observation-resultslab-eu-lab"
          ]
        },
        "performer": [
          {
            "display": "The Central European Lab"
          }
        ],
        "category": [
          {
            "coding": [
              {
                "system": "http://terminology.hl7.org/CodeSystem/observation-category",
                "code": "laboratory"
              }
            ]
          }
        ],
        "code": {
          "coding": [
            {
              "code": "25428-4",
              "system": "http://loinc.org",
              "display": "Glucose [Presence] in Urine by Test strip"
            }
          ],
          "text": "Glucose [Presence] in Urine by Test strip"
        },
        "text": {
          "status": "generated",
          "div": "<div xmlns=\"http://www.w3.org/1999/xhtml\"><table class=\"hl7__eu__lab__report\"><tr><th>Test</th><th>08-Jun-2021</th><th>Reference&#xA0;Range</th><th>Unit</th></tr><tr><td>Glucose [Presence] in Urine by Test strip</td></tr></table></div>"
        },
        "status": "final",
        "subject": {
          "reference": "urn:uuid:30e7bdd5-13ff-4a27-95f7-8960682630da",
          "display": "Meaghan Neary"
        },
        "effectiveDateTime": "2021-06-07T22:11:04Z",
        "specimen": {
          "reference": "urn:uuid:e32346cb-a98b-4e64-861e-1807c02dd650"
        }
      }
    },
    {
      "fullUrl": "urn:uuid:5f568a86-a41f-4623-a69b-b9e396f114ad",
      "resource": {
        "resourceType": "Observation",
        "id": "5f568a86-a41f-4623-a69b-b9e396f114ad",
        "meta": {
          "profile": [
            "http://hl7.eu/fhir/laboratory/StructureDefinition/Observation-resultslab-eu-lab"
          ]
        },
        "performer": [
          {
            "display": "The Central European Lab"
          }
        ],
        "category": [
          {
            "coding": [
              {
                "system": "http://terminology.hl7.org/CodeSystem/observation-category",
                "code": "laboratory"
              }
            ]
          }
        ],
        "code": {
          "coding": [
            {
              "code": "20505-4",
              "system": "http://loinc.org",
              "display": "Bilirubin.total [Mass/volume] in Urine by Test strip"
            }
          ],
          "text": "Bilirubin.total [Mass/volume] in Urine by Test strip"
        },
        "valueQuantity": {
          "system": "http://unitsofmeasure.org",
          "value": 0.4,
          "unit": "mg/dL",
          "code": "mg/dL"
        },
        "referenceRange": [
          {
            "low": {
              "value": 0,
              "code": "mg/dL",
              "system": "http://unitsofmeasure.org"
            }
          },
          {
            "high": {
              "value": 1,
              "code": "mg/dL",
              "system": "http://unitsofmeasure.org"
            }
          }
        ],
        "text": {
          "status": "generated",
          "div": "<div xmlns=\"http://www.w3.org/1999/xhtml\"><table class=\"hl7__eu__lab__report\"><tr><th>Test</th><th>08-Jun-2021</th><th>Reference&#xA0;Range</th><th>Unit</th></tr><tr><td>Bilirubin.total [Mass/volume] in Urine by Test strip</td><td>0.4</td><td>0 - 1</td><td></td><td>mg/dL</td></tr></table></div>"
        },
        "status": "final",
        "subject": {
          "reference": "urn:uuid:30e7bdd5-13ff-4a27-95f7-8960682630da",
          "display": "Meaghan Neary"
        },
        "effectiveDateTime": "2021-06-07T22:11:04Z",
        "specimen": {
          "reference": "urn:uuid:e32346cb-a98b-4e64-861e-1807c02dd650"
        }
      }
    },
    {
      "fullUrl": "urn:uuid:bde3fa12-a3e0-4554-817e-ddc09a4a9206",
      "resource": {
        "resourceType": "Observation",
        "id": "bde3fa12-a3e0-4554-817e-ddc09a4a9206",
        "meta": {
          "profile": [
            "http://hl7.eu/fhir/laboratory/StructureDefinition/Observation-resultslab-eu-lab"
          ]
        },
        "performer": [
          {
            "display": "The Central European Lab"
          }
        ],
        "category": [
          {
            "coding": [
              {
                "system": "http://terminology.hl7.org/CodeSystem/observation-category",
                "code": "laboratory"
              }
            ]
          }
        ],
        "code": {
          "coding": [
            {
              "code": "5770-3",
              "system": "http://loinc.org",
              "display": "Bilirubin.total [Presence] in Urine by Test strip"
            }
          ],
          "text": "Bilirubin.total [Presence] in Urine by Test strip"
        },
        "text": {
          "status": "generated",
          "div": "<div xmlns=\"http://www.w3.org/1999/xhtml\"><table class=\"hl7__eu__lab__report\"><tr><th>Test</th><th>08-Jun-2021</th><th>Reference&#xA0;Range</th><th>Unit</th></tr><tr><td>Bilirubin.total [Presence] in Urine by Test strip</td></tr></table></div>"
        },
        "status": "final",
        "subject": {
          "reference": "urn:uuid:30e7bdd5-13ff-4a27-95f7-8960682630da",
          "display": "Meaghan Neary"
        },
        "effectiveDateTime": "2021-06-07T22:11:04Z",
        "specimen": {
          "reference": "urn:uuid:e32346cb-a98b-4e64-861e-1807c02dd650"
        }
      }
    },
    {
      "fullUrl": "urn:uuid:75f7a035-98bb-430a-96c7-c15f464dd8eb",
      "resource": {
        "resourceType": "Observation",
        "id": "75f7a035-98bb-430a-96c7-c15f464dd8eb",
        "meta": {
          "profile": [
            "http://hl7.eu/fhir/laboratory/StructureDefinition/Observation-resultslab-eu-lab"
          ]
        },
        "performer": [
          {
            "display": "The Central European Lab"
          }
        ],
        "category": [
          {
            "coding": [
              {
                "system": "http://terminology.hl7.org/CodeSystem/observation-category",
                "code": "laboratory"
              }
            ]
          }
        ],
        "code": {
          "coding": [
            {
              "code": "5797-6",
              "system": "http://loinc.org",
              "display": "Ketones [Mass/volume] in Urine by Test strip"
            }
          ],
          "text": "Ketones [Mass/volume] in Urine by Test strip"
        },
        "valueQuantity": {
          "system": "http://unitsofmeasure.org",
          "value": 1.7,
          "unit": "mg/dL",
          "code": "mg/dL"
        },
        "referenceRange": [
          {
            "low": {
              "value": 0,
              "code": "mg/dL",
              "system": "http://unitsofmeasure.org"
            }
          },
          {
            "high": {
              "value": 4,
              "code": "mg/dL",
              "system": "http://unitsofmeasure.org"
            }
          }
        ],
        "text": {
          "status": "generated",
          "div": "<div xmlns=\"http://www.w3.org/1999/xhtml\"><table class=\"hl7__eu__lab__report\"><tr><th>Test</th><th>08-Jun-2021</th><th>Reference&#xA0;Range</th><th>Unit</th></tr><tr><td>Ketones [Mass/volume] in Urine by Test strip</td><td>1.7</td><td>0 - 4</td><td></td><td>mg/dL</td></tr></table></div>"
        },
        "status": "final",
        "subject": {
          "reference": "urn:uuid:30e7bdd5-13ff-4a27-95f7-8960682630da",
          "display": "Meaghan Neary"
        },
        "effectiveDateTime": "2021-06-07T22:11:04Z",
        "specimen": {
          "reference": "urn:uuid:e32346cb-a98b-4e64-861e-1807c02dd650"
        }
      }
    },
    {
      "fullUrl": "urn:uuid:cd07ca14-3b9a-40a7-a731-e2b16ae66efc",
      "resource": {
        "resourceType": "Observation",
        "id": "cd07ca14-3b9a-40a7-a731-e2b16ae66efc",
        "meta": {
          "profile": [
            "http://hl7.eu/fhir/laboratory/StructureDefinition/Observation-resultslab-eu-lab"
          ]
        },
        "performer": [
          {
            "display": "The Central European Lab"
          }
        ],
        "category": [
          {
            "coding": [
              {
                "system": "http://terminology.hl7.org/CodeSystem/observation-category",
                "code": "laboratory"
              }
            ]
          }
        ],
        "code": {
          "coding": [
            {
              "code": "2514-8",
              "system": "http://loinc.org",
              "display": "Ketones [Presence] in Urine by Test strip"
            }
          ],
          "text": "Ketones [Presence] in Urine by Test strip"
        },
        "text": {
          "status": "generated",
          "div": "<div xmlns=\"http://www.w3.org/1999/xhtml\"><table class=\"hl7__eu__lab__report\"><tr><th>Test</th><th>08-Jun-2021</th><th>Reference&#xA0;Range</th><th>Unit</th></tr><tr><td>Ketones [Presence] in Urine by Test strip</td></tr></table></div>"
        },
        "status": "final",
        "subject": {
          "reference": "urn:uuid:30e7bdd5-13ff-4a27-95f7-8960682630da",
          "display": "Meaghan Neary"
        },
        "effectiveDateTime": "2021-06-07T22:11:04Z",
        "specimen": {
          "reference": "urn:uuid:e32346cb-a98b-4e64-861e-1807c02dd650"
        }
      }
    },
    {
      "fullUrl": "urn:uuid:aa21ee59-43c0-45f6-8a59-1589bd944026",
      "resource": {
        "resourceType": "Observation",
        "id": "aa21ee59-43c0-45f6-8a59-1589bd944026",
        "meta": {
          "profile": [
            "http://hl7.eu/fhir/laboratory/StructureDefinition/Observation-resultslab-eu-lab"
          ]
        },
        "performer": [
          {
            "display": "The Central European Lab"
          }
        ],
        "category": [
          {
            "coding": [
              {
                "system": "http://terminology.hl7.org/CodeSystem/observation-category",
                "code": "laboratory"
              }
            ]
          }
        ],
        "code": {
          "coding": [
            {
              "code": "5811-5",
              "system": "http://loinc.org",
              "display": "Specific gravity of Urine by Test strip"
            }
          ],
          "text": "Specific gravity of Urine by Test strip"
        },
        "valueQuantity": {
          "system": "http://unitsofmeasure.org",
          "value": 1,
          "unit": "{nominal}",
          "code": "{nominal}"
        },
        "referenceRange": [
          {
            "low": {
              "value": 1.005,
              "code": "g/mL",
              "system": "http://unitsofmeasure.org"
            }
          },
          {
            "high": {
              "value": 1.03,
              "code": "g/mL",
              "system": "http://unitsofmeasure.org"
            }
          }
        ],
        "interpretation": [
          {
            "coding": [
              {
                "code": "L",
                "system": "http://terminology.hl7.org/CodeSystem/v3-ObservationInterpretation",
                "display": "Low"
              }
            ]
          }
        ],
        "text": {
          "status": "generated",
          "div": "<div xmlns=\"http://www.w3.org/1999/xhtml\"><table class=\"hl7__eu__lab__report\"><tr><th>Test</th><th>08-Jun-2021</th><th>Reference&#xA0;Range</th><th>Unit</th></tr><tr><td>Specific gravity of Urine by Test strip</td><td>1.0</td><td>1.005 - 1.03</td><td>L</td><td>{nominal}</td></tr></table></div>"
        },
        "status": "final",
        "subject": {
          "reference": "urn:uuid:30e7bdd5-13ff-4a27-95f7-8960682630da",
          "display": "Meaghan Neary"
        },
        "effectiveDateTime": "2021-06-07T22:11:04Z",
        "specimen": {
          "reference": "urn:uuid:e32346cb-a98b-4e64-861e-1807c02dd650"
        }
      }
    },
    {
      "fullUrl": "urn:uuid:d8ef78b8-ce4a-4611-a7bb-d7ce5413981f",
      "resource": {
        "resourceType": "Observation",
        "id": "d8ef78b8-ce4a-4611-a7bb-d7ce5413981f",
        "meta": {
          "profile": [
            "http://hl7.eu/fhir/laboratory/StructureDefinition/Observation-resultslab-eu-lab"
          ]
        },
        "performer": [
          {
            "display": "The Central European Lab"
          }
        ],
        "category": [
          {
            "coding": [
              {
                "system": "http://terminology.hl7.org/CodeSystem/observation-category",
                "code": "laboratory"
              }
            ]
          }
        ],
        "code": {
          "coding": [
            {
              "code": "5803-2",
              "system": "http://loinc.org",
              "display": "pH of Urine by Test strip"
            }
          ],
          "text": "pH of Urine by Test strip"
        },
        "valueQuantity": {
          "system": "http://unitsofmeasure.org",
          "value": 6,
          "unit": "pH",
          "code": "pH"
        },
        "referenceRange": [
          {
            "low": {
              "value": 4.6,
              "code": "pH",
              "system": "http://unitsofmeasure.org"
            }
          },
          {
            "high": {
              "value": 7,
              "code": "pH",
              "system": "http://unitsofmeasure.org"
            }
          }
        ],
        "text": {
          "status": "generated",
          "div": "<div xmlns=\"http://www.w3.org/1999/xhtml\"><table class=\"hl7__eu__lab__report\"><tr><th>Test</th><th>08-Jun-2021</th><th>Reference&#xA0;Range</th><th>Unit</th></tr><tr><td>pH of Urine by Test strip</td><td>6.0</td><td>4.6 - 7</td><td></td><td>pH</td></tr></table></div>"
        },
        "status": "final",
        "subject": {
          "reference": "urn:uuid:30e7bdd5-13ff-4a27-95f7-8960682630da",
          "display": "Meaghan Neary"
        },
        "effectiveDateTime": "2021-06-07T22:11:04Z",
        "specimen": {
          "reference": "urn:uuid:e32346cb-a98b-4e64-861e-1807c02dd650"
        }
      }
    },
    {
      "fullUrl": "urn:uuid:95e66975-db0d-4956-a57e-bf334a5c8038",
      "resource": {
        "resourceType": "Observation",
        "id": "95e66975-db0d-4956-a57e-bf334a5c8038",
        "meta": {
          "profile": [
            "http://hl7.eu/fhir/laboratory/StructureDefinition/Observation-resultslab-eu-lab"
          ]
        },
        "performer": [
          {
            "display": "The Central European Lab"
          }
        ],
        "category": [
          {
            "coding": [
              {
                "system": "http://terminology.hl7.org/CodeSystem/observation-category",
                "code": "laboratory"
              }
            ]
          }
        ],
        "code": {
          "coding": [
            {
              "code": "5804-0",
              "system": "http://loinc.org",
              "display": "Protein [Mass/volume] in Urine by Test strip"
            }
          ],
          "text": "Protein [Mass/volume] in Urine by Test strip"
        },
        "valueQuantity": {
          "system": "http://unitsofmeasure.org",
          "value": 260.6,
          "unit": "mg/dL",
          "code": "mg/dL"
        },
        "referenceRange": [
          {
            "low": {
              "value": 0,
              "code": "mg/dL",
              "system": "http://unitsofmeasure.org"
            }
          },
          {
            "high": {
              "value": 14,
              "code": "mg/dL",
              "system": "http://unitsofmeasure.org"
            }
          }
        ],
        "interpretation": [
          {
            "coding": [
              {
                "code": "H",
                "system": "http://terminology.hl7.org/CodeSystem/v3-ObservationInterpretation",
                "display": "High"
              }
            ]
          }
        ],
        "text": {
          "status": "generated",
          "div": "<div xmlns=\"http://www.w3.org/1999/xhtml\"><table class=\"hl7__eu__lab__report\"><tr><th>Test</th><th>08-Jun-2021</th><th>Reference&#xA0;Range</th><th>Unit</th></tr><tr><td>Protein [Mass/volume] in Urine by Test strip</td><td>260.6</td><td>0 - 14</td><td>H</td><td>mg/dL</td></tr></table></div>"
        },
        "status": "final",
        "subject": {
          "reference": "urn:uuid:30e7bdd5-13ff-4a27-95f7-8960682630da",
          "display": "Meaghan Neary"
        },
        "effectiveDateTime": "2021-06-07T22:11:04Z",
        "specimen": {
          "reference": "urn:uuid:e32346cb-a98b-4e64-861e-1807c02dd650"
        }
      }
    },
    {
      "fullUrl": "urn:uuid:cdca43f9-961a-42e0-b6e4-93a165a28422",
      "resource": {
        "resourceType": "Observation",
        "id": "cdca43f9-961a-42e0-b6e4-93a165a28422",
        "meta": {
          "profile": [
            "http://hl7.eu/fhir/laboratory/StructureDefinition/Observation-resultslab-eu-lab"
          ]
        },
        "performer": [
          {
            "display": "The Central European Lab"
          }
        ],
        "category": [
          {
            "coding": [
              {
                "system": "http://terminology.hl7.org/CodeSystem/observation-category",
                "code": "laboratory"
              }
            ]
          }
        ],
        "code": {
          "coding": [
            {
              "code": "20454-5",
              "system": "http://loinc.org",
              "display": "Protein [Presence] in Urine by Test strip"
            }
          ],
          "text": "Protein [Presence] in Urine by Test strip"
        },
        "text": {
          "status": "generated",
          "div": "<div xmlns=\"http://www.w3.org/1999/xhtml\"><table class=\"hl7__eu__lab__report\"><tr><th>Test</th><th>08-Jun-2021</th><th>Reference&#xA0;Range</th><th>Unit</th></tr><tr><td>Protein [Presence] in Urine by Test strip</td></tr></table></div>"
        },
        "status": "final",
        "subject": {
          "reference": "urn:uuid:30e7bdd5-13ff-4a27-95f7-8960682630da",
          "display": "Meaghan Neary"
        },
        "effectiveDateTime": "2021-06-07T22:11:04Z",
        "specimen": {
          "reference": "urn:uuid:e32346cb-a98b-4e64-861e-1807c02dd650"
        }
      }
    },
    {
      "fullUrl": "urn:uuid:8885e884-93b6-46af-9c31-1b376759e71e",
      "resource": {
        "resourceType": "Observation",
        "id": "8885e884-93b6-46af-9c31-1b376759e71e",
        "meta": {
          "profile": [
            "http://hl7.eu/fhir/laboratory/StructureDefinition/Observation-resultslab-eu-lab"
          ]
        },
        "performer": [
          {
            "display": "The Central European Lab"
          }
        ],
        "category": [
          {
            "coding": [
              {
                "system": "http://terminology.hl7.org/CodeSystem/observation-category",
                "code": "laboratory"
              }
            ]
          }
        ],
        "code": {
          "coding": [
            {
              "code": "5802-4",
              "system": "http://loinc.org",
              "display": "Nitrite [Presence] in Urine by Test strip"
            }
          ],
          "text": "Nitrite [Presence] in Urine by Test strip"
        },
        "text": {
          "status": "generated",
          "div": "<div xmlns=\"http://www.w3.org/1999/xhtml\"><table class=\"hl7__eu__lab__report\"><tr><th>Test</th><th>08-Jun-2021</th><th>Reference&#xA0;Range</th><th>Unit</th></tr><tr><td>Nitrite [Presence] in Urine by Test strip</td></tr></table></div>"
        },
        "status": "final",
        "subject": {
          "reference": "urn:uuid:30e7bdd5-13ff-4a27-95f7-8960682630da",
          "display": "Meaghan Neary"
        },
        "effectiveDateTime": "2021-06-07T22:11:04Z",
        "specimen": {
          "reference": "urn:uuid:e32346cb-a98b-4e64-861e-1807c02dd650"
        }
      }
    },
    {
      "fullUrl": "urn:uuid:abf0efaa-ee61-45d1-be73-752e1dd065b8",
      "resource": {
        "resourceType": "Observation",
        "id": "abf0efaa-ee61-45d1-be73-752e1dd065b8",
        "meta": {
          "profile": [
            "http://hl7.eu/fhir/laboratory/StructureDefinition/Observation-resultslab-eu-lab"
          ]
        },
        "performer": [
          {
            "display": "The Central European Lab"
          }
        ],
        "category": [
          {
            "coding": [
              {
                "system": "http://terminology.hl7.org/CodeSystem/observation-category",
                "code": "laboratory"
              }
            ]
          }
        ],
        "code": {
          "coding": [
            {
              "code": "5794-3",
              "system": "http://loinc.org",
              "display": "Hemoglobin [Presence] in Urine by Test strip"
            }
          ],
          "text": "Hemoglobin [Presence] in Urine by Test strip"
        },
        "text": {
          "status": "generated",
          "div": "<div xmlns=\"http://www.w3.org/1999/xhtml\"><table class=\"hl7__eu__lab__report\"><tr><th>Test</th><th>08-Jun-2021</th><th>Reference&#xA0;Range</th><th>Unit</th></tr><tr><td>Hemoglobin [Presence] in Urine by Test strip</td></tr></table></div>"
        },
        "status": "final",
        "subject": {
          "reference": "urn:uuid:30e7bdd5-13ff-4a27-95f7-8960682630da",
          "display": "Meaghan Neary"
        },
        "effectiveDateTime": "2021-06-07T22:11:04Z",
        "specimen": {
          "reference": "urn:uuid:e32346cb-a98b-4e64-861e-1807c02dd650"
        }
      }
    },
    {
      "fullUrl": "urn:uuid:4bcb4f04-2e61-4ebc-a6c8-788eee8ba998",
      "resource": {
        "resourceType": "Observation",
        "id": "4bcb4f04-2e61-4ebc-a6c8-788eee8ba998",
        "meta": {
          "profile": [
            "http://hl7.eu/fhir/laboratory/StructureDefinition/Observation-resultslab-eu-lab"
          ]
        },
        "performer": [
          {
            "display": "The Central European Lab"
          }
        ],
        "category": [
          {
            "coding": [
              {
                "system": "http://terminology.hl7.org/CodeSystem/observation-category",
                "code": "laboratory"
              }
            ]
          }
        ],
        "code": {
          "coding": [
            {
              "code": "5799-2",
              "system": "http://loinc.org",
              "display": "Leukocyte esterase [Presence] in Urine by Test strip"
            }
          ],
          "text": "Leukocyte esterase [Presence] in Urine by Test strip"
        },
        "text": {
          "status": "generated",
          "div": "<div xmlns=\"http://www.w3.org/1999/xhtml\"><table class=\"hl7__eu__lab__report\"><tr><th>Test</th><th>08-Jun-2021</th><th>Reference&#xA0;Range</th><th>Unit</th></tr><tr><td>Leukocyte esterase [Presence] in Urine by Test strip</td></tr></table></div>"
        },
        "status": "final",
        "subject": {
          "reference": "urn:uuid:30e7bdd5-13ff-4a27-95f7-8960682630da",
          "display": "Meaghan Neary"
        },
        "effectiveDateTime": "2021-06-07T22:11:04Z",
        "specimen": {
          "reference": "urn:uuid:e32346cb-a98b-4e64-861e-1807c02dd650"
        }
      }
    },
    {
      "fullUrl": "urn:uuid:446f9a77-06a9-474c-b4dc-3f42d50b9419",
      "resource": {
        "resourceType": "Observation",
        "id": "446f9a77-06a9-474c-b4dc-3f42d50b9419",
        "meta": {
          "profile": [
            "http://hl7.eu/fhir/laboratory/StructureDefinition/Observation-resultslab-eu-lab"
          ]
        },
        "performer": [
          {
            "display": "The Central European Lab"
          }
        ],
        "category": [
          {
            "coding": [
              {
                "system": "http://terminology.hl7.org/CodeSystem/observation-category",
                "code": "laboratory"
              }
            ]
          }
        ],
        "code": {
          "coding": [
            {
              "code": "4548-4",
              "system": "http://loinc.org",
              "display": "Hemoglobin A1c/Hemoglobin.total in Blood"
            }
          ],
          "text": "Hemoglobin A1c/Hemoglobin.total in Blood"
        },
        "valueQuantity": {
          "system": "http://unitsofmeasure.org",
          "value": 3.1,
          "unit": "%",
          "code": "%"
        },
        "referenceRange": [
          {
            "low": {
              "value": 4,
              "code": "%",
              "system": "http://unitsofmeasure.org"
            }
          },
          {
            "high": {
              "value": 6.4,
              "code": "%",
              "system": "http://unitsofmeasure.org"
            }
          }
        ],
        "interpretation": [
          {
            "coding": [
              {
                "code": "L",
                "system": "http://terminology.hl7.org/CodeSystem/v3-ObservationInterpretation",
                "display": "Low"
              }
            ]
          }
        ],
        "text": {
          "status": "generated",
          "div": "<div xmlns=\"http://www.w3.org/1999/xhtml\"><table class=\"hl7__eu__lab__report\"><tr><th>Test</th><th>08-Jun-2021</th><th>Reference&#xA0;Range</th><th>Unit</th></tr><tr><td>Hemoglobin A1c/Hemoglobin.total in Blood</td><td>3.1</td><td>4 - 6.4</td><td>L</td><td>%</td></tr></table></div>"
        },
        "status": "final",
        "subject": {
          "reference": "urn:uuid:30e7bdd5-13ff-4a27-95f7-8960682630da",
          "display": "Meaghan Neary"
        },
        "effectiveDateTime": "2021-06-07T22:11:04Z",
        "specimen": {
          "reference": "urn:uuid:0d85154e-1ee6-4629-bc4d-a6eac184a8fa"
        }
      }
    },
    {
      "fullUrl": "urn:uuid:ea0543ef-2b52-4770-ad31-f95502acb18d",
      "resource": {
        "resourceType": "Observation",
        "id": "ea0543ef-2b52-4770-ad31-f95502acb18d",
        "meta": {
          "profile": [
            "http://hl7.eu/fhir/laboratory/StructureDefinition/Observation-resultslab-eu-lab"
          ]
        },
        "performer": [
          {
            "display": "The Central European Lab"
          }
        ],
        "category": [
          {
            "coding": [
              {
                "system": "http://terminology.hl7.org/CodeSystem/observation-category",
                "code": "laboratory"
              }
            ]
          }
        ],
        "code": {
          "coding": [
            {
              "code": "2339-0",
              "system": "http://loinc.org",
              "display": "Glucose [Mass/volume] in Blood"
            }
          ],
          "text": "Glucose [Mass/volume] in Blood"
        },
        "valueQuantity": {
          "system": "http://unitsofmeasure.org",
          "value": 78.6,
          "unit": "mg/dL",
          "code": "mg/dL"
        },
        "referenceRange": [
          {
            "low": {
              "value": 70,
              "code": "mg/dL",
              "system": "http://unitsofmeasure.org"
            }
          },
          {
            "high": {
              "value": 100,
              "code": "mg/dL",
              "system": "http://unitsofmeasure.org"
            }
          }
        ],
        "text": {
          "status": "generated",
          "div": "<div xmlns=\"http://www.w3.org/1999/xhtml\"><table class=\"hl7__eu__lab__report\"><tr><th>Test</th><th>08-Jun-2021</th><th>Reference&#xA0;Range</th><th>Unit</th></tr><tr><td>Glucose [Mass/volume] in Blood</td><td>78.6</td><td>70 - 100</td><td></td><td>mg/dL</td></tr></table></div>"
        },
        "status": "final",
        "subject": {
          "reference": "urn:uuid:30e7bdd5-13ff-4a27-95f7-8960682630da",
          "display": "Meaghan Neary"
        },
        "effectiveDateTime": "2021-06-07T22:11:04Z",
        "specimen": {
          "reference": "urn:uuid:0d85154e-1ee6-4629-bc4d-a6eac184a8fa"
        }
      }
    },
    {
      "fullUrl": "urn:uuid:1d662749-6fe1-49c0-95ad-6d193f3c5840",
      "resource": {
        "resourceType": "Observation",
        "id": "1d662749-6fe1-49c0-95ad-6d193f3c5840",
        "meta": {
          "profile": [
            "http://hl7.eu/fhir/laboratory/StructureDefinition/Observation-resultslab-eu-lab"
          ]
        },
        "performer": [
          {
            "display": "The Central European Lab"
          }
        ],
        "category": [
          {
            "coding": [
              {
                "system": "http://terminology.hl7.org/CodeSystem/observation-category",
                "code": "laboratory"
              }
            ]
          }
        ],
        "code": {
          "coding": [
            {
              "code": "6299-2",
              "system": "http://loinc.org",
              "display": "Urea nitrogen [Mass/volume] in Blood"
            }
          ],
          "text": "Urea nitrogen [Mass/volume] in Blood"
        },
        "valueQuantity": {
          "system": "http://unitsofmeasure.org",
          "value": 12.8,
          "unit": "mg/dL",
          "code": "mg/dL"
        },
        "referenceRange": [
          {
            "low": {
              "value": 7,
              "code": "mg/dL",
              "system": "http://unitsofmeasure.org"
            }
          },
          {
            "high": {
              "value": 43,
              "code": "mg/dL",
              "system": "http://unitsofmeasure.org"
            }
          }
        ],
        "text": {
          "status": "generated",
          "div": "<div xmlns=\"http://www.w3.org/1999/xhtml\"><table class=\"hl7__eu__lab__report\"><tr><th>Test</th><th>08-Jun-2021</th><th>Reference&#xA0;Range</th><th>Unit</th></tr><tr><td>Urea nitrogen [Mass/volume] in Blood</td><td>12.8</td><td>7 - 43</td><td></td><td>mg/dL</td></tr></table></div>"
        },
        "status": "final",
        "subject": {
          "reference": "urn:uuid:30e7bdd5-13ff-4a27-95f7-8960682630da",
          "display": "Meaghan Neary"
        },
        "effectiveDateTime": "2021-06-07T22:11:04Z",
        "specimen": {
          "reference": "urn:uuid:0d85154e-1ee6-4629-bc4d-a6eac184a8fa"
        }
      }
    },
    {
      "fullUrl": "urn:uuid:e4dfd2ea-5e08-4181-8a3a-569a516831b8",
      "resource": {
        "resourceType": "Observation",
        "id": "e4dfd2ea-5e08-4181-8a3a-569a516831b8",
        "meta": {
          "profile": [
            "http://hl7.eu/fhir/laboratory/StructureDefinition/Observation-resultslab-eu-lab"
          ]
        },
        "performer": [
          {
            "display": "The Central European Lab"
          }
        ],
        "category": [
          {
            "coding": [
              {
                "system": "http://terminology.hl7.org/CodeSystem/observation-category",
                "code": "laboratory"
              }
            ]
          }
        ],
        "code": {
          "coding": [
            {
              "code": "38483-4",
              "system": "http://loinc.org",
              "display": "Creatinine [Mass/volume] in Blood"
            }
          ],
          "text": "Creatinine [Mass/volume] in Blood"
        },
        "valueQuantity": {
          "system": "http://unitsofmeasure.org",
          "value": 3.8,
          "unit": "mg/dL",
          "code": "mg/dL"
        },
        "referenceRange": [
          {
            "low": {
              "value": 0.6,
              "code": "mg/dL",
              "system": "http://unitsofmeasure.org"
            }
          },
          {
            "high": {
              "value": 1.1,
              "code": "mg/dL",
              "system": "http://unitsofmeasure.org"
            }
          }
        ],
        "interpretation": [
          {
            "coding": [
              {
                "code": "H",
                "system": "http://terminology.hl7.org/CodeSystem/v3-ObservationInterpretation",
                "display": "High"
              }
            ]
          }
        ],
        "text": {
          "status": "generated",
          "div": "<div xmlns=\"http://www.w3.org/1999/xhtml\"><table class=\"hl7__eu__lab__report\"><tr><th>Test</th><th>08-Jun-2021</th><th>Reference&#xA0;Range</th><th>Unit</th></tr><tr><td>Creatinine [Mass/volume] in Blood</td><td>3.8</td><td>0.6 - 1.1</td><td>H</td><td>mg/dL</td></tr></table></div>"
        },
        "status": "final",
        "subject": {
          "reference": "urn:uuid:30e7bdd5-13ff-4a27-95f7-8960682630da",
          "display": "Meaghan Neary"
        },
        "effectiveDateTime": "2021-06-07T22:11:04Z",
        "specimen": {
          "reference": "urn:uuid:0d85154e-1ee6-4629-bc4d-a6eac184a8fa"
        }
      }
    },
    {
      "fullUrl": "urn:uuid:abe6df77-7f40-4f6b-bbc9-a2a43e51d40e",
      "resource": {
        "resourceType": "Observation",
        "id": "abe6df77-7f40-4f6b-bbc9-a2a43e51d40e",
        "meta": {
          "profile": [
            "http://hl7.eu/fhir/laboratory/StructureDefinition/Observation-resultslab-eu-lab"
          ]
        },
        "performer": [
          {
            "display": "The Central European Lab"
          }
        ],
        "category": [
          {
            "coding": [
              {
                "system": "http://terminology.hl7.org/CodeSystem/observation-category",
                "code": "laboratory"
              }
            ]
          }
        ],
        "code": {
          "coding": [
            {
              "code": "49765-1",
              "system": "http://loinc.org",
              "display": "Calcium [Mass/volume] in Blood"
            }
          ],
          "text": "Calcium [Mass/volume] in Blood"
        },
        "valueQuantity": {
          "system": "http://unitsofmeasure.org",
          "value": 8.9,
          "unit": "mg/dL",
          "code": "mg/dL"
        },
        "referenceRange": [
          {
            "low": {
              "value": 8.5,
              "code": "mg/dL",
              "system": "http://unitsofmeasure.org"
            }
          },
          {
            "high": {
              "value": 10.5,
              "code": "mg/dL",
              "system": "http://unitsofmeasure.org"
            }
          }
        ],
        "text": {
          "status": "generated",
          "div": "<div xmlns=\"http://www.w3.org/1999/xhtml\"><table class=\"hl7__eu__lab__report\"><tr><th>Test</th><th>08-Jun-2021</th><th>Reference&#xA0;Range</th><th>Unit</th></tr><tr><td>Calcium [Mass/volume] in Blood</td><td>8.9</td><td>8.5 - 10.5</td><td></td><td>mg/dL</td></tr></table></div>"
        },
        "status": "final",
        "subject": {
          "reference": "urn:uuid:30e7bdd5-13ff-4a27-95f7-8960682630da",
          "display": "Meaghan Neary"
        },
        "effectiveDateTime": "2021-06-07T22:11:04Z",
        "specimen": {
          "reference": "urn:uuid:0d85154e-1ee6-4629-bc4d-a6eac184a8fa"
        }
      }
    },
    {
      "fullUrl": "urn:uuid:4d49b843-6525-43c0-a315-3aa97c843bbc",
      "resource": {
        "resourceType": "Observation",
        "id": "4d49b843-6525-43c0-a315-3aa97c843bbc",
        "meta": {
          "profile": [
            "http://hl7.eu/fhir/laboratory/StructureDefinition/Observation-resultslab-eu-lab"
          ]
        },
        "performer": [
          {
            "display": "The Central European Lab"
          }
        ],
        "category": [
          {
            "coding": [
              {
                "system": "http://terminology.hl7.org/CodeSystem/observation-category",
                "code": "laboratory"
              }
            ]
          }
        ],
        "code": {
          "coding": [
            {
              "code": "2947-0",
              "system": "http://loinc.org",
              "display": "Sodium [Moles/volume] in Blood"
            }
          ],
          "text": "Sodium [Moles/volume] in Blood"
        },
        "valueQuantity": {
          "system": "http://unitsofmeasure.org",
          "value": 137.7,
          "unit": "mmol/L",
          "code": "mmol/L"
        },
        "referenceRange": [
          {
            "low": {
              "value": 135,
              "code": "mmol/L",
              "system": "http://unitsofmeasure.org"
            }
          },
          {
            "high": {
              "value": 145,
              "code": "mmol/L",
              "system": "http://unitsofmeasure.org"
            }
          }
        ],
        "text": {
          "status": "generated",
          "div": "<div xmlns=\"http://www.w3.org/1999/xhtml\"><table class=\"hl7__eu__lab__report\"><tr><th>Test</th><th>08-Jun-2021</th><th>Reference&#xA0;Range</th><th>Unit</th></tr><tr><td>Sodium [Moles/volume] in Blood</td><td>137.7</td><td>135 - 145</td><td></td><td>mmol/L</td></tr></table></div>"
        },
        "status": "final",
        "subject": {
          "reference": "urn:uuid:30e7bdd5-13ff-4a27-95f7-8960682630da",
          "display": "Meaghan Neary"
        },
        "effectiveDateTime": "2021-06-07T22:11:04Z",
        "specimen": {
          "reference": "urn:uuid:0d85154e-1ee6-4629-bc4d-a6eac184a8fa"
        }
      }
    },
    {
      "fullUrl": "urn:uuid:56c8ebe8-4f30-49c2-967a-3bc5d5c0ddc1",
      "resource": {
        "resourceType": "Observation",
        "id": "56c8ebe8-4f30-49c2-967a-3bc5d5c0ddc1",
        "meta": {
          "profile": [
            "http://hl7.eu/fhir/laboratory/StructureDefinition/Observation-resultslab-eu-lab"
          ]
        },
        "performer": [
          {
            "display": "The Central European Lab"
          }
        ],
        "category": [
          {
            "coding": [
              {
                "system": "http://terminology.hl7.org/CodeSystem/observation-category",
                "code": "laboratory"
              }
            ]
          }
        ],
        "code": {
          "coding": [
            {
              "code": "6298-4",
              "system": "http://loinc.org",
              "display": "Potassium [Moles/volume] in Blood"
            }
          ],
          "text": "Potassium [Moles/volume] in Blood"
        },
        "valueQuantity": {
          "system": "http://unitsofmeasure.org",
          "value": 4.5,
          "unit": "mmol/L",
          "code": "mmol/L"
        },
        "referenceRange": [
          {
            "low": {
              "value": 3.5,
              "code": "mmol/L",
              "system": "http://unitsofmeasure.org"
            }
          },
          {
            "high": {
              "value": 5.1,
              "code": "mmol/L",
              "system": "http://unitsofmeasure.org"
            }
          }
        ],
        "text": {
          "status": "generated",
          "div": "<div xmlns=\"http://www.w3.org/1999/xhtml\"><table class=\"hl7__eu__lab__report\"><tr><th>Test</th><th>08-Jun-2021</th><th>Reference&#xA0;Range</th><th>Unit</th></tr><tr><td>Potassium [Moles/volume] in Blood</td><td>4.5</td><td>3.5 - 5.1</td><td></td><td>mmol/L</td></tr></table></div>"
        },
        "status": "final",
        "subject": {
          "reference": "urn:uuid:30e7bdd5-13ff-4a27-95f7-8960682630da",
          "display": "Meaghan Neary"
        },
        "effectiveDateTime": "2021-06-07T22:11:04Z",
        "specimen": {
          "reference": "urn:uuid:0d85154e-1ee6-4629-bc4d-a6eac184a8fa"
        }
      }
    },
    {
      "fullUrl": "urn:uuid:955acd42-dc23-47d2-9990-0dbfe98cea85",
      "resource": {
        "resourceType": "Observation",
        "id": "955acd42-dc23-47d2-9990-0dbfe98cea85",
        "meta": {
          "profile": [
            "http://hl7.eu/fhir/laboratory/StructureDefinition/Observation-resultslab-eu-lab"
          ]
        },
        "performer": [
          {
            "display": "The Central European Lab"
          }
        ],
        "category": [
          {
            "coding": [
              {
                "system": "http://terminology.hl7.org/CodeSystem/observation-category",
                "code": "laboratory"
              }
            ]
          }
        ],
        "code": {
          "coding": [
            {
              "code": "2069-3",
              "system": "http://loinc.org",
              "display": "Chloride [Moles/volume] in Blood"
            }
          ],
          "text": "Chloride [Moles/volume] in Blood"
        },
        "valueQuantity": {
          "system": "http://unitsofmeasure.org",
          "value": 110.4,
          "unit": "mmol/L",
          "code": "mmol/L"
        },
        "referenceRange": [
          {
            "low": {
              "value": 98,
              "code": "mmol/L",
              "system": "http://unitsofmeasure.org"
            }
          },
          {
            "high": {
              "value": 108,
              "code": "mmol/L",
              "system": "http://unitsofmeasure.org"
            }
          }
        ],
        "interpretation": [
          {
            "coding": [
              {
                "code": "H",
                "system": "http://terminology.hl7.org/CodeSystem/v3-ObservationInterpretation",
                "display": "High"
              }
            ]
          }
        ],
        "text": {
          "status": "generated",
          "div": "<div xmlns=\"http://www.w3.org/1999/xhtml\"><table class=\"hl7__eu__lab__report\"><tr><th>Test</th><th>08-Jun-2021</th><th>Reference&#xA0;Range</th><th>Unit</th></tr><tr><td>Chloride [Moles/volume] in Blood</td><td>110.4</td><td>98 - 108</td><td>H</td><td>mmol/L</td></tr></table></div>"
        },
        "status": "final",
        "subject": {
          "reference": "urn:uuid:30e7bdd5-13ff-4a27-95f7-8960682630da",
          "display": "Meaghan Neary"
        },
        "effectiveDateTime": "2021-06-07T22:11:04Z",
        "specimen": {
          "reference": "urn:uuid:0d85154e-1ee6-4629-bc4d-a6eac184a8fa"
        }
      }
    },
    {
      "fullUrl": "urn:uuid:c9ddaa6d-1815-4a52-a135-b6a64b5cc833",
      "resource": {
        "resourceType": "Observation",
        "id": "c9ddaa6d-1815-4a52-a135-b6a64b5cc833",
        "meta": {
          "profile": [
            "http://hl7.eu/fhir/laboratory/StructureDefinition/Observation-resultslab-eu-lab"
          ]
        },
        "performer": [
          {
            "display": "The Central European Lab"
          }
        ],
        "category": [
          {
            "coding": [
              {
                "system": "http://terminology.hl7.org/CodeSystem/observation-category",
                "code": "laboratory"
              }
            ]
          }
        ],
        "code": {
          "coding": [
            {
              "code": "20565-8",
              "system": "http://loinc.org",
              "display": "Carbon dioxide, total [Moles/volume] in Blood"
            }
          ],
          "text": "Carbon dioxide, total [Moles/volume] in Blood"
        },
        "valueQuantity": {
          "system": "http://unitsofmeasure.org",
          "value": 21.6,
          "unit": "mmol/L",
          "code": "mmol/L"
        },
        "referenceRange": [
          {
            "low": {
              "value": 22,
              "code": "mmol/L",
              "system": "http://unitsofmeasure.org"
            }
          },
          {
            "high": {
              "value": 29,
              "code": "mmol/L",
              "system": "http://unitsofmeasure.org"
            }
          }
        ],
        "interpretation": [
          {
            "coding": [
              {
                "code": "L",
                "system": "http://terminology.hl7.org/CodeSystem/v3-ObservationInterpretation",
                "display": "Low"
              }
            ]
          }
        ],
        "text": {
          "status": "generated",
          "div": "<div xmlns=\"http://www.w3.org/1999/xhtml\"><table class=\"hl7__eu__lab__report\"><tr><th>Test</th><th>08-Jun-2021</th><th>Reference&#xA0;Range</th><th>Unit</th></tr><tr><td>Carbon dioxide, total [Moles/volume] in Blood</td><td>21.6</td><td>22 - 29</td><td>L</td><td>mmol/L</td></tr></table></div>"
        },
        "status": "final",
        "subject": {
          "reference": "urn:uuid:30e7bdd5-13ff-4a27-95f7-8960682630da",
          "display": "Meaghan Neary"
        },
        "effectiveDateTime": "2021-06-07T22:11:04Z",
        "specimen": {
          "reference": "urn:uuid:0d85154e-1ee6-4629-bc4d-a6eac184a8fa"
        }
      }
    },
    {
      "fullUrl": "urn:uuid:ccb4631c-0759-4a12-8b21-34ff860f7e75",
      "resource": {
        "resourceType": "Device",
        "id": "ccb4631c-0759-4a12-8b21-34ff860f7e75",
        "deviceName": [
          {
            "name": "SYNDERAI Synthetic Generator",
            "type": "manufacturer-name"
          }
        ],
        "version": [
          {
            "value": "5.0"
          }
        ],
        "text": {
          "status": "generated",
          "div": "<div xmlns=\"http://www.w3.org/1999/xhtml\">SYNDERAI Synthetic Generator v5.0</div>"
        },
        "status": "active\"",
        "distinctIdentifier": "synderai-generator-50",
        "manufacturer": "SYNDERAI Project"
      }
    },
    {
      "fullUrl": "urn:uuid:3b71de01-a826-4fb8-ba2b-a4079763d98f",
      "resource": {
        "resourceType": "Provenance",
        "id": "3b71de01-a826-4fb8-ba2b-a4079763d98f",
        "target": [
          {
            "reference": "Patient/30e7bdd5-13ff-4a27-95f7-8960682630da"
          },
          {
            "reference": "Bundle/699be0d3-5cc9-4d22-aeb0-83905d225218"
          },
          {
            "reference": "Composition/f2efe11d-ffbe-4b0e-bab1-38d9f284ef14"
          },
          {
            "reference": "PractitionerRole/8c6e5e0d-781f-47b7-9a43-38893dbfee40"
          },
          {
            "reference": "Practitioner/203ab266-389f-4d37-b997-7bafbb275d14"
          },
          {
            "reference": "PractitionerRole/b40fbc9e-f54b-4b84-8c7b-fa9a9e6358c7"
          },
          {
            "reference": "Organization/8b8a4611-e730-4c7b-93c3-2e156cd68cf6"
          }
        ],
        "activity": {
          "text": "Synthetic Example Data Generation"
        },
        "policy": [
          "https://synderai.net/synderai-synthetic-data-policy"
        ],
        "agent": [
          {
            "type": {
              "text": "author"
            },
            "who": {
              "reference": "Device/ccb4631c-0759-4a12-8b21-34ff860f7e75"
            }
          }
        ],
        "reason": [
          {
            "text": "Interoperability Testing and Training (non-clinical use)"
          }
        ],
        "text": {
          "status": "generated",
          "div": "<div xmlns=\"http://www.w3.org/1999/xhtml\">Provenance for SYNDERAI Synthetic Example Data Resource</div>"
        },
        "recorded": "2021-06-08T00:11:04Z"
      }
    },
    {
      "fullUrl": "urn:uuid:8c6e5e0d-781f-47b7-9a43-38893dbfee40",
      "resource": {
        "resourceType": "PractitionerRole",
        "id": "8c6e5e0d-781f-47b7-9a43-38893dbfee40",
        "meta": {
          "profile": [
            "http://hl7.eu/fhir/base/StructureDefinition/practitionerRole-eu"
          ]
        },
        "text": {
          "status": "generated",
          "div": "<div xmlns=\"http://www.w3.org/1999/xhtml\">Laboratory Role Id: 8c6e5e0d-781f-47b7-9a43-38893dbfee40</div>"
        },
        "practitioner": {
          "reference": "urn:uuid:203ab266-389f-4d37-b997-7bafbb275d14"
        }
      }
    },
    {
      "fullUrl": "urn:uuid:203ab266-389f-4d37-b997-7bafbb275d14",
      "resource": {
        "resourceType": "Practitioner",
        "id": "203ab266-389f-4d37-b997-7bafbb275d14",
        "meta": {
          "profile": [
            "http://hl7.eu/fhir/base/StructureDefinition/practitioner-eu"
          ]
        },
        "identifier": [
          {
            "assigner": {
              "display": "HL7 Europe"
            },
            "system": "urn:oid:2.16.840.1.113883.2.51.999",
            "value": "ddadcacd-9abf-4977-b7ff-fb5949d8f0bc"
          }
        ],
        "name": [
          {
            "prefix": [
              "dr"
            ],
            "given": [
              "Ex"
            ],
            "family": "Ample"
          }
        ],
        "address": [
          {
            "line": [
              "Laboratoire Central Européenne",
              "Boulevard du Jardin Botanique 32"
            ],
            "postalCode": "1000",
            "city": "Brussels",
            "country": "Belgium"
          }
        ],
        "text": {
          "status": "generated",
          "div": "<div xmlns=\"http://www.w3.org/1999/xhtml\">Laboratory: Laboratoire Central Européenne, 1000 Brussels, Belgium</div>"
        }
      }
    }
  ],
  "type": "document",
  "timestamp": "2021-06-08T00:11:04Z"
}
