{
  "resourceType": "Bundle",
  "id": "14668a74-1306-4509-a123-736e0801060c",
  "meta": {
    "profile": [
      "http://hl7.eu/fhir/laboratory/StructureDefinition/Bundle-eu-lab"
    ]
  },
  "identifier": {
    "assigner": {
      "display": "HL7 Europe"
    },
    "system": "urn:oid:2.16.840.1.113883.2.51.999",
    "value": "ec7ada7c-037a-438f-9673-adff07eb2893"
  },
  "entry": [
    {
      "fullUrl": "urn:uuid:f8a9ae25-762f-45d9-b70f-2b7776b856bc",
      "resource": {
        "resourceType": "Composition",
        "id": "f8a9ae25-762f-45d9-b70f-2b7776b856bc",
        "meta": {
          "profile": [
            "http://hl7.eu/fhir/laboratory/StructureDefinition/Composition-eu-lab"
          ]
        },
        "identifier": {
          "assigner": {
            "display": "HL7 Europe"
          },
          "system": "urn:oid:2.16.840.1.113883.2.51.999",
          "value": "45bdb483-c61f-4e60-8c0c-18b1a15b98aa"
        },
        "author": [
          {
            "reference": "urn:uuid:64ff11fb-c26d-433f-b5a9-941691b7de9b"
          }
        ],
        "category": [
          {
            "coding": [
              {
                "code": "26436-6",
                "system": "http://loinc.org",
                "display": "Laboratory studies (set)"
              }
            ]
          }
        ],
        "type": {
          "coding": [
            {
              "code": "11502-2",
              "system": "http://loinc.org",
              "display": "Laboratory report"
            }
          ],
          "text": "Laboratory Report"
        },
        "section": [
          {
            "code": {
              "coding": [
                {
                  "code": "26436-6",
                  "system": "http://loinc.org",
                  "display": "Laboratory studies (set)"
                }
              ],
              "text": "Laboratory studies"
            },
            "section": [
              {
                "code": {
                  "coding": [
                    {
                      "code": "$18719-5",
                      "system": "http://loinc.org",
                      "display": "Chemistry studies (set)"
                    }
                  ],
                  "text": "Chemistry"
                },
                "entry": [
                  {
                    "reference": "urn:uuid:1113cddf-7fb0-4cdb-b07b-76d848f56b92"
                  },
                  {
                    "reference": "urn:uuid:2282496c-1c0f-433d-8f0a-42d7c01249cf"
                  },
                  {
                    "reference": "urn:uuid:ac2efed2-a320-4b8d-aea4-d3e2cc74a3aa"
                  },
                  {
                    "reference": "urn:uuid:8e3e6a92-2d40-461e-9aa2-f6dcc07fd576"
                  },
                  {
                    "reference": "urn:uuid:7a9d0354-1640-48c6-95bd-27d706d31aea"
                  },
                  {
                    "reference": "urn:uuid:445f38ca-ad5b-46a5-b350-7015aeaacc10"
                  },
                  {
                    "reference": "urn:uuid:16c5ec46-5ea4-4935-a8b0-f6e3ae2f6f81"
                  },
                  {
                    "reference": "urn:uuid:c42c8430-139e-49f7-b24e-4b607d2257b0"
                  },
                  {
                    "reference": "urn:uuid:d33cf6c1-690b-4f44-938c-7991cf409eb0"
                  }
                ],
                "text": {
                  "status": "generated",
                  "div": "<div xmlns=\"http://www.w3.org/1999/xhtml\"><h3>Chemistry</h3><table class=\"hl7__eu__lab__report\"><thead><tr><th>Test</th><th>02-JAN-2024</th><th>Reference&#xA0;Range</th><th>Unit</th></tr></thead><tbody><tr><td>Hemoglobin A1c/Hemoglobin.total in Blood</td><td><strong>5.8 H</strong></td><td>4.8 - 5.7</td><td>%</td></tr><tr><td>Glucose [Mass/volume] in Blood</td><td>74.9</td><td>70 - 99</td><td>mg/dL</td></tr><tr><td>Urea nitrogen [Mass/volume] in Blood</td><td>17.9</td><td>7 - 20</td><td>mg/dL</td></tr><tr><td>Creatinine [Mass/volume] in Blood</td><td>0.8</td><td>0.6 - 1.1</td><td>mg/dL</td></tr><tr><td>Calcium [Mass/volume] in Blood</td><td>10.1</td><td>8.5 - 10.5</td><td>mg/dL</td></tr><tr><td>Sodium [Moles/volume] in Blood</td><td>143.4</td><td>135 - 145</td><td>mmol/L</td></tr><tr><td>Potassium [Moles/volume] in Blood</td><td>3.9</td><td>3.5 - 5.3</td><td>mmol/L</td></tr><tr><td>Chloride [Moles/volume] in Blood</td><td>108.1</td><td>98 - 114</td><td>mmol/L</td></tr><tr><td>Carbon dioxide, total [Moles/volume] in Blood</td><td>27.4</td><td>22 - 29</td><td>mmol/L</td></tr></tbody></table></div>"
                },
                "title": "Chemistry"
              }
            ],
            "title": "Laboratory Report"
          },
          {
            "text": {
              "status": "generated",
              "div": "<div xmlns=\"http://www.w3.org/1999/xhtml\"><h3>Annotation</h3><table class=\"hl7__eu__lab__report\"><tr><th>Conclusion and Recommendations based on this report and previous findings known to us</th></tr><tr><td>All measured parameters are within normal limits except for a mildly elevated HbA1c (5.8%), indicating prediabetes. Renal function, electrolytes, and glucose are normal. Recommend lifestyle modification and follow-up HbA1c monitoring to assess glycemic control and prevent progression to diabetes.</td></tr></table></div>"
            },
            "code": {
              "coding": [
                {
                  "system": "http://loinc.org",
                  "code": "48767-8",
                  "display": "Annotation comment"
                }
              ]
            },
            "title": "Annotation comment"
          }
        ],
        "status": "final",
        "subject": {
          "reference": "urn:uuid:d7cfc4d8-6dca-43b3-963b-61e0438c1ea9",
          "display": "Aniela Sacharczuk"
        },
        "date": "2024-01-02T06:26:59Z",
        "title": "Laboratory Report",
        "confidentiality": "N"
      }
    },
    {
      "fullUrl": "urn:uuid:581b65df-ca6a-4ac2-99ae-53c45e3e16e8",
      "resource": {
        "resourceType": "DiagnosticReport",
        "id": "581b65df-ca6a-4ac2-99ae-53c45e3e16e8",
        "meta": {
          "profile": [
            "http://hl7.eu/fhir/laboratory/StructureDefinition/DiagnosticReport-eu-lab"
          ]
        },
        "identifier": [
          {
            "assigner": {
              "display": "HL7 Europe"
            },
            "system": "urn:oid:2.16.840.1.113883.2.51.999",
            "value": "f0fd7760-09c8-4b4e-93e7-e42cea519f57"
          }
        ],
        "extension": [
          {
            "url": "http://hl7.org/fhir/5.0/StructureDefinition/extension-DiagnosticReport.composition",
            "valueReference": {
              "reference": "urn:uuid:45bdb483-c61f-4e60-8c0c-18b1a15b98aa"
            }
          }
        ],
        "category": [
          {
            "coding": [
              {
                "code": "26436-6",
                "system": "http://loinc.org",
                "display": "Laboratory studies (set)"
              }
            ]
          }
        ],
        "specimen": [
          {
            "reference": "urn:uuid:ecc6788a-6bb9-425f-8f76-6476905548cb"
          }
        ],
        "result": [
          {
            "reference": "urn:uuid:1113cddf-7fb0-4cdb-b07b-76d848f56b92"
          },
          {
            "reference": "urn:uuid:2282496c-1c0f-433d-8f0a-42d7c01249cf"
          },
          {
            "reference": "urn:uuid:ac2efed2-a320-4b8d-aea4-d3e2cc74a3aa"
          },
          {
            "reference": "urn:uuid:8e3e6a92-2d40-461e-9aa2-f6dcc07fd576"
          },
          {
            "reference": "urn:uuid:7a9d0354-1640-48c6-95bd-27d706d31aea"
          },
          {
            "reference": "urn:uuid:445f38ca-ad5b-46a5-b350-7015aeaacc10"
          },
          {
            "reference": "urn:uuid:16c5ec46-5ea4-4935-a8b0-f6e3ae2f6f81"
          },
          {
            "reference": "urn:uuid:c42c8430-139e-49f7-b24e-4b607d2257b0"
          },
          {
            "reference": "urn:uuid:d33cf6c1-690b-4f44-938c-7991cf409eb0"
          }
        ],
        "status": "registered",
        "code": {
          "coding": [
            {
              "code": "11502-2",
              "system": "http://loinc.org",
              "display": "Laboratory report"
            }
          ]
        },
        "subject": {
          "reference": "urn:uuid:d7cfc4d8-6dca-43b3-963b-61e0438c1ea9",
          "display": "Aniela Sacharczuk"
        }
      }
    },
    {
      "fullUrl": "urn:uuid:d7cfc4d8-6dca-43b3-963b-61e0438c1ea9",
      "resource": {
        "resourceType": "Patient",
        "id": "d7cfc4d8-6dca-43b3-963b-61e0438c1ea9",
        "meta": {
          "security": [
            {
              "system": "http://terminology.hl7.org/CodeSystem/v3-ActReason",
              "code": "HTEST"
            },
            {
              "system": "http://terminology.hl7.org/CodeSystem/v3-ActReason",
              "code": "TRAIN"
            }
          ],
          "tag": [
            {
              "system": "https://synderai.net/fhir/CodeSystem/tags",
              "code": "synthetic",
              "display": "SYNDERAI Synthetic data"
            }
          ],
          "profile": [
            "http://hl7.eu/fhir/base/StructureDefinition/patient-eu-core"
          ]
        },
        "identifier": [
          {
            "type": {
              "coding": [
                {
                  "code": "PT",
                  "system": "http://terminology.hl7.org/CodeSystem/v2-0203"
                }
              ]
            },
            "system": "http://ec.europa.eu/identifier/eci",
            "value": "3843-787162-7"
          },
          {
            "type": {
              "coding": [
                {
                  "code": "MR",
                  "system": "http://terminology.hl7.org/CodeSystem/v2-0203"
                }
              ]
            },
            "system": "http://local.setting.eu/identifier",
            "value": "cd2e7aac-e2c0-8306-b862-9ed4c443c8b5"
          }
        ],
        "name": [
          {
            "family": "Sacharczuk"
          },
          {
            "given": [
              "Aniela"
            ]
          },
          {
            "text": "Aniela Sacharczuk"
          }
        ],
        "address": [
          {
            "line": [
              "plac Szpitalna 13"
            ],
            "use": "home",
            "type": "physical",
            "postalCode": "27-600",
            "city": "Sandomierz",
            "country": "Poland"
          }
        ],
        "telecom": [
          {
            "system": "phone",
            "value": "+48 536 227 035"
          }
        ],
        "extension": [
          {
            "url": "http://hl7.org/fhir/StructureDefinition/patient-nationality",
            "valueCodeableConcept": {
              "coding": [
                {
                  "code": "PL",
                  "system": "http://hl7.org/fhir/ValueSet/country"
                }
              ]
            }
          }
        ],
        "text": {
          "status": "generated",
          "div": "<div xmlns=\"http://www.w3.org/1999/xhtml\"><table class=\"hl7__ips\"><tr><td>Aniela Sacharczuk</td><td>female</td><td>02-Nov-1970</td></tr></table></div>"
        },
        "gender": "female",
        "birthDate": "1970-11-02"
      }
    },
    {
      "fullUrl": "urn:uuid:fe3cc321-4b61-4bd8-8708-09641bd53154",
      "resource": {
        "resourceType": "ServiceRequest",
        "id": "fe3cc321-4b61-4bd8-8708-09641bd53154",
        "meta": {
          "profile": [
            "http://hl7.eu/fhir/laboratory/StructureDefinition/ServiceRequest-eu-lab"
          ]
        },
        "identifier": [
          {
            "system": "http://example.org",
            "value": "0d77f53d-10db-44fc-8540-f8dd01ea932b"
          }
        ],
        "specimen": [
          {
            "reference": "urn:uuid:ecc6788a-6bb9-425f-8f76-6476905548cb"
          }
        ],
        "reasonCode": [
          {
            "coding": [
              {
                "code": "237602007",
                "system": "http://snomed.info/sct",
                "display": "Metabolic syndrome X"
              }
            ]
          },
          {
            "coding": [
              {
                "code": "15777000",
                "system": "http://snomed.info/sct",
                "display": "Prediabetes"
              }
            ]
          },
          {
            "coding": [
              {
                "code": "59621000",
                "system": "http://snomed.info/sct",
                "display": "Essential hypertension"
              }
            ]
          }
        ],
        "status": "active",
        "intent": "order",
        "code": {
          "coding": [
            {
              "code": "108252007",
              "system": "http://snomed.info/sct",
              "display": "Laboratory procedure"
            }
          ]
        },
        "subject": {
          "reference": "urn:uuid:d7cfc4d8-6dca-43b3-963b-61e0438c1ea9",
          "display": "Aniela Sacharczuk"
        },
        "requester": {
          "reference": "urn:uuid:7d3e3706-d719-4d88-b2c4-4ca478c1d594"
        }
      }
    },
    {
      "fullUrl": "urn:uuid:7d3e3706-d719-4d88-b2c4-4ca478c1d594",
      "resource": {
        "resourceType": "PractitionerRole",
        "id": "7d3e3706-d719-4d88-b2c4-4ca478c1d594",
        "meta": {
          "profile": [
            "http://hl7.eu/fhir/base/StructureDefinition/practitionerRole-eu"
          ]
        },
        "text": {
          "status": "generated",
          "div": "<div xmlns=\"http://www.w3.org/1999/xhtml\">Provider Role Id: 7d3e3706-d719-4d88-b2c4-4ca478c1d594</div>"
        },
        "organization": {
          "reference": "urn:uuid:f6467537-3a84-4cca-b2cf-f6304d8529a9"
        }
      }
    },
    {
      "fullUrl": "urn:uuid:f6467537-3a84-4cca-b2cf-f6304d8529a9",
      "resource": {
        "resourceType": "Organization",
        "id": "f6467537-3a84-4cca-b2cf-f6304d8529a9",
        "meta": {
          "profile": [
            "http://hl7.eu/fhir/base/StructureDefinition/organization-eu"
          ]
        },
        "identifier": [
          {
            "assigner": {
              "display": "HL7 Europe"
            },
            "system": "urn:oid:2.16.840.1.113883.2.51.999",
            "value": "9bbe6066-93f4-4d15-b57e-2862004d794e"
          }
        ],
        "address": [
          {
            "line": [
              "Józefa Piłsudskiego 17"
            ],
            "city": "Gorzyce",
            "postalCode": "39-432",
            "country": "Poland"
          }
        ],
        "text": {
          "status": "generated",
          "div": "<div xmlns=\"http://www.w3.org/1999/xhtml\">Provider Organization: Ośrodek Zdrowia</div>"
        },
        "name": "Ośrodek Zdrowia"
      }
    },
    {
      "fullUrl": "urn:uuid:ecc6788a-6bb9-425f-8f76-6476905548cb",
      "resource": {
        "resourceType": "Specimen",
        "id": "ecc6788a-6bb9-425f-8f76-6476905548cb",
        "meta": {
          "profile": [
            "http://hl7.eu/fhir/laboratory/StructureDefinition/Specimen-eu-lab"
          ]
        },
        "collection": {
          "collectedDateTime": "2024-01-02"
        },
        "text": {
          "status": "generated",
          "div": "<div xmlns=\"http://www.w3.org/1999/xhtml\"><table class=\"hl7__eu__lab__report\"><tr><th>Specimen</th><th>Collection Date</th></tr><tr><td>Whole blood specimen (specimen)</td><td><span class=\"nb\">02-Jan-2024</span></td></tr></table></div>"
        },
        "type": {
          "coding": [
            {
              "code": "258580003",
              "system": "http://snomed.info/sct",
              "display": "Whole blood specimen (specimen)"
            }
          ]
        }
      }
    },
    {
      "fullUrl": "urn:uuid:1113cddf-7fb0-4cdb-b07b-76d848f56b92",
      "resource": {
        "resourceType": "Observation",
        "id": "1113cddf-7fb0-4cdb-b07b-76d848f56b92",
        "meta": {
          "profile": [
            "http://hl7.eu/fhir/laboratory/StructureDefinition/Observation-resultslab-eu-lab"
          ]
        },
        "performer": [
          {
            "display": "The Central European Lab"
          }
        ],
        "category": [
          {
            "coding": [
              {
                "system": "http://terminology.hl7.org/CodeSystem/observation-category",
                "code": "laboratory"
              }
            ]
          }
        ],
        "code": {
          "coding": [
            {
              "code": "4548-4",
              "system": "http://loinc.org",
              "display": "Hemoglobin A1c/Hemoglobin.total in Blood"
            }
          ],
          "text": "Hemoglobin A1c/Hemoglobin.total in Blood"
        },
        "valueQuantity": {
          "system": "http://unitsofmeasure.org",
          "value": 5.8,
          "unit": "%",
          "code": "%"
        },
        "referenceRange": [
          {
            "low": {
              "value": 4.8,
              "code": "%",
              "system": "http://unitsofmeasure.org"
            }
          },
          {
            "high": {
              "value": 5.7,
              "code": "%",
              "system": "http://unitsofmeasure.org"
            }
          }
        ],
        "interpretation": [
          {
            "coding": [
              {
                "code": "H",
                "system": "http://terminology.hl7.org/CodeSystem/v3-ObservationInterpretation",
                "display": "High"
              }
            ]
          }
        ],
        "text": {
          "status": "generated",
          "div": "<div xmlns=\"http://www.w3.org/1999/xhtml\"><table class=\"hl7__eu__lab__report\"><tr><th>Test</th><th>02-Jan-2024</th><th>Reference&#xA0;Range</th><th>Unit</th></tr><tr><td>Hemoglobin A1c/Hemoglobin.total in Blood</td><td>5.8</td><td>4.8 - 5.7</td><td>H</td><td>%</td></tr></table></div>"
        },
        "status": "final",
        "subject": {
          "reference": "urn:uuid:d7cfc4d8-6dca-43b3-963b-61e0438c1ea9",
          "display": "Aniela Sacharczuk"
        },
        "effectiveDateTime": "2024-01-02T05:26:59Z",
        "specimen": {
          "reference": "urn:uuid:ecc6788a-6bb9-425f-8f76-6476905548cb"
        }
      }
    },
    {
      "fullUrl": "urn:uuid:2282496c-1c0f-433d-8f0a-42d7c01249cf",
      "resource": {
        "resourceType": "Observation",
        "id": "2282496c-1c0f-433d-8f0a-42d7c01249cf",
        "meta": {
          "profile": [
            "http://hl7.eu/fhir/laboratory/StructureDefinition/Observation-resultslab-eu-lab"
          ]
        },
        "performer": [
          {
            "display": "The Central European Lab"
          }
        ],
        "category": [
          {
            "coding": [
              {
                "system": "http://terminology.hl7.org/CodeSystem/observation-category",
                "code": "laboratory"
              }
            ]
          }
        ],
        "code": {
          "coding": [
            {
              "code": "2339-0",
              "system": "http://loinc.org",
              "display": "Glucose [Mass/volume] in Blood"
            }
          ],
          "text": "Glucose [Mass/volume] in Blood"
        },
        "valueQuantity": {
          "system": "http://unitsofmeasure.org",
          "value": 74.9,
          "unit": "mg/dL",
          "code": "mg/dL"
        },
        "referenceRange": [
          {
            "low": {
              "value": 70,
              "code": "mg/dL",
              "system": "http://unitsofmeasure.org"
            }
          },
          {
            "high": {
              "value": 99,
              "code": "mg/dL",
              "system": "http://unitsofmeasure.org"
            }
          }
        ],
        "text": {
          "status": "generated",
          "div": "<div xmlns=\"http://www.w3.org/1999/xhtml\"><table class=\"hl7__eu__lab__report\"><tr><th>Test</th><th>02-Jan-2024</th><th>Reference&#xA0;Range</th><th>Unit</th></tr><tr><td>Glucose [Mass/volume] in Blood</td><td>74.9</td><td>70 - 99</td><td></td><td>mg/dL</td></tr></table></div>"
        },
        "status": "final",
        "subject": {
          "reference": "urn:uuid:d7cfc4d8-6dca-43b3-963b-61e0438c1ea9",
          "display": "Aniela Sacharczuk"
        },
        "effectiveDateTime": "2024-01-02T05:26:59Z",
        "specimen": {
          "reference": "urn:uuid:ecc6788a-6bb9-425f-8f76-6476905548cb"
        }
      }
    },
    {
      "fullUrl": "urn:uuid:ac2efed2-a320-4b8d-aea4-d3e2cc74a3aa",
      "resource": {
        "resourceType": "Observation",
        "id": "ac2efed2-a320-4b8d-aea4-d3e2cc74a3aa",
        "meta": {
          "profile": [
            "http://hl7.eu/fhir/laboratory/StructureDefinition/Observation-resultslab-eu-lab"
          ]
        },
        "performer": [
          {
            "display": "The Central European Lab"
          }
        ],
        "category": [
          {
            "coding": [
              {
                "system": "http://terminology.hl7.org/CodeSystem/observation-category",
                "code": "laboratory"
              }
            ]
          }
        ],
        "code": {
          "coding": [
            {
              "code": "6299-2",
              "system": "http://loinc.org",
              "display": "Urea nitrogen [Mass/volume] in Blood"
            }
          ],
          "text": "Urea nitrogen [Mass/volume] in Blood"
        },
        "valueQuantity": {
          "system": "http://unitsofmeasure.org",
          "value": 17.9,
          "unit": "mg/dL",
          "code": "mg/dL"
        },
        "referenceRange": [
          {
            "low": {
              "value": 7,
              "code": "mg/dL",
              "system": "http://unitsofmeasure.org"
            }
          },
          {
            "high": {
              "value": 20,
              "code": "mg/dL",
              "system": "http://unitsofmeasure.org"
            }
          }
        ],
        "text": {
          "status": "generated",
          "div": "<div xmlns=\"http://www.w3.org/1999/xhtml\"><table class=\"hl7__eu__lab__report\"><tr><th>Test</th><th>02-Jan-2024</th><th>Reference&#xA0;Range</th><th>Unit</th></tr><tr><td>Urea nitrogen [Mass/volume] in Blood</td><td>17.9</td><td>7 - 20</td><td></td><td>mg/dL</td></tr></table></div>"
        },
        "status": "final",
        "subject": {
          "reference": "urn:uuid:d7cfc4d8-6dca-43b3-963b-61e0438c1ea9",
          "display": "Aniela Sacharczuk"
        },
        "effectiveDateTime": "2024-01-02T05:26:59Z",
        "specimen": {
          "reference": "urn:uuid:ecc6788a-6bb9-425f-8f76-6476905548cb"
        }
      }
    },
    {
      "fullUrl": "urn:uuid:8e3e6a92-2d40-461e-9aa2-f6dcc07fd576",
      "resource": {
        "resourceType": "Observation",
        "id": "8e3e6a92-2d40-461e-9aa2-f6dcc07fd576",
        "meta": {
          "profile": [
            "http://hl7.eu/fhir/laboratory/StructureDefinition/Observation-resultslab-eu-lab"
          ]
        },
        "performer": [
          {
            "display": "The Central European Lab"
          }
        ],
        "category": [
          {
            "coding": [
              {
                "system": "http://terminology.hl7.org/CodeSystem/observation-category",
                "code": "laboratory"
              }
            ]
          }
        ],
        "code": {
          "coding": [
            {
              "code": "38483-4",
              "system": "http://loinc.org",
              "display": "Creatinine [Mass/volume] in Blood"
            }
          ],
          "text": "Creatinine [Mass/volume] in Blood"
        },
        "valueQuantity": {
          "system": "http://unitsofmeasure.org",
          "value": 0.8,
          "unit": "mg/dL",
          "code": "mg/dL"
        },
        "referenceRange": [
          {
            "low": {
              "value": 0.6,
              "code": "mg/dL",
              "system": "http://unitsofmeasure.org"
            }
          },
          {
            "high": {
              "value": 1.1,
              "code": "mg/dL",
              "system": "http://unitsofmeasure.org"
            }
          }
        ],
        "text": {
          "status": "generated",
          "div": "<div xmlns=\"http://www.w3.org/1999/xhtml\"><table class=\"hl7__eu__lab__report\"><tr><th>Test</th><th>02-Jan-2024</th><th>Reference&#xA0;Range</th><th>Unit</th></tr><tr><td>Creatinine [Mass/volume] in Blood</td><td>0.8</td><td>0.6 - 1.1</td><td></td><td>mg/dL</td></tr></table></div>"
        },
        "status": "final",
        "subject": {
          "reference": "urn:uuid:d7cfc4d8-6dca-43b3-963b-61e0438c1ea9",
          "display": "Aniela Sacharczuk"
        },
        "effectiveDateTime": "2024-01-02T05:26:59Z",
        "specimen": {
          "reference": "urn:uuid:ecc6788a-6bb9-425f-8f76-6476905548cb"
        }
      }
    },
    {
      "fullUrl": "urn:uuid:7a9d0354-1640-48c6-95bd-27d706d31aea",
      "resource": {
        "resourceType": "Observation",
        "id": "7a9d0354-1640-48c6-95bd-27d706d31aea",
        "meta": {
          "profile": [
            "http://hl7.eu/fhir/laboratory/StructureDefinition/Observation-resultslab-eu-lab"
          ]
        },
        "performer": [
          {
            "display": "The Central European Lab"
          }
        ],
        "category": [
          {
            "coding": [
              {
                "system": "http://terminology.hl7.org/CodeSystem/observation-category",
                "code": "laboratory"
              }
            ]
          }
        ],
        "code": {
          "coding": [
            {
              "code": "49765-1",
              "system": "http://loinc.org",
              "display": "Calcium [Mass/volume] in Blood"
            }
          ],
          "text": "Calcium [Mass/volume] in Blood"
        },
        "valueQuantity": {
          "system": "http://unitsofmeasure.org",
          "value": 10.1,
          "unit": "mg/dL",
          "code": "mg/dL"
        },
        "referenceRange": [
          {
            "low": {
              "value": 8.5,
              "code": "mg/dL",
              "system": "http://unitsofmeasure.org"
            }
          },
          {
            "high": {
              "value": 10.5,
              "code": "mg/dL",
              "system": "http://unitsofmeasure.org"
            }
          }
        ],
        "text": {
          "status": "generated",
          "div": "<div xmlns=\"http://www.w3.org/1999/xhtml\"><table class=\"hl7__eu__lab__report\"><tr><th>Test</th><th>02-Jan-2024</th><th>Reference&#xA0;Range</th><th>Unit</th></tr><tr><td>Calcium [Mass/volume] in Blood</td><td>10.1</td><td>8.5 - 10.5</td><td></td><td>mg/dL</td></tr></table></div>"
        },
        "status": "final",
        "subject": {
          "reference": "urn:uuid:d7cfc4d8-6dca-43b3-963b-61e0438c1ea9",
          "display": "Aniela Sacharczuk"
        },
        "effectiveDateTime": "2024-01-02T05:26:59Z",
        "specimen": {
          "reference": "urn:uuid:ecc6788a-6bb9-425f-8f76-6476905548cb"
        }
      }
    },
    {
      "fullUrl": "urn:uuid:445f38ca-ad5b-46a5-b350-7015aeaacc10",
      "resource": {
        "resourceType": "Observation",
        "id": "445f38ca-ad5b-46a5-b350-7015aeaacc10",
        "meta": {
          "profile": [
            "http://hl7.eu/fhir/laboratory/StructureDefinition/Observation-resultslab-eu-lab"
          ]
        },
        "performer": [
          {
            "display": "The Central European Lab"
          }
        ],
        "category": [
          {
            "coding": [
              {
                "system": "http://terminology.hl7.org/CodeSystem/observation-category",
                "code": "laboratory"
              }
            ]
          }
        ],
        "code": {
          "coding": [
            {
              "code": "2947-0",
              "system": "http://loinc.org",
              "display": "Sodium [Moles/volume] in Blood"
            }
          ],
          "text": "Sodium [Moles/volume] in Blood"
        },
        "valueQuantity": {
          "system": "http://unitsofmeasure.org",
          "value": 143.4,
          "unit": "mmol/L",
          "code": "mmol/L"
        },
        "referenceRange": [
          {
            "low": {
              "value": 135,
              "code": "mmol/L",
              "system": "http://unitsofmeasure.org"
            }
          },
          {
            "high": {
              "value": 145,
              "code": "mmol/L",
              "system": "http://unitsofmeasure.org"
            }
          }
        ],
        "text": {
          "status": "generated",
          "div": "<div xmlns=\"http://www.w3.org/1999/xhtml\"><table class=\"hl7__eu__lab__report\"><tr><th>Test</th><th>02-Jan-2024</th><th>Reference&#xA0;Range</th><th>Unit</th></tr><tr><td>Sodium [Moles/volume] in Blood</td><td>143.4</td><td>135 - 145</td><td></td><td>mmol/L</td></tr></table></div>"
        },
        "status": "final",
        "subject": {
          "reference": "urn:uuid:d7cfc4d8-6dca-43b3-963b-61e0438c1ea9",
          "display": "Aniela Sacharczuk"
        },
        "effectiveDateTime": "2024-01-02T05:26:59Z",
        "specimen": {
          "reference": "urn:uuid:ecc6788a-6bb9-425f-8f76-6476905548cb"
        }
      }
    },
    {
      "fullUrl": "urn:uuid:16c5ec46-5ea4-4935-a8b0-f6e3ae2f6f81",
      "resource": {
        "resourceType": "Observation",
        "id": "16c5ec46-5ea4-4935-a8b0-f6e3ae2f6f81",
        "meta": {
          "profile": [
            "http://hl7.eu/fhir/laboratory/StructureDefinition/Observation-resultslab-eu-lab"
          ]
        },
        "performer": [
          {
            "display": "The Central European Lab"
          }
        ],
        "category": [
          {
            "coding": [
              {
                "system": "http://terminology.hl7.org/CodeSystem/observation-category",
                "code": "laboratory"
              }
            ]
          }
        ],
        "code": {
          "coding": [
            {
              "code": "6298-4",
              "system": "http://loinc.org",
              "display": "Potassium [Moles/volume] in Blood"
            }
          ],
          "text": "Potassium [Moles/volume] in Blood"
        },
        "valueQuantity": {
          "system": "http://unitsofmeasure.org",
          "value": 3.9,
          "unit": "mmol/L",
          "code": "mmol/L"
        },
        "referenceRange": [
          {
            "low": {
              "value": 3.5,
              "code": "mmol/L",
              "system": "http://unitsofmeasure.org"
            }
          },
          {
            "high": {
              "value": 5.3,
              "code": "mmol/L",
              "system": "http://unitsofmeasure.org"
            }
          }
        ],
        "text": {
          "status": "generated",
          "div": "<div xmlns=\"http://www.w3.org/1999/xhtml\"><table class=\"hl7__eu__lab__report\"><tr><th>Test</th><th>02-Jan-2024</th><th>Reference&#xA0;Range</th><th>Unit</th></tr><tr><td>Potassium [Moles/volume] in Blood</td><td>3.9</td><td>3.5 - 5.3</td><td></td><td>mmol/L</td></tr></table></div>"
        },
        "status": "final",
        "subject": {
          "reference": "urn:uuid:d7cfc4d8-6dca-43b3-963b-61e0438c1ea9",
          "display": "Aniela Sacharczuk"
        },
        "effectiveDateTime": "2024-01-02T05:26:59Z",
        "specimen": {
          "reference": "urn:uuid:ecc6788a-6bb9-425f-8f76-6476905548cb"
        }
      }
    },
    {
      "fullUrl": "urn:uuid:c42c8430-139e-49f7-b24e-4b607d2257b0",
      "resource": {
        "resourceType": "Observation",
        "id": "c42c8430-139e-49f7-b24e-4b607d2257b0",
        "meta": {
          "profile": [
            "http://hl7.eu/fhir/laboratory/StructureDefinition/Observation-resultslab-eu-lab"
          ]
        },
        "performer": [
          {
            "display": "The Central European Lab"
          }
        ],
        "category": [
          {
            "coding": [
              {
                "system": "http://terminology.hl7.org/CodeSystem/observation-category",
                "code": "laboratory"
              }
            ]
          }
        ],
        "code": {
          "coding": [
            {
              "code": "2069-3",
              "system": "http://loinc.org",
              "display": "Chloride [Moles/volume] in Blood"
            }
          ],
          "text": "Chloride [Moles/volume] in Blood"
        },
        "valueQuantity": {
          "system": "http://unitsofmeasure.org",
          "value": 108.1,
          "unit": "mmol/L",
          "code": "mmol/L"
        },
        "referenceRange": [
          {
            "low": {
              "value": 98,
              "code": "mmol/L",
              "system": "http://unitsofmeasure.org"
            }
          },
          {
            "high": {
              "value": 114,
              "code": "mmol/L",
              "system": "http://unitsofmeasure.org"
            }
          }
        ],
        "text": {
          "status": "generated",
          "div": "<div xmlns=\"http://www.w3.org/1999/xhtml\"><table class=\"hl7__eu__lab__report\"><tr><th>Test</th><th>02-Jan-2024</th><th>Reference&#xA0;Range</th><th>Unit</th></tr><tr><td>Chloride [Moles/volume] in Blood</td><td>108.1</td><td>98 - 114</td><td></td><td>mmol/L</td></tr></table></div>"
        },
        "status": "final",
        "subject": {
          "reference": "urn:uuid:d7cfc4d8-6dca-43b3-963b-61e0438c1ea9",
          "display": "Aniela Sacharczuk"
        },
        "effectiveDateTime": "2024-01-02T05:26:59Z",
        "specimen": {
          "reference": "urn:uuid:ecc6788a-6bb9-425f-8f76-6476905548cb"
        }
      }
    },
    {
      "fullUrl": "urn:uuid:d33cf6c1-690b-4f44-938c-7991cf409eb0",
      "resource": {
        "resourceType": "Observation",
        "id": "d33cf6c1-690b-4f44-938c-7991cf409eb0",
        "meta": {
          "profile": [
            "http://hl7.eu/fhir/laboratory/StructureDefinition/Observation-resultslab-eu-lab"
          ]
        },
        "performer": [
          {
            "display": "The Central European Lab"
          }
        ],
        "category": [
          {
            "coding": [
              {
                "system": "http://terminology.hl7.org/CodeSystem/observation-category",
                "code": "laboratory"
              }
            ]
          }
        ],
        "code": {
          "coding": [
            {
              "code": "20565-8",
              "system": "http://loinc.org",
              "display": "Carbon dioxide, total [Moles/volume] in Blood"
            }
          ],
          "text": "Carbon dioxide, total [Moles/volume] in Blood"
        },
        "valueQuantity": {
          "system": "http://unitsofmeasure.org",
          "value": 27.4,
          "unit": "mmol/L",
          "code": "mmol/L"
        },
        "referenceRange": [
          {
            "low": {
              "value": 22,
              "code": "mmol/L",
              "system": "http://unitsofmeasure.org"
            }
          },
          {
            "high": {
              "value": 29,
              "code": "mmol/L",
              "system": "http://unitsofmeasure.org"
            }
          }
        ],
        "text": {
          "status": "generated",
          "div": "<div xmlns=\"http://www.w3.org/1999/xhtml\"><table class=\"hl7__eu__lab__report\"><tr><th>Test</th><th>02-Jan-2024</th><th>Reference&#xA0;Range</th><th>Unit</th></tr><tr><td>Carbon dioxide, total [Moles/volume] in Blood</td><td>27.4</td><td>22 - 29</td><td></td><td>mmol/L</td></tr></table></div>"
        },
        "status": "final",
        "subject": {
          "reference": "urn:uuid:d7cfc4d8-6dca-43b3-963b-61e0438c1ea9",
          "display": "Aniela Sacharczuk"
        },
        "effectiveDateTime": "2024-01-02T05:26:59Z",
        "specimen": {
          "reference": "urn:uuid:ecc6788a-6bb9-425f-8f76-6476905548cb"
        }
      }
    },
    {
      "fullUrl": "urn:uuid:c16af5f2-5191-43a7-bdb9-c7827cff11a9",
      "resource": {
        "resourceType": "Device",
        "id": "c16af5f2-5191-43a7-bdb9-c7827cff11a9",
        "deviceName": [
          {
            "name": "SYNDERAI Synthetic Generator",
            "type": "manufacturer-name"
          }
        ],
        "version": [
          {
            "value": "5.0"
          }
        ],
        "text": {
          "status": "generated",
          "div": "<div xmlns=\"http://www.w3.org/1999/xhtml\">SYNDERAI Synthetic Generator v5.0</div>"
        },
        "status": "active\"",
        "distinctIdentifier": "synderai-generator-50",
        "manufacturer": "SYNDERAI Project"
      }
    },
    {
      "fullUrl": "urn:uuid:b37ff6ed-7d25-45c8-86ad-879ce8d52739",
      "resource": {
        "resourceType": "Provenance",
        "id": "b37ff6ed-7d25-45c8-86ad-879ce8d52739",
        "target": [
          {
            "reference": "Patient/d7cfc4d8-6dca-43b3-963b-61e0438c1ea9"
          },
          {
            "reference": "Bundle/14668a74-1306-4509-a123-736e0801060c"
          },
          {
            "reference": "Composition/f8a9ae25-762f-45d9-b70f-2b7776b856bc"
          },
          {
            "reference": "PractitionerRole/64ff11fb-c26d-433f-b5a9-941691b7de9b"
          },
          {
            "reference": "Practitioner/10480499-6975-43e6-b254-96ccbac77fcf"
          },
          {
            "reference": "PractitionerRole/7d3e3706-d719-4d88-b2c4-4ca478c1d594"
          },
          {
            "reference": "Organization/f6467537-3a84-4cca-b2cf-f6304d8529a9"
          }
        ],
        "activity": {
          "text": "Synthetic Example Data Generation"
        },
        "policy": [
          "https://synderai.net/synderai-synthetic-data-policy"
        ],
        "agent": [
          {
            "type": {
              "text": "author"
            },
            "who": {
              "reference": "Device/c16af5f2-5191-43a7-bdb9-c7827cff11a9"
            }
          }
        ],
        "reason": [
          {
            "text": "Interoperability Testing and Training (non-clinical use)"
          }
        ],
        "text": {
          "status": "generated",
          "div": "<div xmlns=\"http://www.w3.org/1999/xhtml\">Provenance for SYNDERAI Synthetic Example Data Resource</div>"
        },
        "recorded": "2024-01-02T06:26:59Z"
      }
    },
    {
      "fullUrl": "urn:uuid:64ff11fb-c26d-433f-b5a9-941691b7de9b",
      "resource": {
        "resourceType": "PractitionerRole",
        "id": "64ff11fb-c26d-433f-b5a9-941691b7de9b",
        "meta": {
          "profile": [
            "http://hl7.eu/fhir/base/StructureDefinition/practitionerRole-eu"
          ]
        },
        "text": {
          "status": "generated",
          "div": "<div xmlns=\"http://www.w3.org/1999/xhtml\">Laboratory Role Id: 64ff11fb-c26d-433f-b5a9-941691b7de9b</div>"
        },
        "practitioner": {
          "reference": "urn:uuid:10480499-6975-43e6-b254-96ccbac77fcf"
        }
      }
    },
    {
      "fullUrl": "urn:uuid:10480499-6975-43e6-b254-96ccbac77fcf",
      "resource": {
        "resourceType": "Practitioner",
        "id": "10480499-6975-43e6-b254-96ccbac77fcf",
        "meta": {
          "profile": [
            "http://hl7.eu/fhir/base/StructureDefinition/practitioner-eu"
          ]
        },
        "identifier": [
          {
            "assigner": {
              "display": "HL7 Europe"
            },
            "system": "urn:oid:2.16.840.1.113883.2.51.999",
            "value": "63bf65de-c660-42cb-81cf-77096f54f3e2"
          }
        ],
        "name": [
          {
            "prefix": [
              "dr"
            ],
            "given": [
              "Ex"
            ],
            "family": "Ample"
          }
        ],
        "address": [
          {
            "line": [
              "Laboratoire Central Européenne",
              "Boulevard du Jardin Botanique 32"
            ],
            "postalCode": "1000",
            "city": "Brussels",
            "country": "Belgium"
          }
        ],
        "text": {
          "status": "generated",
          "div": "<div xmlns=\"http://www.w3.org/1999/xhtml\">Laboratory: Laboratoire Central Européenne, 1000 Brussels, Belgium</div>"
        }
      }
    }
  ],
  "type": "document",
  "timestamp": "2024-01-02T06:26:59Z"
}
