{
  "resourceType": "Bundle",
  "id": "1b6fa60b-6965-410e-bde4-365b6fa307f8",
  "meta": {
    "profile": [
      "http://hl7.eu/fhir/laboratory/StructureDefinition/Bundle-eu-lab"
    ]
  },
  "identifier": {
    "assigner": {
      "display": "HL7 Europe"
    },
    "system": "urn:oid:2.16.840.1.113883.2.51.999",
    "value": "42211e65-cf57-4506-ae27-59e56dc5cad0"
  },
  "entry": [
    {
      "fullUrl": "urn:uuid:92494f93-73f4-4e94-8817-ce0582986599",
      "resource": {
        "resourceType": "Composition",
        "id": "92494f93-73f4-4e94-8817-ce0582986599",
        "meta": {
          "profile": [
            "http://hl7.eu/fhir/laboratory/StructureDefinition/Composition-eu-lab"
          ]
        },
        "identifier": {
          "assigner": {
            "display": "HL7 Europe"
          },
          "system": "urn:oid:2.16.840.1.113883.2.51.999",
          "value": "8295fac5-8219-4f0d-9676-9ef366544502"
        },
        "author": [
          {
            "reference": "urn:uuid:f0da4f9d-5cf6-41b4-ac6d-bd04b3ce7341"
          }
        ],
        "category": [
          {
            "coding": [
              {
                "code": "26436-6",
                "system": "http://loinc.org",
                "display": "Laboratory studies (set)"
              }
            ]
          }
        ],
        "type": {
          "coding": [
            {
              "code": "11502-2",
              "system": "http://loinc.org",
              "display": "Laboratory report"
            }
          ],
          "text": "Laboratory Report"
        },
        "section": [
          {
            "code": {
              "coding": [
                {
                  "code": "26436-6",
                  "system": "http://loinc.org",
                  "display": "Laboratory studies (set)"
                }
              ],
              "text": "Laboratory studies"
            },
            "section": [
              {
                "code": {
                  "coding": [
                    {
                      "code": "$18719-5",
                      "system": "http://loinc.org",
                      "display": "Chemistry studies (set)"
                    }
                  ],
                  "text": "Chemistry"
                },
                "entry": [
                  {
                    "reference": "urn:uuid:c2cc92c4-76d1-446a-80bd-ac276faac3be"
                  },
                  {
                    "reference": "urn:uuid:a937cd52-9a04-4d1c-ad31-a9d5c70c8a00"
                  },
                  {
                    "reference": "urn:uuid:e483a8bb-b2ad-4cf5-98c3-85d22279fd73"
                  },
                  {
                    "reference": "urn:uuid:ef1bc7ec-983e-4359-a1c6-ac1ec3ce7124"
                  },
                  {
                    "reference": "urn:uuid:388a6b13-be09-4b40-bff3-f908ea222065"
                  },
                  {
                    "reference": "urn:uuid:8323b7e4-d1db-455d-8674-ee430404ada8"
                  },
                  {
                    "reference": "urn:uuid:2d97ecc6-d5ce-42c7-9165-680a7a912fac"
                  },
                  {
                    "reference": "urn:uuid:30c2ba96-40e9-44e3-aafd-2ca9c2401870"
                  },
                  {
                    "reference": "urn:uuid:10137690-be80-4bec-9e53-697737fe2f06"
                  },
                  {
                    "reference": "urn:uuid:9a039c5d-ad18-4194-80a3-dc4000d6132c"
                  },
                  {
                    "reference": "urn:uuid:0e34b7fc-92be-4a2e-bcdf-ff59904f6fc1"
                  },
                  {
                    "reference": "urn:uuid:7b9c0336-ac74-4324-b499-366eed42cc74"
                  },
                  {
                    "reference": "urn:uuid:c64bf116-718e-4ab4-a3f9-4798f15c039c"
                  },
                  {
                    "reference": "urn:uuid:2df7d104-8122-4cd7-a364-90dcaa181964"
                  },
                  {
                    "reference": "urn:uuid:06dd295c-95f5-4320-8435-aadd798d7670"
                  },
                  {
                    "reference": "urn:uuid:960289b2-1fde-43e6-a912-b55e9861cb54"
                  },
                  {
                    "reference": "urn:uuid:71f6cd25-4a0c-4f62-bf66-4bd5577a8e81"
                  },
                  {
                    "reference": "urn:uuid:efa4dc0e-b9f0-4a93-bbcb-e252266f1894"
                  }
                ],
                "text": {
                  "status": "generated",
                  "div": "<div xmlns=\"http://www.w3.org/1999/xhtml\"><h3>Chemistry</h3><table class=\"hl7__eu__lab__report\"><thead><tr><th>Test</th><th>13-APR-2016</th><th>Reference&#xA0;Range</th><th>Unit</th></tr></thead><tbody><tr><td>Glucose [Mass/volume] in Serum or Plasma</td><td>98.6</td><td>70 - 140</td><td>mg/dL</td></tr><tr><td>Urea nitrogen [Mass/volume] in Serum or Plasma</td><td>7.7</td><td>7 - 20</td><td>mg/dL</td></tr><tr><td>Creatinine [Mass/volume] in Serum or Plasma</td><td><strong>2.5 H</strong></td><td>0.6 - 1.3</td><td>mg/dL</td></tr><tr><td>Calcium [Mass/volume] in Serum or Plasma</td><td>9.1</td><td>8.6 - 10.4</td><td>mg/dL</td></tr><tr><td>Sodium [Moles/volume] in Serum or Plasma</td><td>136.5</td><td>135 - 145</td><td>mmol/L</td></tr><tr><td>Potassium [Moles/volume] in Serum or Plasma</td><td>4.7</td><td>3.5 - 5.1</td><td>mmol/L</td></tr><tr><td>Chloride [Moles/volume] in Serum or Plasma</td><td><strong>109.2 H</strong></td><td>98 - 108</td><td>mmol/L</td></tr><tr><td>Carbon dioxide, total [Moles/volume] in Serum or Plasma</td><td><strong>21.0 L</strong></td><td>22 - 32</td><td>mmol/L</td></tr><tr><td>Ketones [Presence] in Urine by Test strip</td><td>Urine ketone test = +++</td><td></td><td></td></tr><tr><td>Hemoglobin A1c/Hemoglobin.total in Blood</td><td><strong>3.0 L</strong></td><td>4.5 - 6.4</td><td>%</td></tr><tr><td>Glucose [Mass/volume] in Blood</td><td>98.6</td><td>70 - 140</td><td>mg/dL</td></tr><tr><td>Urea nitrogen [Mass/volume] in Blood</td><td>7.7</td><td>7 - 30</td><td>mg/dL</td></tr><tr><td>Creatinine [Mass/volume] in Blood</td><td><strong>5.3 H</strong></td><td>0.5 - 1.3</td><td>mg/dL</td></tr><tr><td>Calcium [Mass/volume] in Blood</td><td>9.1</td><td>8.6 - 10.2</td><td>mg/dL</td></tr><tr><td>Sodium [Moles/volume] in Blood</td><td>136.5</td><td>135 - 145</td><td>mmol/L</td></tr><tr><td>Potassium [Moles/volume] in Blood</td><td>4.7</td><td>3.5 - 5.1</td><td>mmol/L</td></tr><tr><td>Chloride [Moles/volume] in Blood</td><td>109.2</td><td>98 - 114</td><td>mmol/L</td></tr><tr><td>Carbon dioxide, total [Moles/volume] in Blood</td><td><strong>21.0 L</strong></td><td>22 - 32</td><td>mmol/L</td></tr></tbody></table></div>"
                },
                "title": "Chemistry"
              },
              {
                "code": {
                  "coding": [
                    {
                      "code": "$18729-4",
                      "system": "http://loinc.org",
                      "display": "Urinalysis studies (set)"
                    }
                  ],
                  "text": "Urinalysis"
                },
                "entry": [
                  {
                    "reference": "urn:uuid:195c1bc7-dd44-45f7-8262-4433c3a501e9"
                  },
                  {
                    "reference": "urn:uuid:d0efe6f7-2783-46bd-ab82-f5f05a836e1e"
                  },
                  {
                    "reference": "urn:uuid:5261064b-2c2b-4143-833b-1df9455c8ac9"
                  },
                  {
                    "reference": "urn:uuid:6ce915da-9846-46cf-a4e2-2e8ea3588778"
                  },
                  {
                    "reference": "urn:uuid:ff62f136-ea64-4ab8-9bad-124c1f4848f7"
                  },
                  {
                    "reference": "urn:uuid:2b7c9e43-4b96-4c0b-9fc8-af6fe5e38177"
                  },
                  {
                    "reference": "urn:uuid:38474410-8960-4ab3-88ea-402c901ddbaa"
                  },
                  {
                    "reference": "urn:uuid:f1a0d684-b4b9-462b-b2cb-24c9270829e3"
                  },
                  {
                    "reference": "urn:uuid:ad05326b-62ff-404c-a1e3-54582c10f54a"
                  },
                  {
                    "reference": "urn:uuid:0b37c8ad-a9a8-4d45-8c07-98308560d9d6"
                  },
                  {
                    "reference": "urn:uuid:6bdccea1-ad1e-4626-a483-449784661770"
                  },
                  {
                    "reference": "urn:uuid:ff32b232-c852-4443-9a75-21db5656b07c"
                  }
                ],
                "text": {
                  "status": "generated",
                  "div": "<div xmlns=\"http://www.w3.org/1999/xhtml\"><h3>Urinalysis</h3><table class=\"hl7__eu__lab__report\"><thead><tr><th>Test</th><th>13-APR-2016</th><th>Reference&#xA0;Range</th><th>Unit</th></tr></thead><tbody><tr><td>Glucose [Mass/volume] in Urine by Test strip</td><td><strong>2.1 H</strong></td><td>0.8 - 0</td><td>mg/dL</td></tr><tr><td>Glucose [Presence] in Urine by Test strip</td><td>++</td><td></td><td></td></tr><tr><td>Bilirubin.total [Mass/volume] in Urine by Test strip</td><td>0.3</td><td>0 - 1.5</td><td>mg/dL</td></tr><tr><td>Bilirubin.total [Presence] in Urine by Test strip</td><td>Finding of bilirubin in urine</td><td></td><td></td></tr><tr><td>Ketones [Mass/volume] in Urine by Test strip</td><td><strong>11.8 H</strong></td><td>0 - 8</td><td>mg/dL</td></tr><tr><td>Specific gravity of Urine by Test strip</td><td><strong>1.0 L</strong></td><td>1.01 - 1.03</td><td>{nominal}</td></tr><tr><td>pH of Urine by Test strip</td><td>5.7</td><td>4.6 - 7.5</td><td>pH</td></tr><tr><td>Protein [Mass/volume] in Urine by Test strip</td><td><strong>410.6 H</strong></td><td>0 - 14</td><td>mg/dL</td></tr><tr><td>Protein [Presence] in Urine by Test strip</td><td>Urine protein test = +++</td><td></td><td></td></tr><tr><td>Nitrite [Presence] in Urine by Test strip</td><td>Urine nitrite negative</td><td></td><td></td></tr><tr><td>Hemoglobin [Presence] in Urine by Test strip</td><td>Urine blood test = negative</td><td></td><td></td></tr><tr><td>Leukocyte esterase [Presence] in Urine by Test strip</td><td>Urine leukocyte test negative</td><td></td><td></td></tr></tbody></table></div>"
                },
                "title": "Urinalysis"
              },
              {
                "code": {
                  "coding": [
                    {
                      "code": "$LP7846-1",
                      "system": "http://loinc.org",
                      "display": "Specimen information"
                    }
                  ],
                  "text": "Specimen information"
                },
                "entry": [
                  {
                    "reference": "urn:uuid:611209f4-8c57-400c-aa40-fba9c68e8dc2"
                  },
                  {
                    "reference": "urn:uuid:3209d9dc-e406-4358-87b6-9ab606713ba0"
                  },
                  {
                    "reference": "urn:uuid:42153ba1-c3fe-4429-ad79-5676382c11ff"
                  },
                  {
                    "reference": "urn:uuid:1a59cc26-039f-45fe-a715-6194caa6e770"
                  }
                ],
                "text": {
                  "status": "generated",
                  "div": "<div xmlns=\"http://www.w3.org/1999/xhtml\"><h3>Specimen information</h3><table class=\"hl7__eu__lab__report\"><thead><tr><th>Test</th><th>13-APR-2016</th><th>Specimen</th><th></th></tr></thead><tbody><tr><td>Appearance of Urine</td><td>Cloudy urine</td><td>Urine</td><td></td></tr><tr><td>Odor of Urine</td><td>Urine smell ammoniacal</td><td>Urine</td><td></td></tr><tr><td>Clarity of Urine</td><td>Translucent</td><td>Urine</td><td></td></tr><tr><td>Color of Urine</td><td>Brown color</td><td>Urine</td><td></td></tr></tbody></table></div>"
                },
                "title": "Specimen information"
              }
            ],
            "title": "Laboratory Report"
          },
          {
            "text": {
              "status": "generated",
              "div": "<div xmlns=\"http://www.w3.org/1999/xhtml\"><h3>Annotation</h3><table class=\"hl7__eu__lab__report\"><tr><th>Conclusion and Recommendations based on this report and previous findings known to us</th></tr><tr><td>The patient shows markedly elevated creatinine, proteinuria, glucosuria, and ketonuria, suggesting significant renal impairment with possible nephrotic-range proteinuria and metabolic derangements. Low total CO₂ may indicate metabolic acidosis. Urine findings (cloudy, brown, low specific gravity) further support renal dysfunction. HbA1c is low, making chronic hyperglycemia less likely. Recommend urgent nephrology evaluation and further assessment for acute or chronic kidney disease and possible underlying causes.</td></tr></table></div>"
            },
            "code": {
              "coding": [
                {
                  "system": "http://loinc.org",
                  "code": "48767-8",
                  "display": "Annotation comment"
                }
              ]
            },
            "title": "Annotation comment"
          }
        ],
        "status": "final",
        "subject": {
          "reference": "urn:uuid:cf670fca-dcc2-4a22-8a66-ffcce757674b",
          "display": "Maria Nohlmans"
        },
        "date": "2016-04-13T13:02:39Z",
        "title": "Laboratory Report",
        "confidentiality": "N"
      }
    },
    {
      "fullUrl": "urn:uuid:2a37fec7-da6a-473c-802d-eced16d1cfb2",
      "resource": {
        "resourceType": "DiagnosticReport",
        "id": "2a37fec7-da6a-473c-802d-eced16d1cfb2",
        "meta": {
          "profile": [
            "http://hl7.eu/fhir/laboratory/StructureDefinition/DiagnosticReport-eu-lab"
          ]
        },
        "identifier": [
          {
            "assigner": {
              "display": "HL7 Europe"
            },
            "system": "urn:oid:2.16.840.1.113883.2.51.999",
            "value": "587d3435-7a92-4006-9e3a-8b236afdb2d9"
          }
        ],
        "extension": [
          {
            "url": "http://hl7.org/fhir/5.0/StructureDefinition/extension-DiagnosticReport.composition",
            "valueReference": {
              "reference": "urn:uuid:8295fac5-8219-4f0d-9676-9ef366544502"
            }
          }
        ],
        "category": [
          {
            "coding": [
              {
                "code": "26436-6",
                "system": "http://loinc.org",
                "display": "Laboratory studies (set)"
              }
            ]
          }
        ],
        "specimen": [
          {
            "reference": "urn:uuid:75025c4b-bf43-454e-9e30-cf3c31faa3be"
          },
          {
            "reference": "urn:uuid:f7ee9f68-93f5-42e7-889c-9d3bafca4f00"
          },
          {
            "reference": "urn:uuid:0627e0e2-9b01-4dba-80ba-d18a50771a64"
          }
        ],
        "result": [
          {
            "reference": "urn:uuid:c2cc92c4-76d1-446a-80bd-ac276faac3be"
          },
          {
            "reference": "urn:uuid:a937cd52-9a04-4d1c-ad31-a9d5c70c8a00"
          },
          {
            "reference": "urn:uuid:e483a8bb-b2ad-4cf5-98c3-85d22279fd73"
          },
          {
            "reference": "urn:uuid:ef1bc7ec-983e-4359-a1c6-ac1ec3ce7124"
          },
          {
            "reference": "urn:uuid:388a6b13-be09-4b40-bff3-f908ea222065"
          },
          {
            "reference": "urn:uuid:8323b7e4-d1db-455d-8674-ee430404ada8"
          },
          {
            "reference": "urn:uuid:2d97ecc6-d5ce-42c7-9165-680a7a912fac"
          },
          {
            "reference": "urn:uuid:30c2ba96-40e9-44e3-aafd-2ca9c2401870"
          },
          {
            "reference": "urn:uuid:611209f4-8c57-400c-aa40-fba9c68e8dc2"
          },
          {
            "reference": "urn:uuid:3209d9dc-e406-4358-87b6-9ab606713ba0"
          },
          {
            "reference": "urn:uuid:42153ba1-c3fe-4429-ad79-5676382c11ff"
          },
          {
            "reference": "urn:uuid:1a59cc26-039f-45fe-a715-6194caa6e770"
          },
          {
            "reference": "urn:uuid:195c1bc7-dd44-45f7-8262-4433c3a501e9"
          },
          {
            "reference": "urn:uuid:d0efe6f7-2783-46bd-ab82-f5f05a836e1e"
          },
          {
            "reference": "urn:uuid:5261064b-2c2b-4143-833b-1df9455c8ac9"
          },
          {
            "reference": "urn:uuid:6ce915da-9846-46cf-a4e2-2e8ea3588778"
          },
          {
            "reference": "urn:uuid:ff62f136-ea64-4ab8-9bad-124c1f4848f7"
          },
          {
            "reference": "urn:uuid:10137690-be80-4bec-9e53-697737fe2f06"
          },
          {
            "reference": "urn:uuid:2b7c9e43-4b96-4c0b-9fc8-af6fe5e38177"
          },
          {
            "reference": "urn:uuid:38474410-8960-4ab3-88ea-402c901ddbaa"
          },
          {
            "reference": "urn:uuid:f1a0d684-b4b9-462b-b2cb-24c9270829e3"
          },
          {
            "reference": "urn:uuid:ad05326b-62ff-404c-a1e3-54582c10f54a"
          },
          {
            "reference": "urn:uuid:0b37c8ad-a9a8-4d45-8c07-98308560d9d6"
          },
          {
            "reference": "urn:uuid:6bdccea1-ad1e-4626-a483-449784661770"
          },
          {
            "reference": "urn:uuid:ff32b232-c852-4443-9a75-21db5656b07c"
          },
          {
            "reference": "urn:uuid:9a039c5d-ad18-4194-80a3-dc4000d6132c"
          },
          {
            "reference": "urn:uuid:0e34b7fc-92be-4a2e-bcdf-ff59904f6fc1"
          },
          {
            "reference": "urn:uuid:7b9c0336-ac74-4324-b499-366eed42cc74"
          },
          {
            "reference": "urn:uuid:c64bf116-718e-4ab4-a3f9-4798f15c039c"
          },
          {
            "reference": "urn:uuid:2df7d104-8122-4cd7-a364-90dcaa181964"
          },
          {
            "reference": "urn:uuid:06dd295c-95f5-4320-8435-aadd798d7670"
          },
          {
            "reference": "urn:uuid:960289b2-1fde-43e6-a912-b55e9861cb54"
          },
          {
            "reference": "urn:uuid:71f6cd25-4a0c-4f62-bf66-4bd5577a8e81"
          },
          {
            "reference": "urn:uuid:efa4dc0e-b9f0-4a93-bbcb-e252266f1894"
          }
        ],
        "status": "registered",
        "code": {
          "coding": [
            {
              "code": "11502-2",
              "system": "http://loinc.org",
              "display": "Laboratory report"
            }
          ]
        },
        "subject": {
          "reference": "urn:uuid:cf670fca-dcc2-4a22-8a66-ffcce757674b",
          "display": "Maria Nohlmans"
        }
      }
    },
    {
      "fullUrl": "urn:uuid:cf670fca-dcc2-4a22-8a66-ffcce757674b",
      "resource": {
        "resourceType": "Patient",
        "id": "cf670fca-dcc2-4a22-8a66-ffcce757674b",
        "meta": {
          "security": [
            {
              "system": "http://terminology.hl7.org/CodeSystem/v3-ActReason",
              "code": "HTEST"
            },
            {
              "system": "http://terminology.hl7.org/CodeSystem/v3-ActReason",
              "code": "TRAIN"
            }
          ],
          "tag": [
            {
              "system": "https://synderai.net/fhir/CodeSystem/tags",
              "code": "synthetic",
              "display": "SYNDERAI Synthetic data"
            }
          ],
          "profile": [
            "http://hl7.eu/fhir/base/StructureDefinition/patient-eu-core"
          ]
        },
        "identifier": [
          {
            "type": {
              "coding": [
                {
                  "code": "PT",
                  "system": "http://terminology.hl7.org/CodeSystem/v2-0203"
                }
              ]
            },
            "system": "http://ec.europa.eu/identifier/eci",
            "value": "6886-506417-1"
          },
          {
            "type": {
              "coding": [
                {
                  "code": "MR",
                  "system": "http://terminology.hl7.org/CodeSystem/v2-0203"
                }
              ]
            },
            "system": "http://local.setting.eu/identifier",
            "value": "2cb21ed6-b617-b1f3-2290-589a710de5ee"
          }
        ],
        "name": [
          {
            "family": "Nohlmans"
          },
          {
            "given": [
              "Maria"
            ]
          },
          {
            "text": "Maria Nohlmans"
          }
        ],
        "address": [
          {
            "line": [
              "Alfons-Wulff-Weg 1"
            ],
            "use": "home",
            "type": "physical",
            "postalCode": "25813",
            "city": "Husum",
            "country": "Germany"
          }
        ],
        "telecom": [
          {
            "system": "phone",
            "value": "+49(0)1911 105501"
          }
        ],
        "extension": [
          {
            "url": "http://hl7.org/fhir/StructureDefinition/patient-nationality",
            "valueCodeableConcept": {
              "coding": [
                {
                  "code": "DE",
                  "system": "http://hl7.org/fhir/ValueSet/country"
                }
              ]
            }
          }
        ],
        "text": {
          "status": "generated",
          "div": "<div xmlns=\"http://www.w3.org/1999/xhtml\"><table class=\"hl7__ips\"><tr><td>Maria Nohlmans</td><td>female</td><td>11-Jun-1947</td></tr></table></div>"
        },
        "gender": "female",
        "birthDate": "1947-06-11"
      }
    },
    {
      "fullUrl": "urn:uuid:65a24698-a1fc-45b4-97f7-4c2bdbf022a0",
      "resource": {
        "resourceType": "ServiceRequest",
        "id": "65a24698-a1fc-45b4-97f7-4c2bdbf022a0",
        "meta": {
          "profile": [
            "http://hl7.eu/fhir/laboratory/StructureDefinition/ServiceRequest-eu-lab"
          ]
        },
        "identifier": [
          {
            "system": "http://example.org",
            "value": "a29f5304-e08b-4a77-ab2f-d8e275346c1b"
          }
        ],
        "specimen": [
          {
            "reference": "urn:uuid:75025c4b-bf43-454e-9e30-cf3c31faa3be"
          },
          {
            "reference": "urn:uuid:f7ee9f68-93f5-42e7-889c-9d3bafca4f00"
          },
          {
            "reference": "urn:uuid:0627e0e2-9b01-4dba-80ba-d18a50771a64"
          }
        ],
        "reasonCode": [
          {
            "coding": [
              {
                "code": "401314000",
                "system": "http://snomed.info/sct",
                "display": "Acute non-ST segment elevation myocardial infarction"
              }
            ]
          },
          {
            "coding": [
              {
                "code": "157141000119108",
                "system": "http://snomed.info/sct",
                "display": "Proteinuria due to type 2 diabetes mellitus"
              }
            ]
          },
          {
            "coding": [
              {
                "code": "237602007",
                "system": "http://snomed.info/sct",
                "display": "Metabolic syndrome X"
              }
            ]
          },
          {
            "coding": [
              {
                "code": "90781000119102",
                "system": "http://snomed.info/sct",
                "display": "Microalbuminuria due to type 2 diabetes mellitus"
              }
            ]
          },
          {
            "coding": [
              {
                "code": "127013003",
                "system": "http://snomed.info/sct",
                "display": "Disorder of kidney due to diabetes mellitus"
              }
            ]
          },
          {
            "coding": [
              {
                "code": "59621000",
                "system": "http://snomed.info/sct",
                "display": "Essential hypertension"
              }
            ]
          },
          {
            "coding": [
              {
                "code": "271737000",
                "system": "http://snomed.info/sct",
                "display": "Anemia"
              }
            ]
          },
          {
            "coding": [
              {
                "code": "15777000",
                "system": "http://snomed.info/sct",
                "display": "Prediabetes"
              }
            ]
          }
        ],
        "status": "active",
        "intent": "order",
        "code": {
          "coding": [
            {
              "code": "108252007",
              "system": "http://snomed.info/sct",
              "display": "Laboratory procedure"
            }
          ]
        },
        "subject": {
          "reference": "urn:uuid:cf670fca-dcc2-4a22-8a66-ffcce757674b",
          "display": "Maria Nohlmans"
        },
        "requester": {
          "reference": "urn:uuid:08ce755a-2103-405b-a478-0d087818bf72"
        }
      }
    },
    {
      "fullUrl": "urn:uuid:08ce755a-2103-405b-a478-0d087818bf72",
      "resource": {
        "resourceType": "PractitionerRole",
        "id": "08ce755a-2103-405b-a478-0d087818bf72",
        "meta": {
          "profile": [
            "http://hl7.eu/fhir/base/StructureDefinition/practitionerRole-eu"
          ]
        },
        "text": {
          "status": "generated",
          "div": "<div xmlns=\"http://www.w3.org/1999/xhtml\">Provider Role Id: 08ce755a-2103-405b-a478-0d087818bf72</div>"
        },
        "organization": {
          "reference": "urn:uuid:074678fe-a3f2-44bb-ae7c-ff1dc75735c9"
        }
      }
    },
    {
      "fullUrl": "urn:uuid:074678fe-a3f2-44bb-ae7c-ff1dc75735c9",
      "resource": {
        "resourceType": "Organization",
        "id": "074678fe-a3f2-44bb-ae7c-ff1dc75735c9",
        "meta": {
          "profile": [
            "http://hl7.eu/fhir/base/StructureDefinition/organization-eu"
          ]
        },
        "identifier": [
          {
            "assigner": {
              "display": "HL7 Europe"
            },
            "system": "urn:oid:2.16.840.1.113883.2.51.999",
            "value": "c813ccf0-b7f3-4390-a7d5-f456ec5eadb1"
          }
        ],
        "address": [
          {
            "line": [
              "Brinckmannstraße 35"
            ],
            "city": "Husum",
            "postalCode": "25813",
            "country": "Germany"
          }
        ],
        "text": {
          "status": "generated",
          "div": "<div xmlns=\"http://www.w3.org/1999/xhtml\">Provider Organization: Dr. Wolfram Hussels Kieferorthopäde</div>"
        },
        "name": "Dr. Wolfram Hussels Kieferorthopäde"
      }
    },
    {
      "fullUrl": "urn:uuid:75025c4b-bf43-454e-9e30-cf3c31faa3be",
      "resource": {
        "resourceType": "Specimen",
        "id": "75025c4b-bf43-454e-9e30-cf3c31faa3be",
        "meta": {
          "profile": [
            "http://hl7.eu/fhir/laboratory/StructureDefinition/Specimen-eu-lab"
          ]
        },
        "collection": {
          "collectedDateTime": "2016-04-13"
        },
        "text": {
          "status": "generated",
          "div": "<div xmlns=\"http://www.w3.org/1999/xhtml\"><table class=\"hl7__eu__lab__report\"><tr><th>Specimen</th><th>Collection Date</th></tr><tr><td>Acellular blood (serum or plasma) specimen</td><td><span class=\"nb\">13-Apr-2016</span></td></tr></table></div>"
        },
        "type": {
          "coding": [
            {
              "code": "122592007",
              "system": "http://snomed.info/sct",
              "display": "Acellular blood (serum or plasma) specimen"
            }
          ]
        }
      }
    },
    {
      "fullUrl": "urn:uuid:f7ee9f68-93f5-42e7-889c-9d3bafca4f00",
      "resource": {
        "resourceType": "Specimen",
        "id": "f7ee9f68-93f5-42e7-889c-9d3bafca4f00",
        "meta": {
          "profile": [
            "http://hl7.eu/fhir/laboratory/StructureDefinition/Specimen-eu-lab"
          ]
        },
        "collection": {
          "collectedDateTime": "2016-04-13"
        },
        "text": {
          "status": "generated",
          "div": "<div xmlns=\"http://www.w3.org/1999/xhtml\"><table class=\"hl7__eu__lab__report\"><tr><th>Specimen</th><th>Collection Date</th></tr><tr><td>Urine specimen</td><td><span class=\"nb\">13-Apr-2016</span></td></tr></table></div>"
        },
        "type": {
          "coding": [
            {
              "code": "122575003",
              "system": "http://snomed.info/sct",
              "display": "Urine specimen"
            }
          ]
        }
      }
    },
    {
      "fullUrl": "urn:uuid:0627e0e2-9b01-4dba-80ba-d18a50771a64",
      "resource": {
        "resourceType": "Specimen",
        "id": "0627e0e2-9b01-4dba-80ba-d18a50771a64",
        "meta": {
          "profile": [
            "http://hl7.eu/fhir/laboratory/StructureDefinition/Specimen-eu-lab"
          ]
        },
        "collection": {
          "collectedDateTime": "2016-04-13"
        },
        "text": {
          "status": "generated",
          "div": "<div xmlns=\"http://www.w3.org/1999/xhtml\"><table class=\"hl7__eu__lab__report\"><tr><th>Specimen</th><th>Collection Date</th></tr><tr><td>Whole blood specimen (specimen)</td><td><span class=\"nb\">13-Apr-2016</span></td></tr></table></div>"
        },
        "type": {
          "coding": [
            {
              "code": "258580003",
              "system": "http://snomed.info/sct",
              "display": "Whole blood specimen (specimen)"
            }
          ]
        }
      }
    },
    {
      "fullUrl": "urn:uuid:c2cc92c4-76d1-446a-80bd-ac276faac3be",
      "resource": {
        "resourceType": "Observation",
        "id": "c2cc92c4-76d1-446a-80bd-ac276faac3be",
        "meta": {
          "profile": [
            "http://hl7.eu/fhir/laboratory/StructureDefinition/Observation-resultslab-eu-lab"
          ]
        },
        "performer": [
          {
            "display": "The Central European Lab"
          }
        ],
        "category": [
          {
            "coding": [
              {
                "system": "http://terminology.hl7.org/CodeSystem/observation-category",
                "code": "laboratory"
              }
            ]
          }
        ],
        "code": {
          "coding": [
            {
              "code": "2345-7",
              "system": "http://loinc.org",
              "display": "Glucose [Mass/volume] in Serum or Plasma"
            }
          ],
          "text": "Glucose [Mass/volume] in Serum or Plasma"
        },
        "valueQuantity": {
          "system": "http://unitsofmeasure.org",
          "value": 98.6,
          "unit": "mg/dL",
          "code": "mg/dL"
        },
        "referenceRange": [
          {
            "low": {
              "value": 70,
              "code": "mg/dL",
              "system": "http://unitsofmeasure.org"
            }
          },
          {
            "high": {
              "value": 140,
              "code": "mg/dL",
              "system": "http://unitsofmeasure.org"
            }
          }
        ],
        "text": {
          "status": "generated",
          "div": "<div xmlns=\"http://www.w3.org/1999/xhtml\"><table class=\"hl7__eu__lab__report\"><tr><th>Test</th><th>13-Apr-2016</th><th>Reference&#xA0;Range</th><th>Unit</th></tr><tr><td>Glucose [Mass/volume] in Serum or Plasma</td><td>98.6</td><td>70 - 140</td><td></td><td>mg/dL</td></tr></table></div>"
        },
        "status": "final",
        "subject": {
          "reference": "urn:uuid:cf670fca-dcc2-4a22-8a66-ffcce757674b",
          "display": "Maria Nohlmans"
        },
        "effectiveDateTime": "2016-04-13T11:02:39Z",
        "specimen": {
          "reference": "urn:uuid:75025c4b-bf43-454e-9e30-cf3c31faa3be"
        }
      }
    },
    {
      "fullUrl": "urn:uuid:a937cd52-9a04-4d1c-ad31-a9d5c70c8a00",
      "resource": {
        "resourceType": "Observation",
        "id": "a937cd52-9a04-4d1c-ad31-a9d5c70c8a00",
        "meta": {
          "profile": [
            "http://hl7.eu/fhir/laboratory/StructureDefinition/Observation-resultslab-eu-lab"
          ]
        },
        "performer": [
          {
            "display": "The Central European Lab"
          }
        ],
        "category": [
          {
            "coding": [
              {
                "system": "http://terminology.hl7.org/CodeSystem/observation-category",
                "code": "laboratory"
              }
            ]
          }
        ],
        "code": {
          "coding": [
            {
              "code": "3094-0",
              "system": "http://loinc.org",
              "display": "Urea nitrogen [Mass/volume] in Serum or Plasma"
            }
          ],
          "text": "Urea nitrogen [Mass/volume] in Serum or Plasma"
        },
        "valueQuantity": {
          "system": "http://unitsofmeasure.org",
          "value": 7.7,
          "unit": "mg/dL",
          "code": "mg/dL"
        },
        "referenceRange": [
          {
            "low": {
              "value": 7,
              "code": "mg/dL",
              "system": "http://unitsofmeasure.org"
            }
          },
          {
            "high": {
              "value": 20,
              "code": "mg/dL",
              "system": "http://unitsofmeasure.org"
            }
          }
        ],
        "text": {
          "status": "generated",
          "div": "<div xmlns=\"http://www.w3.org/1999/xhtml\"><table class=\"hl7__eu__lab__report\"><tr><th>Test</th><th>13-Apr-2016</th><th>Reference&#xA0;Range</th><th>Unit</th></tr><tr><td>Urea nitrogen [Mass/volume] in Serum or Plasma</td><td>7.7</td><td>7 - 20</td><td></td><td>mg/dL</td></tr></table></div>"
        },
        "status": "final",
        "subject": {
          "reference": "urn:uuid:cf670fca-dcc2-4a22-8a66-ffcce757674b",
          "display": "Maria Nohlmans"
        },
        "effectiveDateTime": "2016-04-13T11:02:39Z",
        "specimen": {
          "reference": "urn:uuid:75025c4b-bf43-454e-9e30-cf3c31faa3be"
        }
      }
    },
    {
      "fullUrl": "urn:uuid:e483a8bb-b2ad-4cf5-98c3-85d22279fd73",
      "resource": {
        "resourceType": "Observation",
        "id": "e483a8bb-b2ad-4cf5-98c3-85d22279fd73",
        "meta": {
          "profile": [
            "http://hl7.eu/fhir/laboratory/StructureDefinition/Observation-resultslab-eu-lab"
          ]
        },
        "performer": [
          {
            "display": "The Central European Lab"
          }
        ],
        "category": [
          {
            "coding": [
              {
                "system": "http://terminology.hl7.org/CodeSystem/observation-category",
                "code": "laboratory"
              }
            ]
          }
        ],
        "code": {
          "coding": [
            {
              "code": "2160-0",
              "system": "http://loinc.org",
              "display": "Creatinine [Mass/volume] in Serum or Plasma"
            }
          ],
          "text": "Creatinine [Mass/volume] in Serum or Plasma"
        },
        "valueQuantity": {
          "system": "http://unitsofmeasure.org",
          "value": 2.5,
          "unit": "mg/dL",
          "code": "mg/dL"
        },
        "referenceRange": [
          {
            "low": {
              "value": 0.6,
              "code": "mg/dL",
              "system": "http://unitsofmeasure.org"
            }
          },
          {
            "high": {
              "value": 1.3,
              "code": "mg/dL",
              "system": "http://unitsofmeasure.org"
            }
          }
        ],
        "interpretation": [
          {
            "coding": [
              {
                "code": "H",
                "system": "http://terminology.hl7.org/CodeSystem/v3-ObservationInterpretation",
                "display": "High"
              }
            ]
          }
        ],
        "text": {
          "status": "generated",
          "div": "<div xmlns=\"http://www.w3.org/1999/xhtml\"><table class=\"hl7__eu__lab__report\"><tr><th>Test</th><th>13-Apr-2016</th><th>Reference&#xA0;Range</th><th>Unit</th></tr><tr><td>Creatinine [Mass/volume] in Serum or Plasma</td><td>2.5</td><td>0.6 - 1.3</td><td>H</td><td>mg/dL</td></tr></table></div>"
        },
        "status": "final",
        "subject": {
          "reference": "urn:uuid:cf670fca-dcc2-4a22-8a66-ffcce757674b",
          "display": "Maria Nohlmans"
        },
        "effectiveDateTime": "2016-04-13T11:02:39Z",
        "specimen": {
          "reference": "urn:uuid:75025c4b-bf43-454e-9e30-cf3c31faa3be"
        }
      }
    },
    {
      "fullUrl": "urn:uuid:ef1bc7ec-983e-4359-a1c6-ac1ec3ce7124",
      "resource": {
        "resourceType": "Observation",
        "id": "ef1bc7ec-983e-4359-a1c6-ac1ec3ce7124",
        "meta": {
          "profile": [
            "http://hl7.eu/fhir/laboratory/StructureDefinition/Observation-resultslab-eu-lab"
          ]
        },
        "performer": [
          {
            "display": "The Central European Lab"
          }
        ],
        "category": [
          {
            "coding": [
              {
                "system": "http://terminology.hl7.org/CodeSystem/observation-category",
                "code": "laboratory"
              }
            ]
          }
        ],
        "code": {
          "coding": [
            {
              "code": "17861-6",
              "system": "http://loinc.org",
              "display": "Calcium [Mass/volume] in Serum or Plasma"
            }
          ],
          "text": "Calcium [Mass/volume] in Serum or Plasma"
        },
        "valueQuantity": {
          "system": "http://unitsofmeasure.org",
          "value": 9.1,
          "unit": "mg/dL",
          "code": "mg/dL"
        },
        "referenceRange": [
          {
            "low": {
              "value": 8.6,
              "code": "mg/dL",
              "system": "http://unitsofmeasure.org"
            }
          },
          {
            "high": {
              "value": 10.4,
              "code": "mg/dL",
              "system": "http://unitsofmeasure.org"
            }
          }
        ],
        "text": {
          "status": "generated",
          "div": "<div xmlns=\"http://www.w3.org/1999/xhtml\"><table class=\"hl7__eu__lab__report\"><tr><th>Test</th><th>13-Apr-2016</th><th>Reference&#xA0;Range</th><th>Unit</th></tr><tr><td>Calcium [Mass/volume] in Serum or Plasma</td><td>9.1</td><td>8.6 - 10.4</td><td></td><td>mg/dL</td></tr></table></div>"
        },
        "status": "final",
        "subject": {
          "reference": "urn:uuid:cf670fca-dcc2-4a22-8a66-ffcce757674b",
          "display": "Maria Nohlmans"
        },
        "effectiveDateTime": "2016-04-13T11:02:39Z",
        "specimen": {
          "reference": "urn:uuid:75025c4b-bf43-454e-9e30-cf3c31faa3be"
        }
      }
    },
    {
      "fullUrl": "urn:uuid:388a6b13-be09-4b40-bff3-f908ea222065",
      "resource": {
        "resourceType": "Observation",
        "id": "388a6b13-be09-4b40-bff3-f908ea222065",
        "meta": {
          "profile": [
            "http://hl7.eu/fhir/laboratory/StructureDefinition/Observation-resultslab-eu-lab"
          ]
        },
        "performer": [
          {
            "display": "The Central European Lab"
          }
        ],
        "category": [
          {
            "coding": [
              {
                "system": "http://terminology.hl7.org/CodeSystem/observation-category",
                "code": "laboratory"
              }
            ]
          }
        ],
        "code": {
          "coding": [
            {
              "code": "2951-2",
              "system": "http://loinc.org",
              "display": "Sodium [Moles/volume] in Serum or Plasma"
            }
          ],
          "text": "Sodium [Moles/volume] in Serum or Plasma"
        },
        "valueQuantity": {
          "system": "http://unitsofmeasure.org",
          "value": 136.5,
          "unit": "mmol/L",
          "code": "mmol/L"
        },
        "referenceRange": [
          {
            "low": {
              "value": 135,
              "code": "mmol/L",
              "system": "http://unitsofmeasure.org"
            }
          },
          {
            "high": {
              "value": 145,
              "code": "mmol/L",
              "system": "http://unitsofmeasure.org"
            }
          }
        ],
        "text": {
          "status": "generated",
          "div": "<div xmlns=\"http://www.w3.org/1999/xhtml\"><table class=\"hl7__eu__lab__report\"><tr><th>Test</th><th>13-Apr-2016</th><th>Reference&#xA0;Range</th><th>Unit</th></tr><tr><td>Sodium [Moles/volume] in Serum or Plasma</td><td>136.5</td><td>135 - 145</td><td></td><td>mmol/L</td></tr></table></div>"
        },
        "status": "final",
        "subject": {
          "reference": "urn:uuid:cf670fca-dcc2-4a22-8a66-ffcce757674b",
          "display": "Maria Nohlmans"
        },
        "effectiveDateTime": "2016-04-13T11:02:39Z",
        "specimen": {
          "reference": "urn:uuid:75025c4b-bf43-454e-9e30-cf3c31faa3be"
        }
      }
    },
    {
      "fullUrl": "urn:uuid:8323b7e4-d1db-455d-8674-ee430404ada8",
      "resource": {
        "resourceType": "Observation",
        "id": "8323b7e4-d1db-455d-8674-ee430404ada8",
        "meta": {
          "profile": [
            "http://hl7.eu/fhir/laboratory/StructureDefinition/Observation-resultslab-eu-lab"
          ]
        },
        "performer": [
          {
            "display": "The Central European Lab"
          }
        ],
        "category": [
          {
            "coding": [
              {
                "system": "http://terminology.hl7.org/CodeSystem/observation-category",
                "code": "laboratory"
              }
            ]
          }
        ],
        "code": {
          "coding": [
            {
              "code": "2823-3",
              "system": "http://loinc.org",
              "display": "Potassium [Moles/volume] in Serum or Plasma"
            }
          ],
          "text": "Potassium [Moles/volume] in Serum or Plasma"
        },
        "valueQuantity": {
          "system": "http://unitsofmeasure.org",
          "value": 4.7,
          "unit": "mmol/L",
          "code": "mmol/L"
        },
        "referenceRange": [
          {
            "low": {
              "value": 3.5,
              "code": "mmol/L",
              "system": "http://unitsofmeasure.org"
            }
          },
          {
            "high": {
              "value": 5.1,
              "code": "mmol/L",
              "system": "http://unitsofmeasure.org"
            }
          }
        ],
        "text": {
          "status": "generated",
          "div": "<div xmlns=\"http://www.w3.org/1999/xhtml\"><table class=\"hl7__eu__lab__report\"><tr><th>Test</th><th>13-Apr-2016</th><th>Reference&#xA0;Range</th><th>Unit</th></tr><tr><td>Potassium [Moles/volume] in Serum or Plasma</td><td>4.7</td><td>3.5 - 5.1</td><td></td><td>mmol/L</td></tr></table></div>"
        },
        "status": "final",
        "subject": {
          "reference": "urn:uuid:cf670fca-dcc2-4a22-8a66-ffcce757674b",
          "display": "Maria Nohlmans"
        },
        "effectiveDateTime": "2016-04-13T11:02:39Z",
        "specimen": {
          "reference": "urn:uuid:75025c4b-bf43-454e-9e30-cf3c31faa3be"
        }
      }
    },
    {
      "fullUrl": "urn:uuid:2d97ecc6-d5ce-42c7-9165-680a7a912fac",
      "resource": {
        "resourceType": "Observation",
        "id": "2d97ecc6-d5ce-42c7-9165-680a7a912fac",
        "meta": {
          "profile": [
            "http://hl7.eu/fhir/laboratory/StructureDefinition/Observation-resultslab-eu-lab"
          ]
        },
        "performer": [
          {
            "display": "The Central European Lab"
          }
        ],
        "category": [
          {
            "coding": [
              {
                "system": "http://terminology.hl7.org/CodeSystem/observation-category",
                "code": "laboratory"
              }
            ]
          }
        ],
        "code": {
          "coding": [
            {
              "code": "2075-0",
              "system": "http://loinc.org",
              "display": "Chloride [Moles/volume] in Serum or Plasma"
            }
          ],
          "text": "Chloride [Moles/volume] in Serum or Plasma"
        },
        "valueQuantity": {
          "system": "http://unitsofmeasure.org",
          "value": 109.2,
          "unit": "mmol/L",
          "code": "mmol/L"
        },
        "referenceRange": [
          {
            "low": {
              "value": 98,
              "code": "mmol/L",
              "system": "http://unitsofmeasure.org"
            }
          },
          {
            "high": {
              "value": 108,
              "code": "mmol/L",
              "system": "http://unitsofmeasure.org"
            }
          }
        ],
        "interpretation": [
          {
            "coding": [
              {
                "code": "H",
                "system": "http://terminology.hl7.org/CodeSystem/v3-ObservationInterpretation",
                "display": "High"
              }
            ]
          }
        ],
        "text": {
          "status": "generated",
          "div": "<div xmlns=\"http://www.w3.org/1999/xhtml\"><table class=\"hl7__eu__lab__report\"><tr><th>Test</th><th>13-Apr-2016</th><th>Reference&#xA0;Range</th><th>Unit</th></tr><tr><td>Chloride [Moles/volume] in Serum or Plasma</td><td>109.2</td><td>98 - 108</td><td>H</td><td>mmol/L</td></tr></table></div>"
        },
        "status": "final",
        "subject": {
          "reference": "urn:uuid:cf670fca-dcc2-4a22-8a66-ffcce757674b",
          "display": "Maria Nohlmans"
        },
        "effectiveDateTime": "2016-04-13T11:02:39Z",
        "specimen": {
          "reference": "urn:uuid:75025c4b-bf43-454e-9e30-cf3c31faa3be"
        }
      }
    },
    {
      "fullUrl": "urn:uuid:30c2ba96-40e9-44e3-aafd-2ca9c2401870",
      "resource": {
        "resourceType": "Observation",
        "id": "30c2ba96-40e9-44e3-aafd-2ca9c2401870",
        "meta": {
          "profile": [
            "http://hl7.eu/fhir/laboratory/StructureDefinition/Observation-resultslab-eu-lab"
          ]
        },
        "performer": [
          {
            "display": "The Central European Lab"
          }
        ],
        "category": [
          {
            "coding": [
              {
                "system": "http://terminology.hl7.org/CodeSystem/observation-category",
                "code": "laboratory"
              }
            ]
          }
        ],
        "code": {
          "coding": [
            {
              "code": "2028-9",
              "system": "http://loinc.org",
              "display": "Carbon dioxide, total [Moles/volume] in Serum or Plasma"
            }
          ],
          "text": "Carbon dioxide, total [Moles/volume] in Serum or Plasma"
        },
        "valueQuantity": {
          "system": "http://unitsofmeasure.org",
          "value": 21,
          "unit": "mmol/L",
          "code": "mmol/L"
        },
        "referenceRange": [
          {
            "low": {
              "value": 22,
              "code": "mmol/L",
              "system": "http://unitsofmeasure.org"
            }
          },
          {
            "high": {
              "value": 32,
              "code": "mmol/L",
              "system": "http://unitsofmeasure.org"
            }
          }
        ],
        "interpretation": [
          {
            "coding": [
              {
                "code": "L",
                "system": "http://terminology.hl7.org/CodeSystem/v3-ObservationInterpretation",
                "display": "Low"
              }
            ]
          }
        ],
        "text": {
          "status": "generated",
          "div": "<div xmlns=\"http://www.w3.org/1999/xhtml\"><table class=\"hl7__eu__lab__report\"><tr><th>Test</th><th>13-Apr-2016</th><th>Reference&#xA0;Range</th><th>Unit</th></tr><tr><td>Carbon dioxide, total [Moles/volume] in Serum or Plasma</td><td>21.0</td><td>22 - 32</td><td>L</td><td>mmol/L</td></tr></table></div>"
        },
        "status": "final",
        "subject": {
          "reference": "urn:uuid:cf670fca-dcc2-4a22-8a66-ffcce757674b",
          "display": "Maria Nohlmans"
        },
        "effectiveDateTime": "2016-04-13T11:02:39Z",
        "specimen": {
          "reference": "urn:uuid:75025c4b-bf43-454e-9e30-cf3c31faa3be"
        }
      }
    },
    {
      "fullUrl": "urn:uuid:611209f4-8c57-400c-aa40-fba9c68e8dc2",
      "resource": {
        "resourceType": "Observation",
        "id": "611209f4-8c57-400c-aa40-fba9c68e8dc2",
        "meta": {
          "profile": [
            "http://hl7.eu/fhir/laboratory/StructureDefinition/Observation-resultslab-eu-lab"
          ]
        },
        "performer": [
          {
            "display": "The Central European Lab"
          }
        ],
        "category": [
          {
            "coding": [
              {
                "system": "http://terminology.hl7.org/CodeSystem/observation-category",
                "code": "laboratory"
              }
            ]
          }
        ],
        "code": {
          "coding": [
            {
              "code": "5767-9",
              "system": "http://loinc.org",
              "display": "Appearance of Urine"
            }
          ],
          "text": "Appearance of Urine"
        },
        "text": {
          "status": "generated",
          "div": "<div xmlns=\"http://www.w3.org/1999/xhtml\"><table class=\"hl7__eu__lab__report\"><tr><th>Test</th><th>13-Apr-2016</th><th>Reference&#xA0;Range</th><th>Unit</th></tr><tr><td>Appearance of Urine</td></tr></table></div>"
        },
        "status": "final",
        "subject": {
          "reference": "urn:uuid:cf670fca-dcc2-4a22-8a66-ffcce757674b",
          "display": "Maria Nohlmans"
        },
        "effectiveDateTime": "2016-04-13T11:02:39Z",
        "specimen": {
          "reference": "urn:uuid:f7ee9f68-93f5-42e7-889c-9d3bafca4f00"
        }
      }
    },
    {
      "fullUrl": "urn:uuid:3209d9dc-e406-4358-87b6-9ab606713ba0",
      "resource": {
        "resourceType": "Observation",
        "id": "3209d9dc-e406-4358-87b6-9ab606713ba0",
        "meta": {
          "profile": [
            "http://hl7.eu/fhir/laboratory/StructureDefinition/Observation-resultslab-eu-lab"
          ]
        },
        "performer": [
          {
            "display": "The Central European Lab"
          }
        ],
        "category": [
          {
            "coding": [
              {
                "system": "http://terminology.hl7.org/CodeSystem/observation-category",
                "code": "laboratory"
              }
            ]
          }
        ],
        "code": {
          "coding": [
            {
              "code": "34533-0",
              "system": "http://loinc.org",
              "display": "Odor of Urine"
            }
          ],
          "text": "Odor of Urine"
        },
        "text": {
          "status": "generated",
          "div": "<div xmlns=\"http://www.w3.org/1999/xhtml\"><table class=\"hl7__eu__lab__report\"><tr><th>Test</th><th>13-Apr-2016</th><th>Reference&#xA0;Range</th><th>Unit</th></tr><tr><td>Odor of Urine</td></tr></table></div>"
        },
        "status": "final",
        "subject": {
          "reference": "urn:uuid:cf670fca-dcc2-4a22-8a66-ffcce757674b",
          "display": "Maria Nohlmans"
        },
        "effectiveDateTime": "2016-04-13T11:02:39Z",
        "specimen": {
          "reference": "urn:uuid:f7ee9f68-93f5-42e7-889c-9d3bafca4f00"
        }
      }
    },
    {
      "fullUrl": "urn:uuid:42153ba1-c3fe-4429-ad79-5676382c11ff",
      "resource": {
        "resourceType": "Observation",
        "id": "42153ba1-c3fe-4429-ad79-5676382c11ff",
        "meta": {
          "profile": [
            "http://hl7.eu/fhir/laboratory/StructureDefinition/Observation-resultslab-eu-lab"
          ]
        },
        "performer": [
          {
            "display": "The Central European Lab"
          }
        ],
        "category": [
          {
            "coding": [
              {
                "system": "http://terminology.hl7.org/CodeSystem/observation-category",
                "code": "laboratory"
              }
            ]
          }
        ],
        "code": {
          "coding": [
            {
              "code": "32167-9",
              "system": "http://loinc.org",
              "display": "Clarity of Urine"
            }
          ],
          "text": "Clarity of Urine"
        },
        "text": {
          "status": "generated",
          "div": "<div xmlns=\"http://www.w3.org/1999/xhtml\"><table class=\"hl7__eu__lab__report\"><tr><th>Test</th><th>13-Apr-2016</th><th>Reference&#xA0;Range</th><th>Unit</th></tr><tr><td>Clarity of Urine</td></tr></table></div>"
        },
        "status": "final",
        "subject": {
          "reference": "urn:uuid:cf670fca-dcc2-4a22-8a66-ffcce757674b",
          "display": "Maria Nohlmans"
        },
        "effectiveDateTime": "2016-04-13T11:02:39Z",
        "specimen": {
          "reference": "urn:uuid:f7ee9f68-93f5-42e7-889c-9d3bafca4f00"
        }
      }
    },
    {
      "fullUrl": "urn:uuid:1a59cc26-039f-45fe-a715-6194caa6e770",
      "resource": {
        "resourceType": "Observation",
        "id": "1a59cc26-039f-45fe-a715-6194caa6e770",
        "meta": {
          "profile": [
            "http://hl7.eu/fhir/laboratory/StructureDefinition/Observation-resultslab-eu-lab"
          ]
        },
        "performer": [
          {
            "display": "The Central European Lab"
          }
        ],
        "category": [
          {
            "coding": [
              {
                "system": "http://terminology.hl7.org/CodeSystem/observation-category",
                "code": "laboratory"
              }
            ]
          }
        ],
        "code": {
          "coding": [
            {
              "code": "5778-6",
              "system": "http://loinc.org",
              "display": "Color of Urine"
            }
          ],
          "text": "Color of Urine"
        },
        "text": {
          "status": "generated",
          "div": "<div xmlns=\"http://www.w3.org/1999/xhtml\"><table class=\"hl7__eu__lab__report\"><tr><th>Test</th><th>13-Apr-2016</th><th>Reference&#xA0;Range</th><th>Unit</th></tr><tr><td>Color of Urine</td></tr></table></div>"
        },
        "status": "final",
        "subject": {
          "reference": "urn:uuid:cf670fca-dcc2-4a22-8a66-ffcce757674b",
          "display": "Maria Nohlmans"
        },
        "effectiveDateTime": "2016-04-13T11:02:39Z",
        "specimen": {
          "reference": "urn:uuid:f7ee9f68-93f5-42e7-889c-9d3bafca4f00"
        }
      }
    },
    {
      "fullUrl": "urn:uuid:195c1bc7-dd44-45f7-8262-4433c3a501e9",
      "resource": {
        "resourceType": "Observation",
        "id": "195c1bc7-dd44-45f7-8262-4433c3a501e9",
        "meta": {
          "profile": [
            "http://hl7.eu/fhir/laboratory/StructureDefinition/Observation-resultslab-eu-lab"
          ]
        },
        "performer": [
          {
            "display": "The Central European Lab"
          }
        ],
        "category": [
          {
            "coding": [
              {
                "system": "http://terminology.hl7.org/CodeSystem/observation-category",
                "code": "laboratory"
              }
            ]
          }
        ],
        "code": {
          "coding": [
            {
              "code": "5792-7",
              "system": "http://loinc.org",
              "display": "Glucose [Mass/volume] in Urine by Test strip"
            }
          ],
          "text": "Glucose [Mass/volume] in Urine by Test strip"
        },
        "valueQuantity": {
          "system": "http://unitsofmeasure.org",
          "value": 2.1,
          "unit": "mg/dL",
          "code": "mg/dL"
        },
        "referenceRange": [
          {
            "low": {
              "value": 0.8,
              "code": "mg/dL",
              "system": "http://unitsofmeasure.org"
            }
          },
          {
            "high": {
              "value": 0,
              "code": "mg/dL",
              "system": "http://unitsofmeasure.org"
            }
          }
        ],
        "interpretation": [
          {
            "coding": [
              {
                "code": "H",
                "system": "http://terminology.hl7.org/CodeSystem/v3-ObservationInterpretation",
                "display": "High"
              }
            ]
          }
        ],
        "text": {
          "status": "generated",
          "div": "<div xmlns=\"http://www.w3.org/1999/xhtml\"><table class=\"hl7__eu__lab__report\"><tr><th>Test</th><th>13-Apr-2016</th><th>Reference&#xA0;Range</th><th>Unit</th></tr><tr><td>Glucose [Mass/volume] in Urine by Test strip</td><td>2.1</td><td>0.8 - 0</td><td>H</td><td>mg/dL</td></tr></table></div>"
        },
        "status": "final",
        "subject": {
          "reference": "urn:uuid:cf670fca-dcc2-4a22-8a66-ffcce757674b",
          "display": "Maria Nohlmans"
        },
        "effectiveDateTime": "2016-04-13T11:02:39Z",
        "specimen": {
          "reference": "urn:uuid:f7ee9f68-93f5-42e7-889c-9d3bafca4f00"
        }
      }
    },
    {
      "fullUrl": "urn:uuid:d0efe6f7-2783-46bd-ab82-f5f05a836e1e",
      "resource": {
        "resourceType": "Observation",
        "id": "d0efe6f7-2783-46bd-ab82-f5f05a836e1e",
        "meta": {
          "profile": [
            "http://hl7.eu/fhir/laboratory/StructureDefinition/Observation-resultslab-eu-lab"
          ]
        },
        "performer": [
          {
            "display": "The Central European Lab"
          }
        ],
        "category": [
          {
            "coding": [
              {
                "system": "http://terminology.hl7.org/CodeSystem/observation-category",
                "code": "laboratory"
              }
            ]
          }
        ],
        "code": {
          "coding": [
            {
              "code": "25428-4",
              "system": "http://loinc.org",
              "display": "Glucose [Presence] in Urine by Test strip"
            }
          ],
          "text": "Glucose [Presence] in Urine by Test strip"
        },
        "text": {
          "status": "generated",
          "div": "<div xmlns=\"http://www.w3.org/1999/xhtml\"><table class=\"hl7__eu__lab__report\"><tr><th>Test</th><th>13-Apr-2016</th><th>Reference&#xA0;Range</th><th>Unit</th></tr><tr><td>Glucose [Presence] in Urine by Test strip</td></tr></table></div>"
        },
        "status": "final",
        "subject": {
          "reference": "urn:uuid:cf670fca-dcc2-4a22-8a66-ffcce757674b",
          "display": "Maria Nohlmans"
        },
        "effectiveDateTime": "2016-04-13T11:02:39Z",
        "specimen": {
          "reference": "urn:uuid:f7ee9f68-93f5-42e7-889c-9d3bafca4f00"
        }
      }
    },
    {
      "fullUrl": "urn:uuid:5261064b-2c2b-4143-833b-1df9455c8ac9",
      "resource": {
        "resourceType": "Observation",
        "id": "5261064b-2c2b-4143-833b-1df9455c8ac9",
        "meta": {
          "profile": [
            "http://hl7.eu/fhir/laboratory/StructureDefinition/Observation-resultslab-eu-lab"
          ]
        },
        "performer": [
          {
            "display": "The Central European Lab"
          }
        ],
        "category": [
          {
            "coding": [
              {
                "system": "http://terminology.hl7.org/CodeSystem/observation-category",
                "code": "laboratory"
              }
            ]
          }
        ],
        "code": {
          "coding": [
            {
              "code": "20505-4",
              "system": "http://loinc.org",
              "display": "Bilirubin.total [Mass/volume] in Urine by Test strip"
            }
          ],
          "text": "Bilirubin.total [Mass/volume] in Urine by Test strip"
        },
        "valueQuantity": {
          "system": "http://unitsofmeasure.org",
          "value": 0.3,
          "unit": "mg/dL",
          "code": "mg/dL"
        },
        "referenceRange": [
          {
            "low": {
              "value": 0,
              "code": "mg/dL",
              "system": "http://unitsofmeasure.org"
            }
          },
          {
            "high": {
              "value": 1.5,
              "code": "mg/dL",
              "system": "http://unitsofmeasure.org"
            }
          }
        ],
        "text": {
          "status": "generated",
          "div": "<div xmlns=\"http://www.w3.org/1999/xhtml\"><table class=\"hl7__eu__lab__report\"><tr><th>Test</th><th>13-Apr-2016</th><th>Reference&#xA0;Range</th><th>Unit</th></tr><tr><td>Bilirubin.total [Mass/volume] in Urine by Test strip</td><td>0.3</td><td>0 - 1.5</td><td></td><td>mg/dL</td></tr></table></div>"
        },
        "status": "final",
        "subject": {
          "reference": "urn:uuid:cf670fca-dcc2-4a22-8a66-ffcce757674b",
          "display": "Maria Nohlmans"
        },
        "effectiveDateTime": "2016-04-13T11:02:39Z",
        "specimen": {
          "reference": "urn:uuid:f7ee9f68-93f5-42e7-889c-9d3bafca4f00"
        }
      }
    },
    {
      "fullUrl": "urn:uuid:6ce915da-9846-46cf-a4e2-2e8ea3588778",
      "resource": {
        "resourceType": "Observation",
        "id": "6ce915da-9846-46cf-a4e2-2e8ea3588778",
        "meta": {
          "profile": [
            "http://hl7.eu/fhir/laboratory/StructureDefinition/Observation-resultslab-eu-lab"
          ]
        },
        "performer": [
          {
            "display": "The Central European Lab"
          }
        ],
        "category": [
          {
            "coding": [
              {
                "system": "http://terminology.hl7.org/CodeSystem/observation-category",
                "code": "laboratory"
              }
            ]
          }
        ],
        "code": {
          "coding": [
            {
              "code": "5770-3",
              "system": "http://loinc.org",
              "display": "Bilirubin.total [Presence] in Urine by Test strip"
            }
          ],
          "text": "Bilirubin.total [Presence] in Urine by Test strip"
        },
        "text": {
          "status": "generated",
          "div": "<div xmlns=\"http://www.w3.org/1999/xhtml\"><table class=\"hl7__eu__lab__report\"><tr><th>Test</th><th>13-Apr-2016</th><th>Reference&#xA0;Range</th><th>Unit</th></tr><tr><td>Bilirubin.total [Presence] in Urine by Test strip</td></tr></table></div>"
        },
        "status": "final",
        "subject": {
          "reference": "urn:uuid:cf670fca-dcc2-4a22-8a66-ffcce757674b",
          "display": "Maria Nohlmans"
        },
        "effectiveDateTime": "2016-04-13T11:02:39Z",
        "specimen": {
          "reference": "urn:uuid:f7ee9f68-93f5-42e7-889c-9d3bafca4f00"
        }
      }
    },
    {
      "fullUrl": "urn:uuid:ff62f136-ea64-4ab8-9bad-124c1f4848f7",
      "resource": {
        "resourceType": "Observation",
        "id": "ff62f136-ea64-4ab8-9bad-124c1f4848f7",
        "meta": {
          "profile": [
            "http://hl7.eu/fhir/laboratory/StructureDefinition/Observation-resultslab-eu-lab"
          ]
        },
        "performer": [
          {
            "display": "The Central European Lab"
          }
        ],
        "category": [
          {
            "coding": [
              {
                "system": "http://terminology.hl7.org/CodeSystem/observation-category",
                "code": "laboratory"
              }
            ]
          }
        ],
        "code": {
          "coding": [
            {
              "code": "5797-6",
              "system": "http://loinc.org",
              "display": "Ketones [Mass/volume] in Urine by Test strip"
            }
          ],
          "text": "Ketones [Mass/volume] in Urine by Test strip"
        },
        "valueQuantity": {
          "system": "http://unitsofmeasure.org",
          "value": 11.8,
          "unit": "mg/dL",
          "code": "mg/dL"
        },
        "referenceRange": [
          {
            "low": {
              "value": 0,
              "code": "mg/dL",
              "system": "http://unitsofmeasure.org"
            }
          },
          {
            "high": {
              "value": 8,
              "code": "mg/dL",
              "system": "http://unitsofmeasure.org"
            }
          }
        ],
        "interpretation": [
          {
            "coding": [
              {
                "code": "H",
                "system": "http://terminology.hl7.org/CodeSystem/v3-ObservationInterpretation",
                "display": "High"
              }
            ]
          }
        ],
        "text": {
          "status": "generated",
          "div": "<div xmlns=\"http://www.w3.org/1999/xhtml\"><table class=\"hl7__eu__lab__report\"><tr><th>Test</th><th>13-Apr-2016</th><th>Reference&#xA0;Range</th><th>Unit</th></tr><tr><td>Ketones [Mass/volume] in Urine by Test strip</td><td>11.8</td><td>0 - 8</td><td>H</td><td>mg/dL</td></tr></table></div>"
        },
        "status": "final",
        "subject": {
          "reference": "urn:uuid:cf670fca-dcc2-4a22-8a66-ffcce757674b",
          "display": "Maria Nohlmans"
        },
        "effectiveDateTime": "2016-04-13T11:02:39Z",
        "specimen": {
          "reference": "urn:uuid:f7ee9f68-93f5-42e7-889c-9d3bafca4f00"
        }
      }
    },
    {
      "fullUrl": "urn:uuid:10137690-be80-4bec-9e53-697737fe2f06",
      "resource": {
        "resourceType": "Observation",
        "id": "10137690-be80-4bec-9e53-697737fe2f06",
        "meta": {
          "profile": [
            "http://hl7.eu/fhir/laboratory/StructureDefinition/Observation-resultslab-eu-lab"
          ]
        },
        "performer": [
          {
            "display": "The Central European Lab"
          }
        ],
        "category": [
          {
            "coding": [
              {
                "system": "http://terminology.hl7.org/CodeSystem/observation-category",
                "code": "laboratory"
              }
            ]
          }
        ],
        "code": {
          "coding": [
            {
              "code": "2514-8",
              "system": "http://loinc.org",
              "display": "Ketones [Presence] in Urine by Test strip"
            }
          ],
          "text": "Ketones [Presence] in Urine by Test strip"
        },
        "text": {
          "status": "generated",
          "div": "<div xmlns=\"http://www.w3.org/1999/xhtml\"><table class=\"hl7__eu__lab__report\"><tr><th>Test</th><th>13-Apr-2016</th><th>Reference&#xA0;Range</th><th>Unit</th></tr><tr><td>Ketones [Presence] in Urine by Test strip</td></tr></table></div>"
        },
        "status": "final",
        "subject": {
          "reference": "urn:uuid:cf670fca-dcc2-4a22-8a66-ffcce757674b",
          "display": "Maria Nohlmans"
        },
        "effectiveDateTime": "2016-04-13T11:02:39Z",
        "specimen": {
          "reference": "urn:uuid:f7ee9f68-93f5-42e7-889c-9d3bafca4f00"
        }
      }
    },
    {
      "fullUrl": "urn:uuid:2b7c9e43-4b96-4c0b-9fc8-af6fe5e38177",
      "resource": {
        "resourceType": "Observation",
        "id": "2b7c9e43-4b96-4c0b-9fc8-af6fe5e38177",
        "meta": {
          "profile": [
            "http://hl7.eu/fhir/laboratory/StructureDefinition/Observation-resultslab-eu-lab"
          ]
        },
        "performer": [
          {
            "display": "The Central European Lab"
          }
        ],
        "category": [
          {
            "coding": [
              {
                "system": "http://terminology.hl7.org/CodeSystem/observation-category",
                "code": "laboratory"
              }
            ]
          }
        ],
        "code": {
          "coding": [
            {
              "code": "5811-5",
              "system": "http://loinc.org",
              "display": "Specific gravity of Urine by Test strip"
            }
          ],
          "text": "Specific gravity of Urine by Test strip"
        },
        "valueQuantity": {
          "system": "http://unitsofmeasure.org",
          "value": 1,
          "unit": "{nominal}",
          "code": "{nominal}"
        },
        "referenceRange": [
          {
            "low": {
              "value": 1.01,
              "code": "g/mL",
              "system": "http://unitsofmeasure.org"
            }
          },
          {
            "high": {
              "value": 1.03,
              "code": "g/mL",
              "system": "http://unitsofmeasure.org"
            }
          }
        ],
        "interpretation": [
          {
            "coding": [
              {
                "code": "L",
                "system": "http://terminology.hl7.org/CodeSystem/v3-ObservationInterpretation",
                "display": "Low"
              }
            ]
          }
        ],
        "text": {
          "status": "generated",
          "div": "<div xmlns=\"http://www.w3.org/1999/xhtml\"><table class=\"hl7__eu__lab__report\"><tr><th>Test</th><th>13-Apr-2016</th><th>Reference&#xA0;Range</th><th>Unit</th></tr><tr><td>Specific gravity of Urine by Test strip</td><td>1.0</td><td>1.01 - 1.03</td><td>L</td><td>{nominal}</td></tr></table></div>"
        },
        "status": "final",
        "subject": {
          "reference": "urn:uuid:cf670fca-dcc2-4a22-8a66-ffcce757674b",
          "display": "Maria Nohlmans"
        },
        "effectiveDateTime": "2016-04-13T11:02:39Z",
        "specimen": {
          "reference": "urn:uuid:f7ee9f68-93f5-42e7-889c-9d3bafca4f00"
        }
      }
    },
    {
      "fullUrl": "urn:uuid:38474410-8960-4ab3-88ea-402c901ddbaa",
      "resource": {
        "resourceType": "Observation",
        "id": "38474410-8960-4ab3-88ea-402c901ddbaa",
        "meta": {
          "profile": [
            "http://hl7.eu/fhir/laboratory/StructureDefinition/Observation-resultslab-eu-lab"
          ]
        },
        "performer": [
          {
            "display": "The Central European Lab"
          }
        ],
        "category": [
          {
            "coding": [
              {
                "system": "http://terminology.hl7.org/CodeSystem/observation-category",
                "code": "laboratory"
              }
            ]
          }
        ],
        "code": {
          "coding": [
            {
              "code": "5803-2",
              "system": "http://loinc.org",
              "display": "pH of Urine by Test strip"
            }
          ],
          "text": "pH of Urine by Test strip"
        },
        "valueQuantity": {
          "system": "http://unitsofmeasure.org",
          "value": 5.7,
          "unit": "pH",
          "code": "pH"
        },
        "referenceRange": [
          {
            "low": {
              "value": 4.6,
              "code": "pH",
              "system": "http://unitsofmeasure.org"
            }
          },
          {
            "high": {
              "value": 7.5,
              "code": "pH",
              "system": "http://unitsofmeasure.org"
            }
          }
        ],
        "text": {
          "status": "generated",
          "div": "<div xmlns=\"http://www.w3.org/1999/xhtml\"><table class=\"hl7__eu__lab__report\"><tr><th>Test</th><th>13-Apr-2016</th><th>Reference&#xA0;Range</th><th>Unit</th></tr><tr><td>pH of Urine by Test strip</td><td>5.7</td><td>4.6 - 7.5</td><td></td><td>pH</td></tr></table></div>"
        },
        "status": "final",
        "subject": {
          "reference": "urn:uuid:cf670fca-dcc2-4a22-8a66-ffcce757674b",
          "display": "Maria Nohlmans"
        },
        "effectiveDateTime": "2016-04-13T11:02:39Z",
        "specimen": {
          "reference": "urn:uuid:f7ee9f68-93f5-42e7-889c-9d3bafca4f00"
        }
      }
    },
    {
      "fullUrl": "urn:uuid:f1a0d684-b4b9-462b-b2cb-24c9270829e3",
      "resource": {
        "resourceType": "Observation",
        "id": "f1a0d684-b4b9-462b-b2cb-24c9270829e3",
        "meta": {
          "profile": [
            "http://hl7.eu/fhir/laboratory/StructureDefinition/Observation-resultslab-eu-lab"
          ]
        },
        "performer": [
          {
            "display": "The Central European Lab"
          }
        ],
        "category": [
          {
            "coding": [
              {
                "system": "http://terminology.hl7.org/CodeSystem/observation-category",
                "code": "laboratory"
              }
            ]
          }
        ],
        "code": {
          "coding": [
            {
              "code": "5804-0",
              "system": "http://loinc.org",
              "display": "Protein [Mass/volume] in Urine by Test strip"
            }
          ],
          "text": "Protein [Mass/volume] in Urine by Test strip"
        },
        "valueQuantity": {
          "system": "http://unitsofmeasure.org",
          "value": 410.6,
          "unit": "mg/dL",
          "code": "mg/dL"
        },
        "referenceRange": [
          {
            "low": {
              "value": 0,
              "code": "mg/dL",
              "system": "http://unitsofmeasure.org"
            }
          },
          {
            "high": {
              "value": 14,
              "code": "mg/dL",
              "system": "http://unitsofmeasure.org"
            }
          }
        ],
        "interpretation": [
          {
            "coding": [
              {
                "code": "H",
                "system": "http://terminology.hl7.org/CodeSystem/v3-ObservationInterpretation",
                "display": "High"
              }
            ]
          }
        ],
        "text": {
          "status": "generated",
          "div": "<div xmlns=\"http://www.w3.org/1999/xhtml\"><table class=\"hl7__eu__lab__report\"><tr><th>Test</th><th>13-Apr-2016</th><th>Reference&#xA0;Range</th><th>Unit</th></tr><tr><td>Protein [Mass/volume] in Urine by Test strip</td><td>410.6</td><td>0 - 14</td><td>H</td><td>mg/dL</td></tr></table></div>"
        },
        "status": "final",
        "subject": {
          "reference": "urn:uuid:cf670fca-dcc2-4a22-8a66-ffcce757674b",
          "display": "Maria Nohlmans"
        },
        "effectiveDateTime": "2016-04-13T11:02:39Z",
        "specimen": {
          "reference": "urn:uuid:f7ee9f68-93f5-42e7-889c-9d3bafca4f00"
        }
      }
    },
    {
      "fullUrl": "urn:uuid:ad05326b-62ff-404c-a1e3-54582c10f54a",
      "resource": {
        "resourceType": "Observation",
        "id": "ad05326b-62ff-404c-a1e3-54582c10f54a",
        "meta": {
          "profile": [
            "http://hl7.eu/fhir/laboratory/StructureDefinition/Observation-resultslab-eu-lab"
          ]
        },
        "performer": [
          {
            "display": "The Central European Lab"
          }
        ],
        "category": [
          {
            "coding": [
              {
                "system": "http://terminology.hl7.org/CodeSystem/observation-category",
                "code": "laboratory"
              }
            ]
          }
        ],
        "code": {
          "coding": [
            {
              "code": "20454-5",
              "system": "http://loinc.org",
              "display": "Protein [Presence] in Urine by Test strip"
            }
          ],
          "text": "Protein [Presence] in Urine by Test strip"
        },
        "text": {
          "status": "generated",
          "div": "<div xmlns=\"http://www.w3.org/1999/xhtml\"><table class=\"hl7__eu__lab__report\"><tr><th>Test</th><th>13-Apr-2016</th><th>Reference&#xA0;Range</th><th>Unit</th></tr><tr><td>Protein [Presence] in Urine by Test strip</td></tr></table></div>"
        },
        "status": "final",
        "subject": {
          "reference": "urn:uuid:cf670fca-dcc2-4a22-8a66-ffcce757674b",
          "display": "Maria Nohlmans"
        },
        "effectiveDateTime": "2016-04-13T11:02:39Z",
        "specimen": {
          "reference": "urn:uuid:f7ee9f68-93f5-42e7-889c-9d3bafca4f00"
        }
      }
    },
    {
      "fullUrl": "urn:uuid:0b37c8ad-a9a8-4d45-8c07-98308560d9d6",
      "resource": {
        "resourceType": "Observation",
        "id": "0b37c8ad-a9a8-4d45-8c07-98308560d9d6",
        "meta": {
          "profile": [
            "http://hl7.eu/fhir/laboratory/StructureDefinition/Observation-resultslab-eu-lab"
          ]
        },
        "performer": [
          {
            "display": "The Central European Lab"
          }
        ],
        "category": [
          {
            "coding": [
              {
                "system": "http://terminology.hl7.org/CodeSystem/observation-category",
                "code": "laboratory"
              }
            ]
          }
        ],
        "code": {
          "coding": [
            {
              "code": "5802-4",
              "system": "http://loinc.org",
              "display": "Nitrite [Presence] in Urine by Test strip"
            }
          ],
          "text": "Nitrite [Presence] in Urine by Test strip"
        },
        "text": {
          "status": "generated",
          "div": "<div xmlns=\"http://www.w3.org/1999/xhtml\"><table class=\"hl7__eu__lab__report\"><tr><th>Test</th><th>13-Apr-2016</th><th>Reference&#xA0;Range</th><th>Unit</th></tr><tr><td>Nitrite [Presence] in Urine by Test strip</td></tr></table></div>"
        },
        "status": "final",
        "subject": {
          "reference": "urn:uuid:cf670fca-dcc2-4a22-8a66-ffcce757674b",
          "display": "Maria Nohlmans"
        },
        "effectiveDateTime": "2016-04-13T11:02:39Z",
        "specimen": {
          "reference": "urn:uuid:f7ee9f68-93f5-42e7-889c-9d3bafca4f00"
        }
      }
    },
    {
      "fullUrl": "urn:uuid:6bdccea1-ad1e-4626-a483-449784661770",
      "resource": {
        "resourceType": "Observation",
        "id": "6bdccea1-ad1e-4626-a483-449784661770",
        "meta": {
          "profile": [
            "http://hl7.eu/fhir/laboratory/StructureDefinition/Observation-resultslab-eu-lab"
          ]
        },
        "performer": [
          {
            "display": "The Central European Lab"
          }
        ],
        "category": [
          {
            "coding": [
              {
                "system": "http://terminology.hl7.org/CodeSystem/observation-category",
                "code": "laboratory"
              }
            ]
          }
        ],
        "code": {
          "coding": [
            {
              "code": "5794-3",
              "system": "http://loinc.org",
              "display": "Hemoglobin [Presence] in Urine by Test strip"
            }
          ],
          "text": "Hemoglobin [Presence] in Urine by Test strip"
        },
        "text": {
          "status": "generated",
          "div": "<div xmlns=\"http://www.w3.org/1999/xhtml\"><table class=\"hl7__eu__lab__report\"><tr><th>Test</th><th>13-Apr-2016</th><th>Reference&#xA0;Range</th><th>Unit</th></tr><tr><td>Hemoglobin [Presence] in Urine by Test strip</td></tr></table></div>"
        },
        "status": "final",
        "subject": {
          "reference": "urn:uuid:cf670fca-dcc2-4a22-8a66-ffcce757674b",
          "display": "Maria Nohlmans"
        },
        "effectiveDateTime": "2016-04-13T11:02:39Z",
        "specimen": {
          "reference": "urn:uuid:f7ee9f68-93f5-42e7-889c-9d3bafca4f00"
        }
      }
    },
    {
      "fullUrl": "urn:uuid:ff32b232-c852-4443-9a75-21db5656b07c",
      "resource": {
        "resourceType": "Observation",
        "id": "ff32b232-c852-4443-9a75-21db5656b07c",
        "meta": {
          "profile": [
            "http://hl7.eu/fhir/laboratory/StructureDefinition/Observation-resultslab-eu-lab"
          ]
        },
        "performer": [
          {
            "display": "The Central European Lab"
          }
        ],
        "category": [
          {
            "coding": [
              {
                "system": "http://terminology.hl7.org/CodeSystem/observation-category",
                "code": "laboratory"
              }
            ]
          }
        ],
        "code": {
          "coding": [
            {
              "code": "5799-2",
              "system": "http://loinc.org",
              "display": "Leukocyte esterase [Presence] in Urine by Test strip"
            }
          ],
          "text": "Leukocyte esterase [Presence] in Urine by Test strip"
        },
        "text": {
          "status": "generated",
          "div": "<div xmlns=\"http://www.w3.org/1999/xhtml\"><table class=\"hl7__eu__lab__report\"><tr><th>Test</th><th>13-Apr-2016</th><th>Reference&#xA0;Range</th><th>Unit</th></tr><tr><td>Leukocyte esterase [Presence] in Urine by Test strip</td></tr></table></div>"
        },
        "status": "final",
        "subject": {
          "reference": "urn:uuid:cf670fca-dcc2-4a22-8a66-ffcce757674b",
          "display": "Maria Nohlmans"
        },
        "effectiveDateTime": "2016-04-13T11:02:39Z",
        "specimen": {
          "reference": "urn:uuid:f7ee9f68-93f5-42e7-889c-9d3bafca4f00"
        }
      }
    },
    {
      "fullUrl": "urn:uuid:9a039c5d-ad18-4194-80a3-dc4000d6132c",
      "resource": {
        "resourceType": "Observation",
        "id": "9a039c5d-ad18-4194-80a3-dc4000d6132c",
        "meta": {
          "profile": [
            "http://hl7.eu/fhir/laboratory/StructureDefinition/Observation-resultslab-eu-lab"
          ]
        },
        "performer": [
          {
            "display": "The Central European Lab"
          }
        ],
        "category": [
          {
            "coding": [
              {
                "system": "http://terminology.hl7.org/CodeSystem/observation-category",
                "code": "laboratory"
              }
            ]
          }
        ],
        "code": {
          "coding": [
            {
              "code": "4548-4",
              "system": "http://loinc.org",
              "display": "Hemoglobin A1c/Hemoglobin.total in Blood"
            }
          ],
          "text": "Hemoglobin A1c/Hemoglobin.total in Blood"
        },
        "valueQuantity": {
          "system": "http://unitsofmeasure.org",
          "value": 3,
          "unit": "%",
          "code": "%"
        },
        "referenceRange": [
          {
            "low": {
              "value": 4.5,
              "code": "%",
              "system": "http://unitsofmeasure.org"
            }
          },
          {
            "high": {
              "value": 6.4,
              "code": "%",
              "system": "http://unitsofmeasure.org"
            }
          }
        ],
        "interpretation": [
          {
            "coding": [
              {
                "code": "L",
                "system": "http://terminology.hl7.org/CodeSystem/v3-ObservationInterpretation",
                "display": "Low"
              }
            ]
          }
        ],
        "text": {
          "status": "generated",
          "div": "<div xmlns=\"http://www.w3.org/1999/xhtml\"><table class=\"hl7__eu__lab__report\"><tr><th>Test</th><th>13-Apr-2016</th><th>Reference&#xA0;Range</th><th>Unit</th></tr><tr><td>Hemoglobin A1c/Hemoglobin.total in Blood</td><td>3.0</td><td>4.5 - 6.4</td><td>L</td><td>%</td></tr></table></div>"
        },
        "status": "final",
        "subject": {
          "reference": "urn:uuid:cf670fca-dcc2-4a22-8a66-ffcce757674b",
          "display": "Maria Nohlmans"
        },
        "effectiveDateTime": "2016-04-13T11:02:39Z",
        "specimen": {
          "reference": "urn:uuid:0627e0e2-9b01-4dba-80ba-d18a50771a64"
        }
      }
    },
    {
      "fullUrl": "urn:uuid:0e34b7fc-92be-4a2e-bcdf-ff59904f6fc1",
      "resource": {
        "resourceType": "Observation",
        "id": "0e34b7fc-92be-4a2e-bcdf-ff59904f6fc1",
        "meta": {
          "profile": [
            "http://hl7.eu/fhir/laboratory/StructureDefinition/Observation-resultslab-eu-lab"
          ]
        },
        "performer": [
          {
            "display": "The Central European Lab"
          }
        ],
        "category": [
          {
            "coding": [
              {
                "system": "http://terminology.hl7.org/CodeSystem/observation-category",
                "code": "laboratory"
              }
            ]
          }
        ],
        "code": {
          "coding": [
            {
              "code": "2339-0",
              "system": "http://loinc.org",
              "display": "Glucose [Mass/volume] in Blood"
            }
          ],
          "text": "Glucose [Mass/volume] in Blood"
        },
        "valueQuantity": {
          "system": "http://unitsofmeasure.org",
          "value": 98.6,
          "unit": "mg/dL",
          "code": "mg/dL"
        },
        "referenceRange": [
          {
            "low": {
              "value": 70,
              "code": "mg/dL",
              "system": "http://unitsofmeasure.org"
            }
          },
          {
            "high": {
              "value": 140,
              "code": "mg/dL",
              "system": "http://unitsofmeasure.org"
            }
          }
        ],
        "text": {
          "status": "generated",
          "div": "<div xmlns=\"http://www.w3.org/1999/xhtml\"><table class=\"hl7__eu__lab__report\"><tr><th>Test</th><th>13-Apr-2016</th><th>Reference&#xA0;Range</th><th>Unit</th></tr><tr><td>Glucose [Mass/volume] in Blood</td><td>98.6</td><td>70 - 140</td><td></td><td>mg/dL</td></tr></table></div>"
        },
        "status": "final",
        "subject": {
          "reference": "urn:uuid:cf670fca-dcc2-4a22-8a66-ffcce757674b",
          "display": "Maria Nohlmans"
        },
        "effectiveDateTime": "2016-04-13T11:02:39Z",
        "specimen": {
          "reference": "urn:uuid:0627e0e2-9b01-4dba-80ba-d18a50771a64"
        }
      }
    },
    {
      "fullUrl": "urn:uuid:7b9c0336-ac74-4324-b499-366eed42cc74",
      "resource": {
        "resourceType": "Observation",
        "id": "7b9c0336-ac74-4324-b499-366eed42cc74",
        "meta": {
          "profile": [
            "http://hl7.eu/fhir/laboratory/StructureDefinition/Observation-resultslab-eu-lab"
          ]
        },
        "performer": [
          {
            "display": "The Central European Lab"
          }
        ],
        "category": [
          {
            "coding": [
              {
                "system": "http://terminology.hl7.org/CodeSystem/observation-category",
                "code": "laboratory"
              }
            ]
          }
        ],
        "code": {
          "coding": [
            {
              "code": "6299-2",
              "system": "http://loinc.org",
              "display": "Urea nitrogen [Mass/volume] in Blood"
            }
          ],
          "text": "Urea nitrogen [Mass/volume] in Blood"
        },
        "valueQuantity": {
          "system": "http://unitsofmeasure.org",
          "value": 7.7,
          "unit": "mg/dL",
          "code": "mg/dL"
        },
        "referenceRange": [
          {
            "low": {
              "value": 7,
              "code": "mg/dL",
              "system": "http://unitsofmeasure.org"
            }
          },
          {
            "high": {
              "value": 30,
              "code": "mg/dL",
              "system": "http://unitsofmeasure.org"
            }
          }
        ],
        "text": {
          "status": "generated",
          "div": "<div xmlns=\"http://www.w3.org/1999/xhtml\"><table class=\"hl7__eu__lab__report\"><tr><th>Test</th><th>13-Apr-2016</th><th>Reference&#xA0;Range</th><th>Unit</th></tr><tr><td>Urea nitrogen [Mass/volume] in Blood</td><td>7.7</td><td>7 - 30</td><td></td><td>mg/dL</td></tr></table></div>"
        },
        "status": "final",
        "subject": {
          "reference": "urn:uuid:cf670fca-dcc2-4a22-8a66-ffcce757674b",
          "display": "Maria Nohlmans"
        },
        "effectiveDateTime": "2016-04-13T11:02:39Z",
        "specimen": {
          "reference": "urn:uuid:0627e0e2-9b01-4dba-80ba-d18a50771a64"
        }
      }
    },
    {
      "fullUrl": "urn:uuid:c64bf116-718e-4ab4-a3f9-4798f15c039c",
      "resource": {
        "resourceType": "Observation",
        "id": "c64bf116-718e-4ab4-a3f9-4798f15c039c",
        "meta": {
          "profile": [
            "http://hl7.eu/fhir/laboratory/StructureDefinition/Observation-resultslab-eu-lab"
          ]
        },
        "performer": [
          {
            "display": "The Central European Lab"
          }
        ],
        "category": [
          {
            "coding": [
              {
                "system": "http://terminology.hl7.org/CodeSystem/observation-category",
                "code": "laboratory"
              }
            ]
          }
        ],
        "code": {
          "coding": [
            {
              "code": "38483-4",
              "system": "http://loinc.org",
              "display": "Creatinine [Mass/volume] in Blood"
            }
          ],
          "text": "Creatinine [Mass/volume] in Blood"
        },
        "valueQuantity": {
          "system": "http://unitsofmeasure.org",
          "value": 5.3,
          "unit": "mg/dL",
          "code": "mg/dL"
        },
        "referenceRange": [
          {
            "low": {
              "value": 0.5,
              "code": "mg/dL",
              "system": "http://unitsofmeasure.org"
            }
          },
          {
            "high": {
              "value": 1.3,
              "code": "mg/dL",
              "system": "http://unitsofmeasure.org"
            }
          }
        ],
        "interpretation": [
          {
            "coding": [
              {
                "code": "H",
                "system": "http://terminology.hl7.org/CodeSystem/v3-ObservationInterpretation",
                "display": "High"
              }
            ]
          }
        ],
        "text": {
          "status": "generated",
          "div": "<div xmlns=\"http://www.w3.org/1999/xhtml\"><table class=\"hl7__eu__lab__report\"><tr><th>Test</th><th>13-Apr-2016</th><th>Reference&#xA0;Range</th><th>Unit</th></tr><tr><td>Creatinine [Mass/volume] in Blood</td><td>5.3</td><td>0.5 - 1.3</td><td>H</td><td>mg/dL</td></tr></table></div>"
        },
        "status": "final",
        "subject": {
          "reference": "urn:uuid:cf670fca-dcc2-4a22-8a66-ffcce757674b",
          "display": "Maria Nohlmans"
        },
        "effectiveDateTime": "2016-04-13T11:02:39Z",
        "specimen": {
          "reference": "urn:uuid:0627e0e2-9b01-4dba-80ba-d18a50771a64"
        }
      }
    },
    {
      "fullUrl": "urn:uuid:2df7d104-8122-4cd7-a364-90dcaa181964",
      "resource": {
        "resourceType": "Observation",
        "id": "2df7d104-8122-4cd7-a364-90dcaa181964",
        "meta": {
          "profile": [
            "http://hl7.eu/fhir/laboratory/StructureDefinition/Observation-resultslab-eu-lab"
          ]
        },
        "performer": [
          {
            "display": "The Central European Lab"
          }
        ],
        "category": [
          {
            "coding": [
              {
                "system": "http://terminology.hl7.org/CodeSystem/observation-category",
                "code": "laboratory"
              }
            ]
          }
        ],
        "code": {
          "coding": [
            {
              "code": "49765-1",
              "system": "http://loinc.org",
              "display": "Calcium [Mass/volume] in Blood"
            }
          ],
          "text": "Calcium [Mass/volume] in Blood"
        },
        "valueQuantity": {
          "system": "http://unitsofmeasure.org",
          "value": 9.1,
          "unit": "mg/dL",
          "code": "mg/dL"
        },
        "referenceRange": [
          {
            "low": {
              "value": 8.6,
              "code": "mg/dL",
              "system": "http://unitsofmeasure.org"
            }
          },
          {
            "high": {
              "value": 10.2,
              "code": "mg/dL",
              "system": "http://unitsofmeasure.org"
            }
          }
        ],
        "text": {
          "status": "generated",
          "div": "<div xmlns=\"http://www.w3.org/1999/xhtml\"><table class=\"hl7__eu__lab__report\"><tr><th>Test</th><th>13-Apr-2016</th><th>Reference&#xA0;Range</th><th>Unit</th></tr><tr><td>Calcium [Mass/volume] in Blood</td><td>9.1</td><td>8.6 - 10.2</td><td></td><td>mg/dL</td></tr></table></div>"
        },
        "status": "final",
        "subject": {
          "reference": "urn:uuid:cf670fca-dcc2-4a22-8a66-ffcce757674b",
          "display": "Maria Nohlmans"
        },
        "effectiveDateTime": "2016-04-13T11:02:39Z",
        "specimen": {
          "reference": "urn:uuid:0627e0e2-9b01-4dba-80ba-d18a50771a64"
        }
      }
    },
    {
      "fullUrl": "urn:uuid:06dd295c-95f5-4320-8435-aadd798d7670",
      "resource": {
        "resourceType": "Observation",
        "id": "06dd295c-95f5-4320-8435-aadd798d7670",
        "meta": {
          "profile": [
            "http://hl7.eu/fhir/laboratory/StructureDefinition/Observation-resultslab-eu-lab"
          ]
        },
        "performer": [
          {
            "display": "The Central European Lab"
          }
        ],
        "category": [
          {
            "coding": [
              {
                "system": "http://terminology.hl7.org/CodeSystem/observation-category",
                "code": "laboratory"
              }
            ]
          }
        ],
        "code": {
          "coding": [
            {
              "code": "2947-0",
              "system": "http://loinc.org",
              "display": "Sodium [Moles/volume] in Blood"
            }
          ],
          "text": "Sodium [Moles/volume] in Blood"
        },
        "valueQuantity": {
          "system": "http://unitsofmeasure.org",
          "value": 136.5,
          "unit": "mmol/L",
          "code": "mmol/L"
        },
        "referenceRange": [
          {
            "low": {
              "value": 135,
              "code": "mmol/L",
              "system": "http://unitsofmeasure.org"
            }
          },
          {
            "high": {
              "value": 145,
              "code": "mmol/L",
              "system": "http://unitsofmeasure.org"
            }
          }
        ],
        "text": {
          "status": "generated",
          "div": "<div xmlns=\"http://www.w3.org/1999/xhtml\"><table class=\"hl7__eu__lab__report\"><tr><th>Test</th><th>13-Apr-2016</th><th>Reference&#xA0;Range</th><th>Unit</th></tr><tr><td>Sodium [Moles/volume] in Blood</td><td>136.5</td><td>135 - 145</td><td></td><td>mmol/L</td></tr></table></div>"
        },
        "status": "final",
        "subject": {
          "reference": "urn:uuid:cf670fca-dcc2-4a22-8a66-ffcce757674b",
          "display": "Maria Nohlmans"
        },
        "effectiveDateTime": "2016-04-13T11:02:39Z",
        "specimen": {
          "reference": "urn:uuid:0627e0e2-9b01-4dba-80ba-d18a50771a64"
        }
      }
    },
    {
      "fullUrl": "urn:uuid:960289b2-1fde-43e6-a912-b55e9861cb54",
      "resource": {
        "resourceType": "Observation",
        "id": "960289b2-1fde-43e6-a912-b55e9861cb54",
        "meta": {
          "profile": [
            "http://hl7.eu/fhir/laboratory/StructureDefinition/Observation-resultslab-eu-lab"
          ]
        },
        "performer": [
          {
            "display": "The Central European Lab"
          }
        ],
        "category": [
          {
            "coding": [
              {
                "system": "http://terminology.hl7.org/CodeSystem/observation-category",
                "code": "laboratory"
              }
            ]
          }
        ],
        "code": {
          "coding": [
            {
              "code": "6298-4",
              "system": "http://loinc.org",
              "display": "Potassium [Moles/volume] in Blood"
            }
          ],
          "text": "Potassium [Moles/volume] in Blood"
        },
        "valueQuantity": {
          "system": "http://unitsofmeasure.org",
          "value": 4.7,
          "unit": "mmol/L",
          "code": "mmol/L"
        },
        "referenceRange": [
          {
            "low": {
              "value": 3.5,
              "code": "mmol/L",
              "system": "http://unitsofmeasure.org"
            }
          },
          {
            "high": {
              "value": 5.1,
              "code": "mmol/L",
              "system": "http://unitsofmeasure.org"
            }
          }
        ],
        "text": {
          "status": "generated",
          "div": "<div xmlns=\"http://www.w3.org/1999/xhtml\"><table class=\"hl7__eu__lab__report\"><tr><th>Test</th><th>13-Apr-2016</th><th>Reference&#xA0;Range</th><th>Unit</th></tr><tr><td>Potassium [Moles/volume] in Blood</td><td>4.7</td><td>3.5 - 5.1</td><td></td><td>mmol/L</td></tr></table></div>"
        },
        "status": "final",
        "subject": {
          "reference": "urn:uuid:cf670fca-dcc2-4a22-8a66-ffcce757674b",
          "display": "Maria Nohlmans"
        },
        "effectiveDateTime": "2016-04-13T11:02:39Z",
        "specimen": {
          "reference": "urn:uuid:0627e0e2-9b01-4dba-80ba-d18a50771a64"
        }
      }
    },
    {
      "fullUrl": "urn:uuid:71f6cd25-4a0c-4f62-bf66-4bd5577a8e81",
      "resource": {
        "resourceType": "Observation",
        "id": "71f6cd25-4a0c-4f62-bf66-4bd5577a8e81",
        "meta": {
          "profile": [
            "http://hl7.eu/fhir/laboratory/StructureDefinition/Observation-resultslab-eu-lab"
          ]
        },
        "performer": [
          {
            "display": "The Central European Lab"
          }
        ],
        "category": [
          {
            "coding": [
              {
                "system": "http://terminology.hl7.org/CodeSystem/observation-category",
                "code": "laboratory"
              }
            ]
          }
        ],
        "code": {
          "coding": [
            {
              "code": "2069-3",
              "system": "http://loinc.org",
              "display": "Chloride [Moles/volume] in Blood"
            }
          ],
          "text": "Chloride [Moles/volume] in Blood"
        },
        "valueQuantity": {
          "system": "http://unitsofmeasure.org",
          "value": 109.2,
          "unit": "mmol/L",
          "code": "mmol/L"
        },
        "referenceRange": [
          {
            "low": {
              "value": 98,
              "code": "mmol/L",
              "system": "http://unitsofmeasure.org"
            }
          },
          {
            "high": {
              "value": 114,
              "code": "mmol/L",
              "system": "http://unitsofmeasure.org"
            }
          }
        ],
        "text": {
          "status": "generated",
          "div": "<div xmlns=\"http://www.w3.org/1999/xhtml\"><table class=\"hl7__eu__lab__report\"><tr><th>Test</th><th>13-Apr-2016</th><th>Reference&#xA0;Range</th><th>Unit</th></tr><tr><td>Chloride [Moles/volume] in Blood</td><td>109.2</td><td>98 - 114</td><td></td><td>mmol/L</td></tr></table></div>"
        },
        "status": "final",
        "subject": {
          "reference": "urn:uuid:cf670fca-dcc2-4a22-8a66-ffcce757674b",
          "display": "Maria Nohlmans"
        },
        "effectiveDateTime": "2016-04-13T11:02:39Z",
        "specimen": {
          "reference": "urn:uuid:0627e0e2-9b01-4dba-80ba-d18a50771a64"
        }
      }
    },
    {
      "fullUrl": "urn:uuid:efa4dc0e-b9f0-4a93-bbcb-e252266f1894",
      "resource": {
        "resourceType": "Observation",
        "id": "efa4dc0e-b9f0-4a93-bbcb-e252266f1894",
        "meta": {
          "profile": [
            "http://hl7.eu/fhir/laboratory/StructureDefinition/Observation-resultslab-eu-lab"
          ]
        },
        "performer": [
          {
            "display": "The Central European Lab"
          }
        ],
        "category": [
          {
            "coding": [
              {
                "system": "http://terminology.hl7.org/CodeSystem/observation-category",
                "code": "laboratory"
              }
            ]
          }
        ],
        "code": {
          "coding": [
            {
              "code": "20565-8",
              "system": "http://loinc.org",
              "display": "Carbon dioxide, total [Moles/volume] in Blood"
            }
          ],
          "text": "Carbon dioxide, total [Moles/volume] in Blood"
        },
        "valueQuantity": {
          "system": "http://unitsofmeasure.org",
          "value": 21,
          "unit": "mmol/L",
          "code": "mmol/L"
        },
        "referenceRange": [
          {
            "low": {
              "value": 22,
              "code": "mmol/L",
              "system": "http://unitsofmeasure.org"
            }
          },
          {
            "high": {
              "value": 32,
              "code": "mmol/L",
              "system": "http://unitsofmeasure.org"
            }
          }
        ],
        "interpretation": [
          {
            "coding": [
              {
                "code": "L",
                "system": "http://terminology.hl7.org/CodeSystem/v3-ObservationInterpretation",
                "display": "Low"
              }
            ]
          }
        ],
        "text": {
          "status": "generated",
          "div": "<div xmlns=\"http://www.w3.org/1999/xhtml\"><table class=\"hl7__eu__lab__report\"><tr><th>Test</th><th>13-Apr-2016</th><th>Reference&#xA0;Range</th><th>Unit</th></tr><tr><td>Carbon dioxide, total [Moles/volume] in Blood</td><td>21.0</td><td>22 - 32</td><td>L</td><td>mmol/L</td></tr></table></div>"
        },
        "status": "final",
        "subject": {
          "reference": "urn:uuid:cf670fca-dcc2-4a22-8a66-ffcce757674b",
          "display": "Maria Nohlmans"
        },
        "effectiveDateTime": "2016-04-13T11:02:39Z",
        "specimen": {
          "reference": "urn:uuid:0627e0e2-9b01-4dba-80ba-d18a50771a64"
        }
      }
    },
    {
      "fullUrl": "urn:uuid:7b7beefc-bb79-42f6-abd9-32c60819b07e",
      "resource": {
        "resourceType": "Device",
        "id": "7b7beefc-bb79-42f6-abd9-32c60819b07e",
        "deviceName": [
          {
            "name": "SYNDERAI Synthetic Generator",
            "type": "manufacturer-name"
          }
        ],
        "version": [
          {
            "value": "5.0"
          }
        ],
        "text": {
          "status": "generated",
          "div": "<div xmlns=\"http://www.w3.org/1999/xhtml\">SYNDERAI Synthetic Generator v5.0</div>"
        },
        "status": "active\"",
        "distinctIdentifier": "synderai-generator-50",
        "manufacturer": "SYNDERAI Project"
      }
    },
    {
      "fullUrl": "urn:uuid:7a02bcc9-9658-4932-b949-d6a260c26da6",
      "resource": {
        "resourceType": "Provenance",
        "id": "7a02bcc9-9658-4932-b949-d6a260c26da6",
        "target": [
          {
            "reference": "Patient/cf670fca-dcc2-4a22-8a66-ffcce757674b"
          },
          {
            "reference": "Bundle/1b6fa60b-6965-410e-bde4-365b6fa307f8"
          },
          {
            "reference": "Composition/92494f93-73f4-4e94-8817-ce0582986599"
          },
          {
            "reference": "PractitionerRole/f0da4f9d-5cf6-41b4-ac6d-bd04b3ce7341"
          },
          {
            "reference": "Practitioner/63436708-28a1-4ae8-afc1-0b8c1a48dacb"
          },
          {
            "reference": "PractitionerRole/08ce755a-2103-405b-a478-0d087818bf72"
          },
          {
            "reference": "Organization/074678fe-a3f2-44bb-ae7c-ff1dc75735c9"
          }
        ],
        "activity": {
          "text": "Synthetic Example Data Generation"
        },
        "policy": [
          "https://synderai.net/synderai-synthetic-data-policy"
        ],
        "agent": [
          {
            "type": {
              "text": "author"
            },
            "who": {
              "reference": "Device/7b7beefc-bb79-42f6-abd9-32c60819b07e"
            }
          }
        ],
        "reason": [
          {
            "text": "Interoperability Testing and Training (non-clinical use)"
          }
        ],
        "text": {
          "status": "generated",
          "div": "<div xmlns=\"http://www.w3.org/1999/xhtml\">Provenance for SYNDERAI Synthetic Example Data Resource</div>"
        },
        "recorded": "2016-04-13T13:02:39Z"
      }
    },
    {
      "fullUrl": "urn:uuid:f0da4f9d-5cf6-41b4-ac6d-bd04b3ce7341",
      "resource": {
        "resourceType": "PractitionerRole",
        "id": "f0da4f9d-5cf6-41b4-ac6d-bd04b3ce7341",
        "meta": {
          "profile": [
            "http://hl7.eu/fhir/base/StructureDefinition/practitionerRole-eu"
          ]
        },
        "text": {
          "status": "generated",
          "div": "<div xmlns=\"http://www.w3.org/1999/xhtml\">Laboratory Role Id: f0da4f9d-5cf6-41b4-ac6d-bd04b3ce7341</div>"
        },
        "practitioner": {
          "reference": "urn:uuid:63436708-28a1-4ae8-afc1-0b8c1a48dacb"
        }
      }
    },
    {
      "fullUrl": "urn:uuid:63436708-28a1-4ae8-afc1-0b8c1a48dacb",
      "resource": {
        "resourceType": "Practitioner",
        "id": "63436708-28a1-4ae8-afc1-0b8c1a48dacb",
        "meta": {
          "profile": [
            "http://hl7.eu/fhir/base/StructureDefinition/practitioner-eu"
          ]
        },
        "identifier": [
          {
            "assigner": {
              "display": "HL7 Europe"
            },
            "system": "urn:oid:2.16.840.1.113883.2.51.999",
            "value": "647ec755-ef05-4d7a-8e0d-79d07e8e60fb"
          }
        ],
        "name": [
          {
            "prefix": [
              "dr"
            ],
            "given": [
              "Ex"
            ],
            "family": "Ample"
          }
        ],
        "address": [
          {
            "line": [
              "Laboratoire Central Européenne",
              "Boulevard du Jardin Botanique 32"
            ],
            "postalCode": "1000",
            "city": "Brussels",
            "country": "Belgium"
          }
        ],
        "text": {
          "status": "generated",
          "div": "<div xmlns=\"http://www.w3.org/1999/xhtml\">Laboratory: Laboratoire Central Européenne, 1000 Brussels, Belgium</div>"
        }
      }
    }
  ],
  "type": "document",
  "timestamp": "2016-04-13T13:02:39Z"
}
