{
  "resourceType": "Bundle",
  "id": "b8d8e3d9-2f71-4f09-bb07-df15afb779ad",
  "meta": {
    "profile": [
      "http://hl7.eu/fhir/laboratory/StructureDefinition/Bundle-eu-lab"
    ]
  },
  "identifier": {
    "assigner": {
      "display": "HL7 Europe"
    },
    "system": "urn:oid:2.16.840.1.113883.2.51.999",
    "value": "1d51f262-6d6b-4503-aaee-694f0895be41"
  },
  "entry": [
    {
      "fullUrl": "urn:uuid:4e397ee0-4f79-4c18-8a55-4f6f5a093a75",
      "resource": {
        "resourceType": "Composition",
        "id": "4e397ee0-4f79-4c18-8a55-4f6f5a093a75",
        "meta": {
          "profile": [
            "http://hl7.eu/fhir/laboratory/StructureDefinition/Composition-eu-lab"
          ]
        },
        "identifier": {
          "assigner": {
            "display": "HL7 Europe"
          },
          "system": "urn:oid:2.16.840.1.113883.2.51.999",
          "value": "191f8833-b89b-496c-b67c-aca85fd459ce"
        },
        "author": [
          {
            "reference": "urn:uuid:f272c30b-e705-4042-bcf6-3cf723650765"
          }
        ],
        "category": [
          {
            "coding": [
              {
                "code": "26436-6",
                "system": "http://loinc.org",
                "display": "Laboratory studies (set)"
              }
            ]
          }
        ],
        "type": {
          "coding": [
            {
              "code": "11502-2",
              "system": "http://loinc.org",
              "display": "Laboratory report"
            }
          ],
          "text": "Laboratory Report"
        },
        "section": [
          {
            "code": {
              "coding": [
                {
                  "code": "26436-6",
                  "system": "http://loinc.org",
                  "display": "Laboratory studies (set)"
                }
              ],
              "text": "Laboratory studies"
            },
            "section": [
              {
                "code": {
                  "coding": [
                    {
                      "code": "$18719-5",
                      "system": "http://loinc.org",
                      "display": "Chemistry studies (set)"
                    }
                  ],
                  "text": "Chemistry"
                },
                "entry": [
                  {
                    "reference": "urn:uuid:46f77b6c-87f2-4f6b-be90-bcd041fa1b4a"
                  },
                  {
                    "reference": "urn:uuid:ca709d72-4d34-42b9-a1ee-7bdc583f2e80"
                  },
                  {
                    "reference": "urn:uuid:5e1c9379-81ca-4e0f-acf9-62481f3151a0"
                  },
                  {
                    "reference": "urn:uuid:0d82e103-b7f2-4bcf-99d6-cd3feebd55d1"
                  },
                  {
                    "reference": "urn:uuid:4d42837c-01d4-49ec-967f-2db562da4211"
                  },
                  {
                    "reference": "urn:uuid:77bd3c47-b764-4564-b6fa-a52e35f27a46"
                  },
                  {
                    "reference": "urn:uuid:fd36aae8-832b-4314-b552-8ae21add95fa"
                  },
                  {
                    "reference": "urn:uuid:5b7e8db5-9af0-4f19-b846-93fe16ebcc5f"
                  },
                  {
                    "reference": "urn:uuid:6ae3148d-09f2-4a32-a0c5-9307b6b1ca98"
                  },
                  {
                    "reference": "urn:uuid:10b4bbd1-0fd8-4429-bb52-ae9ff702bfc9"
                  },
                  {
                    "reference": "urn:uuid:373ffe75-45e4-4fa1-adf1-e41c93e0a0cc"
                  }
                ],
                "text": {
                  "status": "generated",
                  "div": "<div xmlns=\"http://www.w3.org/1999/xhtml\"><h3>Chemistry</h3><table class=\"hl7__eu__lab__report\"><thead><tr><th>Test</th><th>18-JUN-2017</th><th>Reference&#xA0;Range</th><th>Unit</th></tr></thead><tbody><tr><td>pH of Arterial blood</td><td><strong>7.1 L</strong></td><td>7.35 - 7.45</td><td>[pH]</td></tr><tr><td>Carbon dioxide [Partial pressure] in Arterial blood</td><td>44.6</td><td>38 - 48</td><td>mm[Hg]</td></tr><tr><td>Oxygen [Partial pressure] in Arterial blood</td><td>95.3</td><td>75 - 100</td><td>mm[Hg]</td></tr><tr><td>Bicarbonate [Moles/volume] in Arterial blood</td><td>25.7</td><td>22 - 31</td><td>mmol/L</td></tr><tr><td>Oxygen saturation in Arterial blood</td><td><strong>94.0 L</strong></td><td>95 - 100</td><td>%</td></tr><tr><td>pH of Venous blood</td><td>7.4</td><td>7.35 - 7.45</td><td>[pH]</td></tr><tr><td>Carbon dioxide [Partial pressure] in Venous blood</td><td>49.1</td><td>35 - 55</td><td>mm[Hg]</td></tr><tr><td>Oxygen [Partial pressure] in Venous blood</td><td>45.3</td><td>35 - 85</td><td>mm[Hg]</td></tr><tr><td>Bicarbonate [Moles/volume] in Venous blood</td><td>23.5</td><td>22 - 32</td><td>mmol/L</td></tr><tr><td>Carbon dioxide, total [Moles/volume] in Venous blood</td><td>1.5</td><td>1 - 2</td><td>mmol/L</td></tr><tr><td>Magnesium [Mass/volume] in Serum or Plasma</td><td>1.7</td><td>1.6 - 2.3</td><td>mg/dL</td></tr></tbody></table></div>"
                },
                "title": "Chemistry"
              },
              {
                "code": {
                  "coding": [
                    {
                      "code": "$18720-3",
                      "system": "http://loinc.org",
                      "display": "Coagulation studies (set)"
                    }
                  ],
                  "text": "Coagulation"
                },
                "entry": [
                  {
                    "reference": "urn:uuid:91f8cb3b-af04-4ef9-a1e2-3fba467b4ceb"
                  }
                ],
                "text": {
                  "status": "generated",
                  "div": "<div xmlns=\"http://www.w3.org/1999/xhtml\"><h3>Coagulation</h3><table class=\"hl7__eu__lab__report\"><thead><tr><th>Test</th><th>18-JUN-2017</th><th>Reference&#xA0;Range</th><th>Unit</th></tr></thead><tbody><tr><td>Activated clotting time (ACT) of Blood by Coagulation assay</td><td>122.0</td><td>70 - 180</td><td>s</td></tr></tbody></table></div>"
                },
                "title": "Coagulation"
              }
            ],
            "title": "Laboratory Report"
          },
          {
            "text": {
              "status": "generated",
              "div": "<div xmlns=\"http://www.w3.org/1999/xhtml\"><h3>Annotation</h3><table class=\"hl7__eu__lab__report\"><tr><th>Conclusion and Recommendations based on this report and previous findings known to us</th></tr><tr><td>The results show arterial acidemia (low arterial pH) with normal pCO₂ and bicarbonate, and mildly reduced arterial oxygen saturation. Venous blood gases are within normal limits. Coagulation (ACT) and magnesium are normal. Findings suggest mild hypoxemia and metabolic/respiratory acidosis; clinical correlation is recommended to assess for underlying respiratory or metabolic disorders.</td></tr></table></div>"
            },
            "code": {
              "coding": [
                {
                  "system": "http://loinc.org",
                  "code": "48767-8",
                  "display": "Annotation comment"
                }
              ]
            },
            "title": "Annotation comment"
          }
        ],
        "status": "final",
        "subject": {
          "reference": "urn:uuid:73e01e54-f4ce-4d8d-a165-5bdbb868507e",
          "display": "Magdolna Balog"
        },
        "date": "2017-06-18T10:59:00Z",
        "title": "Laboratory Report",
        "confidentiality": "N"
      }
    },
    {
      "fullUrl": "urn:uuid:3e9f6259-3985-46ec-a9dc-7e59953af717",
      "resource": {
        "resourceType": "DiagnosticReport",
        "id": "3e9f6259-3985-46ec-a9dc-7e59953af717",
        "meta": {
          "profile": [
            "http://hl7.eu/fhir/laboratory/StructureDefinition/DiagnosticReport-eu-lab"
          ]
        },
        "identifier": [
          {
            "assigner": {
              "display": "HL7 Europe"
            },
            "system": "urn:oid:2.16.840.1.113883.2.51.999",
            "value": "3db372d6-d003-4b4f-91b6-eeed2e3b9280"
          }
        ],
        "extension": [
          {
            "url": "http://hl7.org/fhir/5.0/StructureDefinition/extension-DiagnosticReport.composition",
            "valueReference": {
              "reference": "urn:uuid:191f8833-b89b-496c-b67c-aca85fd459ce"
            }
          }
        ],
        "category": [
          {
            "coding": [
              {
                "code": "26436-6",
                "system": "http://loinc.org",
                "display": "Laboratory studies (set)"
              }
            ]
          }
        ],
        "specimen": [
          {
            "reference": "urn:uuid:64b0f997-a2ba-4568-8842-e7dfa3fee817"
          },
          {
            "reference": "urn:uuid:fc32c519-ad60-4183-8718-0993533ea2bc"
          },
          {
            "reference": "urn:uuid:2dbb58d8-018a-4091-856f-d8b74dbdbb58"
          },
          {
            "reference": "urn:uuid:88ef1e46-3ed0-402e-a053-8676d84e457c"
          }
        ],
        "result": [
          {
            "reference": "urn:uuid:91f8cb3b-af04-4ef9-a1e2-3fba467b4ceb"
          },
          {
            "reference": "urn:uuid:46f77b6c-87f2-4f6b-be90-bcd041fa1b4a"
          },
          {
            "reference": "urn:uuid:ca709d72-4d34-42b9-a1ee-7bdc583f2e80"
          },
          {
            "reference": "urn:uuid:5e1c9379-81ca-4e0f-acf9-62481f3151a0"
          },
          {
            "reference": "urn:uuid:0d82e103-b7f2-4bcf-99d6-cd3feebd55d1"
          },
          {
            "reference": "urn:uuid:4d42837c-01d4-49ec-967f-2db562da4211"
          },
          {
            "reference": "urn:uuid:77bd3c47-b764-4564-b6fa-a52e35f27a46"
          },
          {
            "reference": "urn:uuid:fd36aae8-832b-4314-b552-8ae21add95fa"
          },
          {
            "reference": "urn:uuid:5b7e8db5-9af0-4f19-b846-93fe16ebcc5f"
          },
          {
            "reference": "urn:uuid:6ae3148d-09f2-4a32-a0c5-9307b6b1ca98"
          },
          {
            "reference": "urn:uuid:10b4bbd1-0fd8-4429-bb52-ae9ff702bfc9"
          },
          {
            "reference": "urn:uuid:373ffe75-45e4-4fa1-adf1-e41c93e0a0cc"
          }
        ],
        "status": "registered",
        "code": {
          "coding": [
            {
              "code": "11502-2",
              "system": "http://loinc.org",
              "display": "Laboratory report"
            }
          ]
        },
        "subject": {
          "reference": "urn:uuid:73e01e54-f4ce-4d8d-a165-5bdbb868507e",
          "display": "Magdolna Balog"
        }
      }
    },
    {
      "fullUrl": "urn:uuid:73e01e54-f4ce-4d8d-a165-5bdbb868507e",
      "resource": {
        "resourceType": "Patient",
        "id": "73e01e54-f4ce-4d8d-a165-5bdbb868507e",
        "meta": {
          "security": [
            {
              "system": "http://terminology.hl7.org/CodeSystem/v3-ActReason",
              "code": "HTEST"
            },
            {
              "system": "http://terminology.hl7.org/CodeSystem/v3-ActReason",
              "code": "TRAIN"
            }
          ],
          "tag": [
            {
              "system": "https://synderai.net/fhir/CodeSystem/tags",
              "code": "synthetic",
              "display": "SYNDERAI Synthetic data"
            }
          ],
          "profile": [
            "http://hl7.eu/fhir/base/StructureDefinition/patient-eu-core"
          ]
        },
        "identifier": [
          {
            "type": {
              "coding": [
                {
                  "code": "PT",
                  "system": "http://terminology.hl7.org/CodeSystem/v2-0203"
                }
              ]
            },
            "system": "http://ec.europa.eu/identifier/eci",
            "value": "2437-386280-4"
          },
          {
            "type": {
              "coding": [
                {
                  "code": "MR",
                  "system": "http://terminology.hl7.org/CodeSystem/v2-0203"
                }
              ]
            },
            "system": "http://local.setting.eu/identifier",
            "value": "1d8dc8c5-3a85-b1b5-4101-cca776d0be28"
          }
        ],
        "name": [
          {
            "family": "Balog"
          },
          {
            "given": [
              "Magdolna"
            ]
          },
          {
            "text": "Magdolna Balog"
          }
        ],
        "address": [
          {
            "line": [
              "Ady endre utca 160."
            ],
            "use": "home",
            "type": "physical",
            "postalCode": "3989",
            "city": "Némethídfa",
            "country": "Hungary"
          }
        ],
        "telecom": [
          {
            "system": "phone",
            "value": "+36 46 091-2914"
          }
        ],
        "extension": [
          {
            "url": "http://hl7.org/fhir/StructureDefinition/patient-nationality",
            "valueCodeableConcept": {
              "coding": [
                {
                  "code": "HU",
                  "system": "http://hl7.org/fhir/ValueSet/country"
                }
              ]
            }
          }
        ],
        "text": {
          "status": "generated",
          "div": "<div xmlns=\"http://www.w3.org/1999/xhtml\"><table class=\"hl7__ips\"><tr><td>Magdolna Balog</td><td>female</td><td>21-May-1946</td></tr></table></div>"
        },
        "gender": "female",
        "birthDate": "1946-05-21"
      }
    },
    {
      "fullUrl": "urn:uuid:e5b5cc4e-171e-40bc-8f21-507ca75f2eb3",
      "resource": {
        "resourceType": "ServiceRequest",
        "id": "e5b5cc4e-171e-40bc-8f21-507ca75f2eb3",
        "meta": {
          "profile": [
            "http://hl7.eu/fhir/laboratory/StructureDefinition/ServiceRequest-eu-lab"
          ]
        },
        "identifier": [
          {
            "system": "http://example.org",
            "value": "b428a4b7-a277-4142-8b8b-46c0efd167d1"
          }
        ],
        "specimen": [
          {
            "reference": "urn:uuid:64b0f997-a2ba-4568-8842-e7dfa3fee817"
          },
          {
            "reference": "urn:uuid:fc32c519-ad60-4183-8718-0993533ea2bc"
          },
          {
            "reference": "urn:uuid:2dbb58d8-018a-4091-856f-d8b74dbdbb58"
          },
          {
            "reference": "urn:uuid:88ef1e46-3ed0-402e-a053-8676d84e457c"
          }
        ],
        "reasonCode": [
          {
            "coding": [
              {
                "code": "26929004",
                "system": "http://snomed.info/sct",
                "display": "Alzheimer&#039;s disease"
              }
            ]
          },
          {
            "coding": [
              {
                "code": "414545008",
                "system": "http://snomed.info/sct",
                "display": "Ischemic heart disease"
              }
            ]
          },
          {
            "coding": [
              {
                "code": "49436004",
                "system": "http://snomed.info/sct",
                "display": "Atrial fibrillation"
              }
            ]
          },
          {
            "coding": [
              {
                "code": "64859006",
                "system": "http://snomed.info/sct",
                "display": "Osteoporosis"
              }
            ]
          },
          {
            "coding": [
              {
                "code": "15777000",
                "system": "http://snomed.info/sct",
                "display": "Prediabetes"
              }
            ]
          },
          {
            "coding": [
              {
                "code": "271737000",
                "system": "http://snomed.info/sct",
                "display": "Anemia"
              }
            ]
          }
        ],
        "status": "active",
        "intent": "order",
        "code": {
          "coding": [
            {
              "code": "108252007",
              "system": "http://snomed.info/sct",
              "display": "Laboratory procedure"
            }
          ]
        },
        "subject": {
          "reference": "urn:uuid:73e01e54-f4ce-4d8d-a165-5bdbb868507e",
          "display": "Magdolna Balog"
        },
        "requester": {
          "reference": "urn:uuid:a5fed4e1-b883-47f6-80ed-066a06a3d4ee"
        }
      }
    },
    {
      "fullUrl": "urn:uuid:a5fed4e1-b883-47f6-80ed-066a06a3d4ee",
      "resource": {
        "resourceType": "PractitionerRole",
        "id": "a5fed4e1-b883-47f6-80ed-066a06a3d4ee",
        "meta": {
          "profile": [
            "http://hl7.eu/fhir/base/StructureDefinition/practitionerRole-eu"
          ]
        },
        "text": {
          "status": "generated",
          "div": "<div xmlns=\"http://www.w3.org/1999/xhtml\">Provider Role Id: a5fed4e1-b883-47f6-80ed-066a06a3d4ee</div>"
        },
        "organization": {
          "reference": "urn:uuid:5311c778-4d8b-4294-930c-12eb213ad2bf"
        }
      }
    },
    {
      "fullUrl": "urn:uuid:5311c778-4d8b-4294-930c-12eb213ad2bf",
      "resource": {
        "resourceType": "Organization",
        "id": "5311c778-4d8b-4294-930c-12eb213ad2bf",
        "meta": {
          "profile": [
            "http://hl7.eu/fhir/base/StructureDefinition/organization-eu"
          ]
        },
        "identifier": [
          {
            "assigner": {
              "display": "HL7 Europe"
            },
            "system": "urn:oid:2.16.840.1.113883.2.51.999",
            "value": "2d65b2bc-19f7-4f2c-a901-b698d4ec8cd4"
          }
        ],
        "address": [
          {
            "line": [
              "Csabai kapu 9-11"
            ],
            "city": "Miskolc",
            "postalCode": "3529",
            "country": "Hungary"
          }
        ],
        "text": {
          "status": "generated",
          "div": "<div xmlns=\"http://www.w3.org/1999/xhtml\">Provider Organization: Semmelweis Ignác Egészségügyi Központ és Egyetemi Oktató Kórház</div>"
        },
        "name": "Semmelweis Ignác Egészségügyi Központ és Egyetemi Oktató Kórház"
      }
    },
    {
      "fullUrl": "urn:uuid:64b0f997-a2ba-4568-8842-e7dfa3fee817",
      "resource": {
        "resourceType": "Specimen",
        "id": "64b0f997-a2ba-4568-8842-e7dfa3fee817",
        "meta": {
          "profile": [
            "http://hl7.eu/fhir/laboratory/StructureDefinition/Specimen-eu-lab"
          ]
        },
        "collection": {
          "collectedDateTime": "2017-06-18"
        },
        "text": {
          "status": "generated",
          "div": "<div xmlns=\"http://www.w3.org/1999/xhtml\"><table class=\"hl7__eu__lab__report\"><tr><th>Specimen</th><th>Collection Date</th></tr><tr><td>Whole blood specimen (specimen)</td><td><span class=\"nb\">18-Jun-2017</span></td></tr></table></div>"
        },
        "type": {
          "coding": [
            {
              "code": "258580003",
              "system": "http://snomed.info/sct",
              "display": "Whole blood specimen (specimen)"
            }
          ]
        }
      }
    },
    {
      "fullUrl": "urn:uuid:fc32c519-ad60-4183-8718-0993533ea2bc",
      "resource": {
        "resourceType": "Specimen",
        "id": "fc32c519-ad60-4183-8718-0993533ea2bc",
        "meta": {
          "profile": [
            "http://hl7.eu/fhir/laboratory/StructureDefinition/Specimen-eu-lab"
          ]
        },
        "collection": {
          "collectedDateTime": "2017-06-18"
        },
        "text": {
          "status": "generated",
          "div": "<div xmlns=\"http://www.w3.org/1999/xhtml\"><table class=\"hl7__eu__lab__report\"><tr><th>Specimen</th><th>Collection Date</th></tr><tr><td>Arterial blood specimen</td><td><span class=\"nb\">18-Jun-2017</span></td></tr></table></div>"
        },
        "type": {
          "coding": [
            {
              "code": "122552005",
              "system": "http://snomed.info/sct",
              "display": "Arterial blood specimen"
            }
          ]
        }
      }
    },
    {
      "fullUrl": "urn:uuid:2dbb58d8-018a-4091-856f-d8b74dbdbb58",
      "resource": {
        "resourceType": "Specimen",
        "id": "2dbb58d8-018a-4091-856f-d8b74dbdbb58",
        "meta": {
          "profile": [
            "http://hl7.eu/fhir/laboratory/StructureDefinition/Specimen-eu-lab"
          ]
        },
        "collection": {
          "collectedDateTime": "2017-06-18"
        },
        "text": {
          "status": "generated",
          "div": "<div xmlns=\"http://www.w3.org/1999/xhtml\"><table class=\"hl7__eu__lab__report\"><tr><th>Specimen</th><th>Collection Date</th></tr><tr><td>Venous blood specimen</td><td><span class=\"nb\">18-Jun-2017</span></td></tr></table></div>"
        },
        "type": {
          "coding": [
            {
              "code": "122555007",
              "system": "http://snomed.info/sct",
              "display": "Venous blood specimen"
            }
          ]
        }
      }
    },
    {
      "fullUrl": "urn:uuid:88ef1e46-3ed0-402e-a053-8676d84e457c",
      "resource": {
        "resourceType": "Specimen",
        "id": "88ef1e46-3ed0-402e-a053-8676d84e457c",
        "meta": {
          "profile": [
            "http://hl7.eu/fhir/laboratory/StructureDefinition/Specimen-eu-lab"
          ]
        },
        "collection": {
          "collectedDateTime": "2017-06-18"
        },
        "text": {
          "status": "generated",
          "div": "<div xmlns=\"http://www.w3.org/1999/xhtml\"><table class=\"hl7__eu__lab__report\"><tr><th>Specimen</th><th>Collection Date</th></tr><tr><td>Acellular blood (serum or plasma) specimen</td><td><span class=\"nb\">18-Jun-2017</span></td></tr></table></div>"
        },
        "type": {
          "coding": [
            {
              "code": "122592007",
              "system": "http://snomed.info/sct",
              "display": "Acellular blood (serum or plasma) specimen"
            }
          ]
        }
      }
    },
    {
      "fullUrl": "urn:uuid:91f8cb3b-af04-4ef9-a1e2-3fba467b4ceb",
      "resource": {
        "resourceType": "Observation",
        "id": "91f8cb3b-af04-4ef9-a1e2-3fba467b4ceb",
        "meta": {
          "profile": [
            "http://hl7.eu/fhir/laboratory/StructureDefinition/Observation-resultslab-eu-lab"
          ]
        },
        "performer": [
          {
            "display": "The Central European Lab"
          }
        ],
        "category": [
          {
            "coding": [
              {
                "system": "http://terminology.hl7.org/CodeSystem/observation-category",
                "code": "laboratory"
              }
            ]
          }
        ],
        "code": {
          "coding": [
            {
              "code": "3184-9",
              "system": "http://loinc.org",
              "display": "Activated clotting time (ACT) of Blood by Coagulation assay"
            }
          ],
          "text": "Activated clotting time (ACT) of Blood by Coagulation assay"
        },
        "valueQuantity": {
          "system": "http://unitsofmeasure.org",
          "value": 122,
          "unit": "s",
          "code": "s"
        },
        "referenceRange": [
          {
            "low": {
              "value": 70,
              "code": "seconds",
              "system": "http://unitsofmeasure.org"
            }
          },
          {
            "high": {
              "value": 180,
              "code": "seconds",
              "system": "http://unitsofmeasure.org"
            }
          }
        ],
        "text": {
          "status": "generated",
          "div": "<div xmlns=\"http://www.w3.org/1999/xhtml\"><table class=\"hl7__eu__lab__report\"><tr><th>Test</th><th>18-Jun-2017</th><th>Reference&#xA0;Range</th><th>Unit</th></tr><tr><td>Activated clotting time (ACT) of Blood by Coagulation assay</td><td>122.0</td><td>70 - 180</td><td></td><td>s</td></tr></table></div>"
        },
        "status": "final",
        "subject": {
          "reference": "urn:uuid:73e01e54-f4ce-4d8d-a165-5bdbb868507e",
          "display": "Magdolna Balog"
        },
        "effectiveDateTime": "2017-06-18T08:59:00Z",
        "specimen": {
          "reference": "urn:uuid:64b0f997-a2ba-4568-8842-e7dfa3fee817"
        }
      }
    },
    {
      "fullUrl": "urn:uuid:46f77b6c-87f2-4f6b-be90-bcd041fa1b4a",
      "resource": {
        "resourceType": "Observation",
        "id": "46f77b6c-87f2-4f6b-be90-bcd041fa1b4a",
        "meta": {
          "profile": [
            "http://hl7.eu/fhir/laboratory/StructureDefinition/Observation-resultslab-eu-lab"
          ]
        },
        "performer": [
          {
            "display": "The Central European Lab"
          }
        ],
        "category": [
          {
            "coding": [
              {
                "system": "http://terminology.hl7.org/CodeSystem/observation-category",
                "code": "laboratory"
              }
            ]
          }
        ],
        "code": {
          "coding": [
            {
              "code": "2744-1",
              "system": "http://loinc.org",
              "display": "pH of Arterial blood"
            }
          ],
          "text": "pH of Arterial blood"
        },
        "valueQuantity": {
          "system": "http://unitsofmeasure.org",
          "value": 7.1,
          "unit": "[pH]",
          "code": "[pH]"
        },
        "referenceRange": [
          {
            "low": {
              "value": 7.35,
              "code": "pH",
              "system": "http://unitsofmeasure.org"
            }
          },
          {
            "high": {
              "value": 7.45,
              "code": "pH",
              "system": "http://unitsofmeasure.org"
            }
          }
        ],
        "interpretation": [
          {
            "coding": [
              {
                "code": "L",
                "system": "http://terminology.hl7.org/CodeSystem/v3-ObservationInterpretation",
                "display": "Low"
              }
            ]
          }
        ],
        "text": {
          "status": "generated",
          "div": "<div xmlns=\"http://www.w3.org/1999/xhtml\"><table class=\"hl7__eu__lab__report\"><tr><th>Test</th><th>18-Jun-2017</th><th>Reference&#xA0;Range</th><th>Unit</th></tr><tr><td>pH of Arterial blood</td><td>7.1</td><td>7.35 - 7.45</td><td>L</td><td>[pH]</td></tr></table></div>"
        },
        "status": "final",
        "subject": {
          "reference": "urn:uuid:73e01e54-f4ce-4d8d-a165-5bdbb868507e",
          "display": "Magdolna Balog"
        },
        "effectiveDateTime": "2017-06-18T08:59:00Z",
        "specimen": {
          "reference": "urn:uuid:fc32c519-ad60-4183-8718-0993533ea2bc"
        }
      }
    },
    {
      "fullUrl": "urn:uuid:ca709d72-4d34-42b9-a1ee-7bdc583f2e80",
      "resource": {
        "resourceType": "Observation",
        "id": "ca709d72-4d34-42b9-a1ee-7bdc583f2e80",
        "meta": {
          "profile": [
            "http://hl7.eu/fhir/laboratory/StructureDefinition/Observation-resultslab-eu-lab"
          ]
        },
        "performer": [
          {
            "display": "The Central European Lab"
          }
        ],
        "category": [
          {
            "coding": [
              {
                "system": "http://terminology.hl7.org/CodeSystem/observation-category",
                "code": "laboratory"
              }
            ]
          }
        ],
        "code": {
          "coding": [
            {
              "code": "2019-8",
              "system": "http://loinc.org",
              "display": "Carbon dioxide [Partial pressure] in Arterial blood"
            }
          ],
          "text": "Carbon dioxide [Partial pressure] in Arterial blood"
        },
        "valueQuantity": {
          "system": "http://unitsofmeasure.org",
          "value": 44.6,
          "unit": "mm[Hg]",
          "code": "mm[Hg]"
        },
        "referenceRange": [
          {
            "low": {
              "value": 38,
              "code": "mm[Hg]",
              "system": "http://unitsofmeasure.org"
            }
          },
          {
            "high": {
              "value": 48,
              "code": "mm[Hg]",
              "system": "http://unitsofmeasure.org"
            }
          }
        ],
        "text": {
          "status": "generated",
          "div": "<div xmlns=\"http://www.w3.org/1999/xhtml\"><table class=\"hl7__eu__lab__report\"><tr><th>Test</th><th>18-Jun-2017</th><th>Reference&#xA0;Range</th><th>Unit</th></tr><tr><td>Carbon dioxide [Partial pressure] in Arterial blood</td><td>44.6</td><td>38 - 48</td><td></td><td>mm[Hg]</td></tr></table></div>"
        },
        "status": "final",
        "subject": {
          "reference": "urn:uuid:73e01e54-f4ce-4d8d-a165-5bdbb868507e",
          "display": "Magdolna Balog"
        },
        "effectiveDateTime": "2017-06-18T08:59:00Z",
        "specimen": {
          "reference": "urn:uuid:fc32c519-ad60-4183-8718-0993533ea2bc"
        }
      }
    },
    {
      "fullUrl": "urn:uuid:5e1c9379-81ca-4e0f-acf9-62481f3151a0",
      "resource": {
        "resourceType": "Observation",
        "id": "5e1c9379-81ca-4e0f-acf9-62481f3151a0",
        "meta": {
          "profile": [
            "http://hl7.eu/fhir/laboratory/StructureDefinition/Observation-resultslab-eu-lab"
          ]
        },
        "performer": [
          {
            "display": "The Central European Lab"
          }
        ],
        "category": [
          {
            "coding": [
              {
                "system": "http://terminology.hl7.org/CodeSystem/observation-category",
                "code": "laboratory"
              }
            ]
          }
        ],
        "code": {
          "coding": [
            {
              "code": "2703-7",
              "system": "http://loinc.org",
              "display": "Oxygen [Partial pressure] in Arterial blood"
            }
          ],
          "text": "Oxygen [Partial pressure] in Arterial blood"
        },
        "valueQuantity": {
          "system": "http://unitsofmeasure.org",
          "value": 95.3,
          "unit": "mm[Hg]",
          "code": "mm[Hg]"
        },
        "referenceRange": [
          {
            "low": {
              "value": 75,
              "code": "mm[Hg]",
              "system": "http://unitsofmeasure.org"
            }
          },
          {
            "high": {
              "value": 100,
              "code": "mm[Hg]",
              "system": "http://unitsofmeasure.org"
            }
          }
        ],
        "text": {
          "status": "generated",
          "div": "<div xmlns=\"http://www.w3.org/1999/xhtml\"><table class=\"hl7__eu__lab__report\"><tr><th>Test</th><th>18-Jun-2017</th><th>Reference&#xA0;Range</th><th>Unit</th></tr><tr><td>Oxygen [Partial pressure] in Arterial blood</td><td>95.3</td><td>75 - 100</td><td></td><td>mm[Hg]</td></tr></table></div>"
        },
        "status": "final",
        "subject": {
          "reference": "urn:uuid:73e01e54-f4ce-4d8d-a165-5bdbb868507e",
          "display": "Magdolna Balog"
        },
        "effectiveDateTime": "2017-06-18T08:59:00Z",
        "specimen": {
          "reference": "urn:uuid:fc32c519-ad60-4183-8718-0993533ea2bc"
        }
      }
    },
    {
      "fullUrl": "urn:uuid:0d82e103-b7f2-4bcf-99d6-cd3feebd55d1",
      "resource": {
        "resourceType": "Observation",
        "id": "0d82e103-b7f2-4bcf-99d6-cd3feebd55d1",
        "meta": {
          "profile": [
            "http://hl7.eu/fhir/laboratory/StructureDefinition/Observation-resultslab-eu-lab"
          ]
        },
        "performer": [
          {
            "display": "The Central European Lab"
          }
        ],
        "category": [
          {
            "coding": [
              {
                "system": "http://terminology.hl7.org/CodeSystem/observation-category",
                "code": "laboratory"
              }
            ]
          }
        ],
        "code": {
          "coding": [
            {
              "code": "1960-4",
              "system": "http://loinc.org",
              "display": "Bicarbonate [Moles/volume] in Arterial blood"
            }
          ],
          "text": "Bicarbonate [Moles/volume] in Arterial blood"
        },
        "valueQuantity": {
          "system": "http://unitsofmeasure.org",
          "value": 25.7,
          "unit": "mmol/L",
          "code": "mmol/L"
        },
        "referenceRange": [
          {
            "low": {
              "value": 22,
              "code": "mmol/L",
              "system": "http://unitsofmeasure.org"
            }
          },
          {
            "high": {
              "value": 31,
              "code": "mmol/L",
              "system": "http://unitsofmeasure.org"
            }
          }
        ],
        "text": {
          "status": "generated",
          "div": "<div xmlns=\"http://www.w3.org/1999/xhtml\"><table class=\"hl7__eu__lab__report\"><tr><th>Test</th><th>18-Jun-2017</th><th>Reference&#xA0;Range</th><th>Unit</th></tr><tr><td>Bicarbonate [Moles/volume] in Arterial blood</td><td>25.7</td><td>22 - 31</td><td></td><td>mmol/L</td></tr></table></div>"
        },
        "status": "final",
        "subject": {
          "reference": "urn:uuid:73e01e54-f4ce-4d8d-a165-5bdbb868507e",
          "display": "Magdolna Balog"
        },
        "effectiveDateTime": "2017-06-18T08:59:00Z",
        "specimen": {
          "reference": "urn:uuid:fc32c519-ad60-4183-8718-0993533ea2bc"
        }
      }
    },
    {
      "fullUrl": "urn:uuid:4d42837c-01d4-49ec-967f-2db562da4211",
      "resource": {
        "resourceType": "Observation",
        "id": "4d42837c-01d4-49ec-967f-2db562da4211",
        "meta": {
          "profile": [
            "http://hl7.eu/fhir/laboratory/StructureDefinition/Observation-resultslab-eu-lab"
          ]
        },
        "performer": [
          {
            "display": "The Central European Lab"
          }
        ],
        "category": [
          {
            "coding": [
              {
                "system": "http://terminology.hl7.org/CodeSystem/observation-category",
                "code": "laboratory"
              }
            ]
          }
        ],
        "code": {
          "coding": [
            {
              "code": "2708-6",
              "system": "http://loinc.org",
              "display": "Oxygen saturation in Arterial blood"
            }
          ],
          "text": "Oxygen saturation in Arterial blood"
        },
        "valueQuantity": {
          "system": "http://unitsofmeasure.org",
          "value": 94,
          "unit": "%",
          "code": "%"
        },
        "referenceRange": [
          {
            "low": {
              "value": 95,
              "code": "%",
              "system": "http://unitsofmeasure.org"
            }
          },
          {
            "high": {
              "value": 100,
              "code": "%",
              "system": "http://unitsofmeasure.org"
            }
          }
        ],
        "interpretation": [
          {
            "coding": [
              {
                "code": "L",
                "system": "http://terminology.hl7.org/CodeSystem/v3-ObservationInterpretation",
                "display": "Low"
              }
            ]
          }
        ],
        "text": {
          "status": "generated",
          "div": "<div xmlns=\"http://www.w3.org/1999/xhtml\"><table class=\"hl7__eu__lab__report\"><tr><th>Test</th><th>18-Jun-2017</th><th>Reference&#xA0;Range</th><th>Unit</th></tr><tr><td>Oxygen saturation in Arterial blood</td><td>94.0</td><td>95 - 100</td><td>L</td><td>%</td></tr></table></div>"
        },
        "status": "final",
        "subject": {
          "reference": "urn:uuid:73e01e54-f4ce-4d8d-a165-5bdbb868507e",
          "display": "Magdolna Balog"
        },
        "effectiveDateTime": "2017-06-18T08:59:00Z",
        "specimen": {
          "reference": "urn:uuid:fc32c519-ad60-4183-8718-0993533ea2bc"
        }
      }
    },
    {
      "fullUrl": "urn:uuid:77bd3c47-b764-4564-b6fa-a52e35f27a46",
      "resource": {
        "resourceType": "Observation",
        "id": "77bd3c47-b764-4564-b6fa-a52e35f27a46",
        "meta": {
          "profile": [
            "http://hl7.eu/fhir/laboratory/StructureDefinition/Observation-resultslab-eu-lab"
          ]
        },
        "performer": [
          {
            "display": "The Central European Lab"
          }
        ],
        "category": [
          {
            "coding": [
              {
                "system": "http://terminology.hl7.org/CodeSystem/observation-category",
                "code": "laboratory"
              }
            ]
          }
        ],
        "code": {
          "coding": [
            {
              "code": "2746-6",
              "system": "http://loinc.org",
              "display": "pH of Venous blood"
            }
          ],
          "text": "pH of Venous blood"
        },
        "valueQuantity": {
          "system": "http://unitsofmeasure.org",
          "value": 7.4,
          "unit": "[pH]",
          "code": "[pH]"
        },
        "referenceRange": [
          {
            "low": {
              "value": 7.35,
              "code": "pH",
              "system": "http://unitsofmeasure.org"
            }
          },
          {
            "high": {
              "value": 7.45,
              "code": "pH",
              "system": "http://unitsofmeasure.org"
            }
          }
        ],
        "text": {
          "status": "generated",
          "div": "<div xmlns=\"http://www.w3.org/1999/xhtml\"><table class=\"hl7__eu__lab__report\"><tr><th>Test</th><th>18-Jun-2017</th><th>Reference&#xA0;Range</th><th>Unit</th></tr><tr><td>pH of Venous blood</td><td>7.4</td><td>7.35 - 7.45</td><td></td><td>[pH]</td></tr></table></div>"
        },
        "status": "final",
        "subject": {
          "reference": "urn:uuid:73e01e54-f4ce-4d8d-a165-5bdbb868507e",
          "display": "Magdolna Balog"
        },
        "effectiveDateTime": "2017-06-18T08:59:00Z",
        "specimen": {
          "reference": "urn:uuid:2dbb58d8-018a-4091-856f-d8b74dbdbb58"
        }
      }
    },
    {
      "fullUrl": "urn:uuid:fd36aae8-832b-4314-b552-8ae21add95fa",
      "resource": {
        "resourceType": "Observation",
        "id": "fd36aae8-832b-4314-b552-8ae21add95fa",
        "meta": {
          "profile": [
            "http://hl7.eu/fhir/laboratory/StructureDefinition/Observation-resultslab-eu-lab"
          ]
        },
        "performer": [
          {
            "display": "The Central European Lab"
          }
        ],
        "category": [
          {
            "coding": [
              {
                "system": "http://terminology.hl7.org/CodeSystem/observation-category",
                "code": "laboratory"
              }
            ]
          }
        ],
        "code": {
          "coding": [
            {
              "code": "2021-4",
              "system": "http://loinc.org",
              "display": "Carbon dioxide [Partial pressure] in Venous blood"
            }
          ],
          "text": "Carbon dioxide [Partial pressure] in Venous blood"
        },
        "valueQuantity": {
          "system": "http://unitsofmeasure.org",
          "value": 49.1,
          "unit": "mm[Hg]",
          "code": "mm[Hg]"
        },
        "referenceRange": [
          {
            "low": {
              "value": 35,
              "code": "mm[Hg]",
              "system": "http://unitsofmeasure.org"
            }
          },
          {
            "high": {
              "value": 55,
              "code": "mm[Hg]",
              "system": "http://unitsofmeasure.org"
            }
          }
        ],
        "text": {
          "status": "generated",
          "div": "<div xmlns=\"http://www.w3.org/1999/xhtml\"><table class=\"hl7__eu__lab__report\"><tr><th>Test</th><th>18-Jun-2017</th><th>Reference&#xA0;Range</th><th>Unit</th></tr><tr><td>Carbon dioxide [Partial pressure] in Venous blood</td><td>49.1</td><td>35 - 55</td><td></td><td>mm[Hg]</td></tr></table></div>"
        },
        "status": "final",
        "subject": {
          "reference": "urn:uuid:73e01e54-f4ce-4d8d-a165-5bdbb868507e",
          "display": "Magdolna Balog"
        },
        "effectiveDateTime": "2017-06-18T08:59:00Z",
        "specimen": {
          "reference": "urn:uuid:2dbb58d8-018a-4091-856f-d8b74dbdbb58"
        }
      }
    },
    {
      "fullUrl": "urn:uuid:5b7e8db5-9af0-4f19-b846-93fe16ebcc5f",
      "resource": {
        "resourceType": "Observation",
        "id": "5b7e8db5-9af0-4f19-b846-93fe16ebcc5f",
        "meta": {
          "profile": [
            "http://hl7.eu/fhir/laboratory/StructureDefinition/Observation-resultslab-eu-lab"
          ]
        },
        "performer": [
          {
            "display": "The Central European Lab"
          }
        ],
        "category": [
          {
            "coding": [
              {
                "system": "http://terminology.hl7.org/CodeSystem/observation-category",
                "code": "laboratory"
              }
            ]
          }
        ],
        "code": {
          "coding": [
            {
              "code": "2705-2",
              "system": "http://loinc.org",
              "display": "Oxygen [Partial pressure] in Venous blood"
            }
          ],
          "text": "Oxygen [Partial pressure] in Venous blood"
        },
        "valueQuantity": {
          "system": "http://unitsofmeasure.org",
          "value": 45.3,
          "unit": "mm[Hg]",
          "code": "mm[Hg]"
        },
        "referenceRange": [
          {
            "low": {
              "value": 35,
              "code": "mm[Hg]",
              "system": "http://unitsofmeasure.org"
            }
          },
          {
            "high": {
              "value": 85,
              "code": "mm[Hg]",
              "system": "http://unitsofmeasure.org"
            }
          }
        ],
        "text": {
          "status": "generated",
          "div": "<div xmlns=\"http://www.w3.org/1999/xhtml\"><table class=\"hl7__eu__lab__report\"><tr><th>Test</th><th>18-Jun-2017</th><th>Reference&#xA0;Range</th><th>Unit</th></tr><tr><td>Oxygen [Partial pressure] in Venous blood</td><td>45.3</td><td>35 - 85</td><td></td><td>mm[Hg]</td></tr></table></div>"
        },
        "status": "final",
        "subject": {
          "reference": "urn:uuid:73e01e54-f4ce-4d8d-a165-5bdbb868507e",
          "display": "Magdolna Balog"
        },
        "effectiveDateTime": "2017-06-18T08:59:00Z",
        "specimen": {
          "reference": "urn:uuid:2dbb58d8-018a-4091-856f-d8b74dbdbb58"
        }
      }
    },
    {
      "fullUrl": "urn:uuid:6ae3148d-09f2-4a32-a0c5-9307b6b1ca98",
      "resource": {
        "resourceType": "Observation",
        "id": "6ae3148d-09f2-4a32-a0c5-9307b6b1ca98",
        "meta": {
          "profile": [
            "http://hl7.eu/fhir/laboratory/StructureDefinition/Observation-resultslab-eu-lab"
          ]
        },
        "performer": [
          {
            "display": "The Central European Lab"
          }
        ],
        "category": [
          {
            "coding": [
              {
                "system": "http://terminology.hl7.org/CodeSystem/observation-category",
                "code": "laboratory"
              }
            ]
          }
        ],
        "code": {
          "coding": [
            {
              "code": "14627-4",
              "system": "http://loinc.org",
              "display": "Bicarbonate [Moles/volume] in Venous blood"
            }
          ],
          "text": "Bicarbonate [Moles/volume] in Venous blood"
        },
        "valueQuantity": {
          "system": "http://unitsofmeasure.org",
          "value": 23.5,
          "unit": "mmol/L",
          "code": "mmol/L"
        },
        "referenceRange": [
          {
            "low": {
              "value": 22,
              "code": "mmol/L",
              "system": "http://unitsofmeasure.org"
            }
          },
          {
            "high": {
              "value": 32,
              "code": "mmol/L",
              "system": "http://unitsofmeasure.org"
            }
          }
        ],
        "text": {
          "status": "generated",
          "div": "<div xmlns=\"http://www.w3.org/1999/xhtml\"><table class=\"hl7__eu__lab__report\"><tr><th>Test</th><th>18-Jun-2017</th><th>Reference&#xA0;Range</th><th>Unit</th></tr><tr><td>Bicarbonate [Moles/volume] in Venous blood</td><td>23.5</td><td>22 - 32</td><td></td><td>mmol/L</td></tr></table></div>"
        },
        "status": "final",
        "subject": {
          "reference": "urn:uuid:73e01e54-f4ce-4d8d-a165-5bdbb868507e",
          "display": "Magdolna Balog"
        },
        "effectiveDateTime": "2017-06-18T08:59:00Z",
        "specimen": {
          "reference": "urn:uuid:2dbb58d8-018a-4091-856f-d8b74dbdbb58"
        }
      }
    },
    {
      "fullUrl": "urn:uuid:10b4bbd1-0fd8-4429-bb52-ae9ff702bfc9",
      "resource": {
        "resourceType": "Observation",
        "id": "10b4bbd1-0fd8-4429-bb52-ae9ff702bfc9",
        "meta": {
          "profile": [
            "http://hl7.eu/fhir/laboratory/StructureDefinition/Observation-resultslab-eu-lab"
          ]
        },
        "performer": [
          {
            "display": "The Central European Lab"
          }
        ],
        "category": [
          {
            "coding": [
              {
                "system": "http://terminology.hl7.org/CodeSystem/observation-category",
                "code": "laboratory"
              }
            ]
          }
        ],
        "code": {
          "coding": [
            {
              "code": "2027-1",
              "system": "http://loinc.org",
              "display": "Carbon dioxide, total [Moles/volume] in Venous blood"
            }
          ],
          "text": "Carbon dioxide, total [Moles/volume] in Venous blood"
        },
        "valueQuantity": {
          "system": "http://unitsofmeasure.org",
          "value": 1.5,
          "unit": "mmol/L",
          "code": "mmol/L"
        },
        "referenceRange": [
          {
            "low": {
              "value": 1,
              "code": "mmol/L",
              "system": "http://unitsofmeasure.org"
            }
          },
          {
            "high": {
              "value": 2,
              "code": "mmol/L",
              "system": "http://unitsofmeasure.org"
            }
          }
        ],
        "text": {
          "status": "generated",
          "div": "<div xmlns=\"http://www.w3.org/1999/xhtml\"><table class=\"hl7__eu__lab__report\"><tr><th>Test</th><th>18-Jun-2017</th><th>Reference&#xA0;Range</th><th>Unit</th></tr><tr><td>Carbon dioxide, total [Moles/volume] in Venous blood</td><td>1.5</td><td>1 - 2</td><td></td><td>mmol/L</td></tr></table></div>"
        },
        "status": "final",
        "subject": {
          "reference": "urn:uuid:73e01e54-f4ce-4d8d-a165-5bdbb868507e",
          "display": "Magdolna Balog"
        },
        "effectiveDateTime": "2017-06-18T08:59:00Z",
        "specimen": {
          "reference": "urn:uuid:2dbb58d8-018a-4091-856f-d8b74dbdbb58"
        }
      }
    },
    {
      "fullUrl": "urn:uuid:373ffe75-45e4-4fa1-adf1-e41c93e0a0cc",
      "resource": {
        "resourceType": "Observation",
        "id": "373ffe75-45e4-4fa1-adf1-e41c93e0a0cc",
        "meta": {
          "profile": [
            "http://hl7.eu/fhir/laboratory/StructureDefinition/Observation-resultslab-eu-lab"
          ]
        },
        "performer": [
          {
            "display": "The Central European Lab"
          }
        ],
        "category": [
          {
            "coding": [
              {
                "system": "http://terminology.hl7.org/CodeSystem/observation-category",
                "code": "laboratory"
              }
            ]
          }
        ],
        "code": {
          "coding": [
            {
              "code": "19123-9",
              "system": "http://loinc.org",
              "display": "Magnesium [Mass/volume] in Serum or Plasma"
            }
          ],
          "text": "Magnesium [Mass/volume] in Serum or Plasma"
        },
        "valueQuantity": {
          "system": "http://unitsofmeasure.org",
          "value": 1.7,
          "unit": "mg/dL",
          "code": "mg/dL"
        },
        "referenceRange": [
          {
            "low": {
              "value": 1.6,
              "code": "mg/dL",
              "system": "http://unitsofmeasure.org"
            }
          },
          {
            "high": {
              "value": 2.3,
              "code": "mg/dL",
              "system": "http://unitsofmeasure.org"
            }
          }
        ],
        "text": {
          "status": "generated",
          "div": "<div xmlns=\"http://www.w3.org/1999/xhtml\"><table class=\"hl7__eu__lab__report\"><tr><th>Test</th><th>18-Jun-2017</th><th>Reference&#xA0;Range</th><th>Unit</th></tr><tr><td>Magnesium [Mass/volume] in Serum or Plasma</td><td>1.7</td><td>1.6 - 2.3</td><td></td><td>mg/dL</td></tr></table></div>"
        },
        "status": "final",
        "subject": {
          "reference": "urn:uuid:73e01e54-f4ce-4d8d-a165-5bdbb868507e",
          "display": "Magdolna Balog"
        },
        "effectiveDateTime": "2017-06-18T08:59:00Z",
        "specimen": {
          "reference": "urn:uuid:88ef1e46-3ed0-402e-a053-8676d84e457c"
        }
      }
    },
    {
      "fullUrl": "urn:uuid:b5616019-3558-4b87-b1f5-6d0108834cf2",
      "resource": {
        "resourceType": "Device",
        "id": "b5616019-3558-4b87-b1f5-6d0108834cf2",
        "deviceName": [
          {
            "name": "SYNDERAI Synthetic Generator",
            "type": "manufacturer-name"
          }
        ],
        "version": [
          {
            "value": "5.0"
          }
        ],
        "text": {
          "status": "generated",
          "div": "<div xmlns=\"http://www.w3.org/1999/xhtml\">SYNDERAI Synthetic Generator v5.0</div>"
        },
        "status": "active\"",
        "distinctIdentifier": "synderai-generator-50",
        "manufacturer": "SYNDERAI Project"
      }
    },
    {
      "fullUrl": "urn:uuid:ba0edff2-1562-4084-9007-64c65e576a6f",
      "resource": {
        "resourceType": "Provenance",
        "id": "ba0edff2-1562-4084-9007-64c65e576a6f",
        "target": [
          {
            "reference": "Patient/73e01e54-f4ce-4d8d-a165-5bdbb868507e"
          },
          {
            "reference": "Bundle/b8d8e3d9-2f71-4f09-bb07-df15afb779ad"
          },
          {
            "reference": "Composition/4e397ee0-4f79-4c18-8a55-4f6f5a093a75"
          },
          {
            "reference": "PractitionerRole/f272c30b-e705-4042-bcf6-3cf723650765"
          },
          {
            "reference": "Practitioner/e65d305f-264e-4c9b-9a42-b1039d625266"
          },
          {
            "reference": "PractitionerRole/a5fed4e1-b883-47f6-80ed-066a06a3d4ee"
          },
          {
            "reference": "Organization/5311c778-4d8b-4294-930c-12eb213ad2bf"
          }
        ],
        "activity": {
          "text": "Synthetic Example Data Generation"
        },
        "policy": [
          "https://synderai.net/synderai-synthetic-data-policy"
        ],
        "agent": [
          {
            "type": {
              "text": "author"
            },
            "who": {
              "reference": "Device/b5616019-3558-4b87-b1f5-6d0108834cf2"
            }
          }
        ],
        "reason": [
          {
            "text": "Interoperability Testing and Training (non-clinical use)"
          }
        ],
        "text": {
          "status": "generated",
          "div": "<div xmlns=\"http://www.w3.org/1999/xhtml\">Provenance for SYNDERAI Synthetic Example Data Resource</div>"
        },
        "recorded": "2017-06-18T10:59:00Z"
      }
    },
    {
      "fullUrl": "urn:uuid:f272c30b-e705-4042-bcf6-3cf723650765",
      "resource": {
        "resourceType": "PractitionerRole",
        "id": "f272c30b-e705-4042-bcf6-3cf723650765",
        "meta": {
          "profile": [
            "http://hl7.eu/fhir/base/StructureDefinition/practitionerRole-eu"
          ]
        },
        "text": {
          "status": "generated",
          "div": "<div xmlns=\"http://www.w3.org/1999/xhtml\">Laboratory Role Id: f272c30b-e705-4042-bcf6-3cf723650765</div>"
        },
        "practitioner": {
          "reference": "urn:uuid:e65d305f-264e-4c9b-9a42-b1039d625266"
        }
      }
    },
    {
      "fullUrl": "urn:uuid:e65d305f-264e-4c9b-9a42-b1039d625266",
      "resource": {
        "resourceType": "Practitioner",
        "id": "e65d305f-264e-4c9b-9a42-b1039d625266",
        "meta": {
          "profile": [
            "http://hl7.eu/fhir/base/StructureDefinition/practitioner-eu"
          ]
        },
        "identifier": [
          {
            "assigner": {
              "display": "HL7 Europe"
            },
            "system": "urn:oid:2.16.840.1.113883.2.51.999",
            "value": "72246c81-e449-4935-abb5-230d1ae00b83"
          }
        ],
        "name": [
          {
            "prefix": [
              "dr"
            ],
            "given": [
              "Ex"
            ],
            "family": "Ample"
          }
        ],
        "address": [
          {
            "line": [
              "Laboratoire Central Européenne",
              "Boulevard du Jardin Botanique 32"
            ],
            "postalCode": "1000",
            "city": "Brussels",
            "country": "Belgium"
          }
        ],
        "text": {
          "status": "generated",
          "div": "<div xmlns=\"http://www.w3.org/1999/xhtml\">Laboratory: Laboratoire Central Européenne, 1000 Brussels, Belgium</div>"
        }
      }
    }
  ],
  "type": "document",
  "timestamp": "2017-06-18T10:59:00Z"
}
