{
  "resourceType": "Bundle",
  "id": "096e8318-faeb-4f52-a02c-adeaa078ce30",
  "meta": {
    "profile": [
      "http://hl7.eu/fhir/laboratory/StructureDefinition/Bundle-eu-lab"
    ]
  },
  "identifier": {
    "assigner": {
      "display": "HL7 Europe"
    },
    "system": "urn:oid:2.16.840.1.113883.2.51.999",
    "value": "579fa546-fc49-445a-a46d-39b7f704f187"
  },
  "entry": [
    {
      "fullUrl": "urn:uuid:a79fd956-a7ba-471a-b06f-880e609b7409",
      "resource": {
        "resourceType": "Composition",
        "id": "a79fd956-a7ba-471a-b06f-880e609b7409",
        "meta": {
          "profile": [
            "http://hl7.eu/fhir/laboratory/StructureDefinition/Composition-eu-lab"
          ]
        },
        "identifier": {
          "assigner": {
            "display": "HL7 Europe"
          },
          "system": "urn:oid:2.16.840.1.113883.2.51.999",
          "value": "4e2e0c9d-e787-4277-a377-579c724152f1"
        },
        "author": [
          {
            "reference": "urn:uuid:6a1febe1-6927-4beb-8280-cdbe3a4830ae"
          }
        ],
        "category": [
          {
            "coding": [
              {
                "code": "26436-6",
                "system": "http://loinc.org",
                "display": "Laboratory studies (set)"
              }
            ]
          }
        ],
        "type": {
          "coding": [
            {
              "code": "11502-2",
              "system": "http://loinc.org",
              "display": "Laboratory report"
            }
          ],
          "text": "Laboratory Report"
        },
        "section": [
          {
            "code": {
              "coding": [
                {
                  "code": "26436-6",
                  "system": "http://loinc.org",
                  "display": "Laboratory studies (set)"
                }
              ],
              "text": "Laboratory studies"
            },
            "section": [
              {
                "code": {
                  "coding": [
                    {
                      "code": "$18719-5",
                      "system": "http://loinc.org",
                      "display": "Chemistry studies (set)"
                    }
                  ],
                  "text": "Chemistry"
                },
                "entry": [
                  {
                    "reference": "urn:uuid:2a201619-4b22-470f-ac2a-f04bfe02eee9"
                  },
                  {
                    "reference": "urn:uuid:3a17cdb7-ca29-405b-96d1-1fc990baecfd"
                  },
                  {
                    "reference": "urn:uuid:deefd2fe-efc9-44c2-8e7b-58a5bb5421ee"
                  },
                  {
                    "reference": "urn:uuid:19509eab-b14f-4f45-8e0f-c180b1e0d22e"
                  },
                  {
                    "reference": "urn:uuid:016fd559-3438-46e3-8f9d-fc3eb009c004"
                  },
                  {
                    "reference": "urn:uuid:9e4c24e4-5a39-4593-a3b8-5cb11f53935f"
                  },
                  {
                    "reference": "urn:uuid:af169e60-7159-4c8d-8c09-3f79fa7a7c9c"
                  },
                  {
                    "reference": "urn:uuid:89c2a185-0681-4c56-8a7e-4456c423b02e"
                  },
                  {
                    "reference": "urn:uuid:0cb3b038-9a2b-4e06-b078-eaedf063cef0"
                  }
                ],
                "text": {
                  "status": "generated",
                  "div": "<div xmlns=\"http://www.w3.org/1999/xhtml\"><h3>Chemistry</h3><table class=\"hl7__eu__lab__report\"><thead><tr><th>Test</th><th>18-APR-2019</th><th>Reference&#xA0;Range</th><th>Unit</th></tr></thead><tbody><tr><td>Glucose [Mass/volume] in Serum or Plasma</td><td>95.1</td><td>70 - 140</td><td>mg/dL</td></tr><tr><td>Urea nitrogen [Mass/volume] in Serum or Plasma</td><td>12.7</td><td>7 - 50</td><td>mg/dL</td></tr><tr><td>Creatinine [Mass/volume] in Serum or Plasma</td><td><strong>1.5 H</strong></td><td>0.6 - 1.1</td><td>mg/dL</td></tr><tr><td>Calcium [Mass/volume] in Serum or Plasma</td><td>8.7</td><td>8.5 - 10.5</td><td>mg/dL</td></tr><tr><td>Sodium [Moles/volume] in Serum or Plasma</td><td>140.5</td><td>135 - 145</td><td>mmol/L</td></tr><tr><td>Potassium [Moles/volume] in Serum or Plasma</td><td>5.0</td><td>3.5 - 5.1</td><td>mmol/L</td></tr><tr><td>Chloride [Moles/volume] in Serum or Plasma</td><td><strong>109.1 H</strong></td><td>98 - 108</td><td>mmol/L</td></tr><tr><td>Carbon dioxide, total [Moles/volume] in Serum or Plasma</td><td>24.4</td><td>22 - 32</td><td>mmol/L</td></tr><tr><td>Ketones [Presence] in Urine by Test strip</td><td>Urine ketone test = trace</td><td></td><td></td></tr></tbody></table></div>"
                },
                "title": "Chemistry"
              },
              {
                "code": {
                  "coding": [
                    {
                      "code": "$18729-4",
                      "system": "http://loinc.org",
                      "display": "Urinalysis studies (set)"
                    }
                  ],
                  "text": "Urinalysis"
                },
                "entry": [
                  {
                    "reference": "urn:uuid:dbd874de-715e-45e9-bc84-63cdf571b40a"
                  },
                  {
                    "reference": "urn:uuid:0be99eed-0100-4fcc-ae11-4c8c7b8dc2ce"
                  },
                  {
                    "reference": "urn:uuid:580808cb-77f2-437f-b623-e15bfc0f6164"
                  },
                  {
                    "reference": "urn:uuid:22fe5ef3-e099-4a05-8d3d-717e500980f1"
                  },
                  {
                    "reference": "urn:uuid:2bbc9f64-9374-47c2-a1f1-b5db05e5819e"
                  },
                  {
                    "reference": "urn:uuid:947fd558-face-4f71-aba5-6bec94688d5d"
                  },
                  {
                    "reference": "urn:uuid:ca7a0162-090b-4d67-b3b3-f5f8baf741b3"
                  },
                  {
                    "reference": "urn:uuid:7334bfaa-e910-4912-8656-2064d04e0cca"
                  },
                  {
                    "reference": "urn:uuid:88e1bba4-75d4-42fc-8158-7aee561da13a"
                  },
                  {
                    "reference": "urn:uuid:0827659f-ddd1-409b-bab9-414f5f4a576a"
                  },
                  {
                    "reference": "urn:uuid:bc74c82a-4a64-41f2-9dbd-1f0e18093124"
                  },
                  {
                    "reference": "urn:uuid:890dfc59-49eb-45a4-954e-ecd3e061c3a3"
                  }
                ],
                "text": {
                  "status": "generated",
                  "div": "<div xmlns=\"http://www.w3.org/1999/xhtml\"><h3>Urinalysis</h3><table class=\"hl7__eu__lab__report\"><thead><tr><th>Test</th><th>18-APR-2019</th><th>Reference&#xA0;Range</th><th>Unit</th></tr></thead><tbody><tr><td>Glucose [Mass/volume] in Urine by Test strip</td><td><strong>1.4 H</strong></td><td>0.8 - 0</td><td>mg/dL</td></tr><tr><td>Glucose [Presence] in Urine by Test strip</td><td>++</td><td></td><td></td></tr><tr><td>Bilirubin.total [Mass/volume] in Urine by Test strip</td><td>0.8</td><td>0 - 1</td><td>mg/dL</td></tr><tr><td>Bilirubin.total [Presence] in Urine by Test strip</td><td>Finding of bilirubin in urine</td><td></td><td></td></tr><tr><td>Ketones [Mass/volume] in Urine by Test strip</td><td>12.9</td><td>0 - 20</td><td>mg/dL</td></tr><tr><td>Specific gravity of Urine by Test strip</td><td><strong>1.0 L</strong></td><td>1.01 - 1.03</td><td>{nominal}</td></tr><tr><td>pH of Urine by Test strip</td><td>6.3</td><td>4.6 - 7</td><td>pH</td></tr><tr><td>Protein [Mass/volume] in Urine by Test strip</td><td><strong>66.2 H</strong></td><td>0 - 15</td><td>mg/dL</td></tr><tr><td>Protein [Presence] in Urine by Test strip</td><td>Urine protein test = +</td><td></td><td></td></tr><tr><td>Nitrite [Presence] in Urine by Test strip</td><td>Urine nitrite negative</td><td></td><td></td></tr><tr><td>Hemoglobin [Presence] in Urine by Test strip</td><td>Urine blood test = negative</td><td></td><td></td></tr><tr><td>Leukocyte esterase [Presence] in Urine by Test strip</td><td>Urine leukocyte test negative</td><td></td><td></td></tr></tbody></table></div>"
                },
                "title": "Urinalysis"
              },
              {
                "code": {
                  "coding": [
                    {
                      "code": "$LP7846-1",
                      "system": "http://loinc.org",
                      "display": "Specimen information"
                    }
                  ],
                  "text": "Specimen information"
                },
                "entry": [
                  {
                    "reference": "urn:uuid:a25ef50d-9444-4c64-8fe8-1a424408e4c8"
                  },
                  {
                    "reference": "urn:uuid:122a1773-03af-4549-a672-82dd15a0ef15"
                  },
                  {
                    "reference": "urn:uuid:afa3b3de-7f28-4926-9f47-87167f2f1a65"
                  },
                  {
                    "reference": "urn:uuid:119a0cf2-8ff7-4411-9058-873f2f7f938a"
                  }
                ],
                "text": {
                  "status": "generated",
                  "div": "<div xmlns=\"http://www.w3.org/1999/xhtml\"><h3>Specimen information</h3><table class=\"hl7__eu__lab__report\"><thead><tr><th>Test</th><th>18-APR-2019</th><th>Specimen</th><th></th></tr></thead><tbody><tr><td>Appearance of Urine</td><td>Cloudy urine</td><td>Urine</td><td></td></tr><tr><td>Odor of Urine</td><td>Urine smell ammoniacal</td><td>Urine</td><td></td></tr><tr><td>Clarity of Urine</td><td>Translucent</td><td>Urine</td><td></td></tr><tr><td>Color of Urine</td><td>Brown color</td><td>Urine</td><td></td></tr></tbody></table></div>"
                },
                "title": "Specimen information"
              }
            ],
            "title": "Laboratory Report"
          },
          {
            "text": {
              "status": "generated",
              "div": "<div xmlns=\"http://www.w3.org/1999/xhtml\"><h3>Annotation</h3><table class=\"hl7__eu__lab__report\"><tr><th>Conclusion and Recommendations based on this report and previous findings known to us</th></tr><tr><td>The patient shows mildly elevated serum creatinine, suggesting possible renal impairment, and elevated chloride. Urinalysis reveals proteinuria, glucosuria, low specific gravity, and abnormal urine appearance (cloudy, brown, ammoniacal), but no hematuria, nitrites, or leukocytes. These findings may indicate early diabetic nephropathy or other renal dysfunction; urinary tract infection is less likely. Recommend further renal evaluation and correlation with clinical context.</td></tr></table></div>"
            },
            "code": {
              "coding": [
                {
                  "system": "http://loinc.org",
                  "code": "48767-8",
                  "display": "Annotation comment"
                }
              ]
            },
            "title": "Annotation comment"
          }
        ],
        "status": "final",
        "subject": {
          "reference": "urn:uuid:da20fcfa-671d-426e-b895-841d4f2dbe6b",
          "display": "Marthe Gallet"
        },
        "date": "2019-04-18T21:05:43Z",
        "title": "Laboratory Report",
        "confidentiality": "N"
      }
    },
    {
      "fullUrl": "urn:uuid:a9c05eb1-4060-44bf-a9f3-b5c28fb17498",
      "resource": {
        "resourceType": "DiagnosticReport",
        "id": "a9c05eb1-4060-44bf-a9f3-b5c28fb17498",
        "meta": {
          "profile": [
            "http://hl7.eu/fhir/laboratory/StructureDefinition/DiagnosticReport-eu-lab"
          ]
        },
        "identifier": [
          {
            "assigner": {
              "display": "HL7 Europe"
            },
            "system": "urn:oid:2.16.840.1.113883.2.51.999",
            "value": "78a2103f-0d49-4386-8540-28b91c3f988d"
          }
        ],
        "extension": [
          {
            "url": "http://hl7.org/fhir/5.0/StructureDefinition/extension-DiagnosticReport.composition",
            "valueReference": {
              "reference": "urn:uuid:4e2e0c9d-e787-4277-a377-579c724152f1"
            }
          }
        ],
        "category": [
          {
            "coding": [
              {
                "code": "26436-6",
                "system": "http://loinc.org",
                "display": "Laboratory studies (set)"
              }
            ]
          }
        ],
        "specimen": [
          {
            "reference": "urn:uuid:62c86a6d-2739-4d8b-9186-8a7c032ac6d0"
          },
          {
            "reference": "urn:uuid:897bce22-5926-4675-88c3-091b22283701"
          }
        ],
        "result": [
          {
            "reference": "urn:uuid:2a201619-4b22-470f-ac2a-f04bfe02eee9"
          },
          {
            "reference": "urn:uuid:3a17cdb7-ca29-405b-96d1-1fc990baecfd"
          },
          {
            "reference": "urn:uuid:deefd2fe-efc9-44c2-8e7b-58a5bb5421ee"
          },
          {
            "reference": "urn:uuid:19509eab-b14f-4f45-8e0f-c180b1e0d22e"
          },
          {
            "reference": "urn:uuid:016fd559-3438-46e3-8f9d-fc3eb009c004"
          },
          {
            "reference": "urn:uuid:9e4c24e4-5a39-4593-a3b8-5cb11f53935f"
          },
          {
            "reference": "urn:uuid:af169e60-7159-4c8d-8c09-3f79fa7a7c9c"
          },
          {
            "reference": "urn:uuid:89c2a185-0681-4c56-8a7e-4456c423b02e"
          },
          {
            "reference": "urn:uuid:a25ef50d-9444-4c64-8fe8-1a424408e4c8"
          },
          {
            "reference": "urn:uuid:122a1773-03af-4549-a672-82dd15a0ef15"
          },
          {
            "reference": "urn:uuid:afa3b3de-7f28-4926-9f47-87167f2f1a65"
          },
          {
            "reference": "urn:uuid:119a0cf2-8ff7-4411-9058-873f2f7f938a"
          },
          {
            "reference": "urn:uuid:dbd874de-715e-45e9-bc84-63cdf571b40a"
          },
          {
            "reference": "urn:uuid:0be99eed-0100-4fcc-ae11-4c8c7b8dc2ce"
          },
          {
            "reference": "urn:uuid:580808cb-77f2-437f-b623-e15bfc0f6164"
          },
          {
            "reference": "urn:uuid:22fe5ef3-e099-4a05-8d3d-717e500980f1"
          },
          {
            "reference": "urn:uuid:2bbc9f64-9374-47c2-a1f1-b5db05e5819e"
          },
          {
            "reference": "urn:uuid:0cb3b038-9a2b-4e06-b078-eaedf063cef0"
          },
          {
            "reference": "urn:uuid:947fd558-face-4f71-aba5-6bec94688d5d"
          },
          {
            "reference": "urn:uuid:ca7a0162-090b-4d67-b3b3-f5f8baf741b3"
          },
          {
            "reference": "urn:uuid:7334bfaa-e910-4912-8656-2064d04e0cca"
          },
          {
            "reference": "urn:uuid:88e1bba4-75d4-42fc-8158-7aee561da13a"
          },
          {
            "reference": "urn:uuid:0827659f-ddd1-409b-bab9-414f5f4a576a"
          },
          {
            "reference": "urn:uuid:bc74c82a-4a64-41f2-9dbd-1f0e18093124"
          },
          {
            "reference": "urn:uuid:890dfc59-49eb-45a4-954e-ecd3e061c3a3"
          }
        ],
        "status": "registered",
        "code": {
          "coding": [
            {
              "code": "11502-2",
              "system": "http://loinc.org",
              "display": "Laboratory report"
            }
          ]
        },
        "subject": {
          "reference": "urn:uuid:da20fcfa-671d-426e-b895-841d4f2dbe6b",
          "display": "Marthe Gallet"
        }
      }
    },
    {
      "fullUrl": "urn:uuid:da20fcfa-671d-426e-b895-841d4f2dbe6b",
      "resource": {
        "resourceType": "Patient",
        "id": "da20fcfa-671d-426e-b895-841d4f2dbe6b",
        "meta": {
          "security": [
            {
              "system": "http://terminology.hl7.org/CodeSystem/v3-ActReason",
              "code": "HTEST"
            },
            {
              "system": "http://terminology.hl7.org/CodeSystem/v3-ActReason",
              "code": "TRAIN"
            }
          ],
          "tag": [
            {
              "system": "https://synderai.net/fhir/CodeSystem/tags",
              "code": "synthetic",
              "display": "SYNDERAI Synthetic data"
            }
          ],
          "profile": [
            "http://hl7.eu/fhir/base/StructureDefinition/patient-eu-core"
          ]
        },
        "identifier": [
          {
            "type": {
              "coding": [
                {
                  "code": "PT",
                  "system": "http://terminology.hl7.org/CodeSystem/v2-0203"
                }
              ]
            },
            "system": "http://ec.europa.eu/identifier/eci",
            "value": "9444-947487-6"
          },
          {
            "type": {
              "coding": [
                {
                  "code": "MR",
                  "system": "http://terminology.hl7.org/CodeSystem/v2-0203"
                }
              ]
            },
            "system": "http://local.setting.eu/identifier",
            "value": "854228d5-a476-2d9c-a1d7-c3202375a617"
          }
        ],
        "name": [
          {
            "family": "Gallet"
          },
          {
            "given": [
              "Marthe"
            ]
          },
          {
            "text": "Marthe Gallet"
          }
        ],
        "address": [
          {
            "line": [
              "3, rue Emmanuel Goncalves"
            ],
            "use": "home",
            "type": "physical",
            "postalCode": "49490",
            "city": "Briand",
            "country": "France"
          }
        ],
        "telecom": [
          {
            "system": "phone",
            "value": "+33 1 70 99 82 74"
          }
        ],
        "extension": [
          {
            "url": "http://hl7.org/fhir/StructureDefinition/patient-nationality",
            "valueCodeableConcept": {
              "coding": [
                {
                  "code": "FR",
                  "system": "http://hl7.org/fhir/ValueSet/country"
                }
              ]
            }
          }
        ],
        "text": {
          "status": "generated",
          "div": "<div xmlns=\"http://www.w3.org/1999/xhtml\"><table class=\"hl7__ips\"><tr><td>Marthe Gallet</td><td>female</td><td>29-Oct-1950</td></tr></table></div>"
        },
        "gender": "female",
        "birthDate": "1950-10-29"
      }
    },
    {
      "fullUrl": "urn:uuid:c1b0828d-c8c8-4d00-8cf9-c5821cf6c25c",
      "resource": {
        "resourceType": "ServiceRequest",
        "id": "c1b0828d-c8c8-4d00-8cf9-c5821cf6c25c",
        "meta": {
          "profile": [
            "http://hl7.eu/fhir/laboratory/StructureDefinition/ServiceRequest-eu-lab"
          ]
        },
        "identifier": [
          {
            "system": "http://example.org",
            "value": "2dae75c7-646f-47d3-9ca5-f0d8f76da3f3"
          }
        ],
        "specimen": [
          {
            "reference": "urn:uuid:62c86a6d-2739-4d8b-9186-8a7c032ac6d0"
          },
          {
            "reference": "urn:uuid:897bce22-5926-4675-88c3-091b22283701"
          }
        ],
        "reasonCode": [
          {
            "coding": [
              {
                "code": "431856006",
                "system": "http://snomed.info/sct",
                "display": "Chronic kidney disease stage 2"
              }
            ]
          },
          {
            "coding": [
              {
                "code": "90781000119102",
                "system": "http://snomed.info/sct",
                "display": "Microalbuminuria due to type 2 diabetes mellitus"
              }
            ]
          },
          {
            "coding": [
              {
                "code": "127013003",
                "system": "http://snomed.info/sct",
                "display": "Disorder of kidney due to diabetes mellitus"
              }
            ]
          },
          {
            "coding": [
              {
                "code": "431855005",
                "system": "http://snomed.info/sct",
                "display": "Chronic kidney disease stage 1"
              }
            ]
          },
          {
            "coding": [
              {
                "code": "55822004",
                "system": "http://snomed.info/sct",
                "display": "Hyperlipidemia"
              }
            ]
          },
          {
            "coding": [
              {
                "code": "59621000",
                "system": "http://snomed.info/sct",
                "display": "Essential hypertension"
              }
            ]
          }
        ],
        "status": "active",
        "intent": "order",
        "code": {
          "coding": [
            {
              "code": "108252007",
              "system": "http://snomed.info/sct",
              "display": "Laboratory procedure"
            }
          ]
        },
        "subject": {
          "reference": "urn:uuid:da20fcfa-671d-426e-b895-841d4f2dbe6b",
          "display": "Marthe Gallet"
        },
        "requester": {
          "reference": "urn:uuid:56557eae-1d8d-4e5e-bfb2-2fbadecf370d"
        }
      }
    },
    {
      "fullUrl": "urn:uuid:56557eae-1d8d-4e5e-bfb2-2fbadecf370d",
      "resource": {
        "resourceType": "PractitionerRole",
        "id": "56557eae-1d8d-4e5e-bfb2-2fbadecf370d",
        "meta": {
          "profile": [
            "http://hl7.eu/fhir/base/StructureDefinition/practitionerRole-eu"
          ]
        },
        "text": {
          "status": "generated",
          "div": "<div xmlns=\"http://www.w3.org/1999/xhtml\">Provider Role Id: 56557eae-1d8d-4e5e-bfb2-2fbadecf370d</div>"
        },
        "organization": {
          "reference": "urn:uuid:28fa0ed1-3e06-47d3-b4a1-0d9df398737d"
        }
      }
    },
    {
      "fullUrl": "urn:uuid:28fa0ed1-3e06-47d3-b4a1-0d9df398737d",
      "resource": {
        "resourceType": "Organization",
        "id": "28fa0ed1-3e06-47d3-b4a1-0d9df398737d",
        "meta": {
          "profile": [
            "http://hl7.eu/fhir/base/StructureDefinition/organization-eu"
          ]
        },
        "identifier": [
          {
            "assigner": {
              "display": "HL7 Europe"
            },
            "system": "urn:oid:2.16.840.1.113883.2.51.999",
            "value": "dad332fb-f06e-4252-a443-8cac85492ec2"
          }
        ],
        "address": [
          {
            "line": [
              "Rue Larrey nan"
            ],
            "city": "Angers",
            "postalCode": "49100",
            "country": "France"
          }
        ],
        "text": {
          "status": "generated",
          "div": "<div xmlns=\"http://www.w3.org/1999/xhtml\">Provider Organization: CHU d&#039;Angers</div>"
        },
        "name": "CHU d&#039;Angers"
      }
    },
    {
      "fullUrl": "urn:uuid:62c86a6d-2739-4d8b-9186-8a7c032ac6d0",
      "resource": {
        "resourceType": "Specimen",
        "id": "62c86a6d-2739-4d8b-9186-8a7c032ac6d0",
        "meta": {
          "profile": [
            "http://hl7.eu/fhir/laboratory/StructureDefinition/Specimen-eu-lab"
          ]
        },
        "collection": {
          "collectedDateTime": "2019-04-18"
        },
        "text": {
          "status": "generated",
          "div": "<div xmlns=\"http://www.w3.org/1999/xhtml\"><table class=\"hl7__eu__lab__report\"><tr><th>Specimen</th><th>Collection Date</th></tr><tr><td>Acellular blood (serum or plasma) specimen</td><td><span class=\"nb\">18-Apr-2019</span></td></tr></table></div>"
        },
        "type": {
          "coding": [
            {
              "code": "122592007",
              "system": "http://snomed.info/sct",
              "display": "Acellular blood (serum or plasma) specimen"
            }
          ]
        }
      }
    },
    {
      "fullUrl": "urn:uuid:897bce22-5926-4675-88c3-091b22283701",
      "resource": {
        "resourceType": "Specimen",
        "id": "897bce22-5926-4675-88c3-091b22283701",
        "meta": {
          "profile": [
            "http://hl7.eu/fhir/laboratory/StructureDefinition/Specimen-eu-lab"
          ]
        },
        "collection": {
          "collectedDateTime": "2019-04-18"
        },
        "text": {
          "status": "generated",
          "div": "<div xmlns=\"http://www.w3.org/1999/xhtml\"><table class=\"hl7__eu__lab__report\"><tr><th>Specimen</th><th>Collection Date</th></tr><tr><td>Urine specimen</td><td><span class=\"nb\">18-Apr-2019</span></td></tr></table></div>"
        },
        "type": {
          "coding": [
            {
              "code": "122575003",
              "system": "http://snomed.info/sct",
              "display": "Urine specimen"
            }
          ]
        }
      }
    },
    {
      "fullUrl": "urn:uuid:2a201619-4b22-470f-ac2a-f04bfe02eee9",
      "resource": {
        "resourceType": "Observation",
        "id": "2a201619-4b22-470f-ac2a-f04bfe02eee9",
        "meta": {
          "profile": [
            "http://hl7.eu/fhir/laboratory/StructureDefinition/Observation-resultslab-eu-lab"
          ]
        },
        "performer": [
          {
            "display": "The Central European Lab"
          }
        ],
        "category": [
          {
            "coding": [
              {
                "system": "http://terminology.hl7.org/CodeSystem/observation-category",
                "code": "laboratory"
              }
            ]
          }
        ],
        "code": {
          "coding": [
            {
              "code": "2345-7",
              "system": "http://loinc.org",
              "display": "Glucose [Mass/volume] in Serum or Plasma"
            }
          ],
          "text": "Glucose [Mass/volume] in Serum or Plasma"
        },
        "valueQuantity": {
          "system": "http://unitsofmeasure.org",
          "value": 95.1,
          "unit": "mg/dL",
          "code": "mg/dL"
        },
        "referenceRange": [
          {
            "low": {
              "value": 70,
              "code": "mg/dL",
              "system": "http://unitsofmeasure.org"
            }
          },
          {
            "high": {
              "value": 140,
              "code": "mg/dL",
              "system": "http://unitsofmeasure.org"
            }
          }
        ],
        "text": {
          "status": "generated",
          "div": "<div xmlns=\"http://www.w3.org/1999/xhtml\"><table class=\"hl7__eu__lab__report\"><tr><th>Test</th><th>18-Apr-2019</th><th>Reference&#xA0;Range</th><th>Unit</th></tr><tr><td>Glucose [Mass/volume] in Serum or Plasma</td><td>95.1</td><td>70 - 140</td><td></td><td>mg/dL</td></tr></table></div>"
        },
        "status": "final",
        "subject": {
          "reference": "urn:uuid:da20fcfa-671d-426e-b895-841d4f2dbe6b",
          "display": "Marthe Gallet"
        },
        "effectiveDateTime": "2019-04-18T19:05:43Z",
        "specimen": {
          "reference": "urn:uuid:62c86a6d-2739-4d8b-9186-8a7c032ac6d0"
        }
      }
    },
    {
      "fullUrl": "urn:uuid:3a17cdb7-ca29-405b-96d1-1fc990baecfd",
      "resource": {
        "resourceType": "Observation",
        "id": "3a17cdb7-ca29-405b-96d1-1fc990baecfd",
        "meta": {
          "profile": [
            "http://hl7.eu/fhir/laboratory/StructureDefinition/Observation-resultslab-eu-lab"
          ]
        },
        "performer": [
          {
            "display": "The Central European Lab"
          }
        ],
        "category": [
          {
            "coding": [
              {
                "system": "http://terminology.hl7.org/CodeSystem/observation-category",
                "code": "laboratory"
              }
            ]
          }
        ],
        "code": {
          "coding": [
            {
              "code": "3094-0",
              "system": "http://loinc.org",
              "display": "Urea nitrogen [Mass/volume] in Serum or Plasma"
            }
          ],
          "text": "Urea nitrogen [Mass/volume] in Serum or Plasma"
        },
        "valueQuantity": {
          "system": "http://unitsofmeasure.org",
          "value": 12.7,
          "unit": "mg/dL",
          "code": "mg/dL"
        },
        "referenceRange": [
          {
            "low": {
              "value": 7,
              "code": "mg/dL",
              "system": "http://unitsofmeasure.org"
            }
          },
          {
            "high": {
              "value": 50,
              "code": "mg/dL",
              "system": "http://unitsofmeasure.org"
            }
          }
        ],
        "text": {
          "status": "generated",
          "div": "<div xmlns=\"http://www.w3.org/1999/xhtml\"><table class=\"hl7__eu__lab__report\"><tr><th>Test</th><th>18-Apr-2019</th><th>Reference&#xA0;Range</th><th>Unit</th></tr><tr><td>Urea nitrogen [Mass/volume] in Serum or Plasma</td><td>12.7</td><td>7 - 50</td><td></td><td>mg/dL</td></tr></table></div>"
        },
        "status": "final",
        "subject": {
          "reference": "urn:uuid:da20fcfa-671d-426e-b895-841d4f2dbe6b",
          "display": "Marthe Gallet"
        },
        "effectiveDateTime": "2019-04-18T19:05:43Z",
        "specimen": {
          "reference": "urn:uuid:62c86a6d-2739-4d8b-9186-8a7c032ac6d0"
        }
      }
    },
    {
      "fullUrl": "urn:uuid:deefd2fe-efc9-44c2-8e7b-58a5bb5421ee",
      "resource": {
        "resourceType": "Observation",
        "id": "deefd2fe-efc9-44c2-8e7b-58a5bb5421ee",
        "meta": {
          "profile": [
            "http://hl7.eu/fhir/laboratory/StructureDefinition/Observation-resultslab-eu-lab"
          ]
        },
        "performer": [
          {
            "display": "The Central European Lab"
          }
        ],
        "category": [
          {
            "coding": [
              {
                "system": "http://terminology.hl7.org/CodeSystem/observation-category",
                "code": "laboratory"
              }
            ]
          }
        ],
        "code": {
          "coding": [
            {
              "code": "2160-0",
              "system": "http://loinc.org",
              "display": "Creatinine [Mass/volume] in Serum or Plasma"
            }
          ],
          "text": "Creatinine [Mass/volume] in Serum or Plasma"
        },
        "valueQuantity": {
          "system": "http://unitsofmeasure.org",
          "value": 1.5,
          "unit": "mg/dL",
          "code": "mg/dL"
        },
        "referenceRange": [
          {
            "low": {
              "value": 0.6,
              "code": "mg/dL",
              "system": "http://unitsofmeasure.org"
            }
          },
          {
            "high": {
              "value": 1.1,
              "code": "mg/dL",
              "system": "http://unitsofmeasure.org"
            }
          }
        ],
        "interpretation": [
          {
            "coding": [
              {
                "code": "H",
                "system": "http://terminology.hl7.org/CodeSystem/v3-ObservationInterpretation",
                "display": "High"
              }
            ]
          }
        ],
        "text": {
          "status": "generated",
          "div": "<div xmlns=\"http://www.w3.org/1999/xhtml\"><table class=\"hl7__eu__lab__report\"><tr><th>Test</th><th>18-Apr-2019</th><th>Reference&#xA0;Range</th><th>Unit</th></tr><tr><td>Creatinine [Mass/volume] in Serum or Plasma</td><td>1.5</td><td>0.6 - 1.1</td><td>H</td><td>mg/dL</td></tr></table></div>"
        },
        "status": "final",
        "subject": {
          "reference": "urn:uuid:da20fcfa-671d-426e-b895-841d4f2dbe6b",
          "display": "Marthe Gallet"
        },
        "effectiveDateTime": "2019-04-18T19:05:43Z",
        "specimen": {
          "reference": "urn:uuid:62c86a6d-2739-4d8b-9186-8a7c032ac6d0"
        }
      }
    },
    {
      "fullUrl": "urn:uuid:19509eab-b14f-4f45-8e0f-c180b1e0d22e",
      "resource": {
        "resourceType": "Observation",
        "id": "19509eab-b14f-4f45-8e0f-c180b1e0d22e",
        "meta": {
          "profile": [
            "http://hl7.eu/fhir/laboratory/StructureDefinition/Observation-resultslab-eu-lab"
          ]
        },
        "performer": [
          {
            "display": "The Central European Lab"
          }
        ],
        "category": [
          {
            "coding": [
              {
                "system": "http://terminology.hl7.org/CodeSystem/observation-category",
                "code": "laboratory"
              }
            ]
          }
        ],
        "code": {
          "coding": [
            {
              "code": "17861-6",
              "system": "http://loinc.org",
              "display": "Calcium [Mass/volume] in Serum or Plasma"
            }
          ],
          "text": "Calcium [Mass/volume] in Serum or Plasma"
        },
        "valueQuantity": {
          "system": "http://unitsofmeasure.org",
          "value": 8.7,
          "unit": "mg/dL",
          "code": "mg/dL"
        },
        "referenceRange": [
          {
            "low": {
              "value": 8.5,
              "code": "mg/dL",
              "system": "http://unitsofmeasure.org"
            }
          },
          {
            "high": {
              "value": 10.5,
              "code": "mg/dL",
              "system": "http://unitsofmeasure.org"
            }
          }
        ],
        "text": {
          "status": "generated",
          "div": "<div xmlns=\"http://www.w3.org/1999/xhtml\"><table class=\"hl7__eu__lab__report\"><tr><th>Test</th><th>18-Apr-2019</th><th>Reference&#xA0;Range</th><th>Unit</th></tr><tr><td>Calcium [Mass/volume] in Serum or Plasma</td><td>8.7</td><td>8.5 - 10.5</td><td></td><td>mg/dL</td></tr></table></div>"
        },
        "status": "final",
        "subject": {
          "reference": "urn:uuid:da20fcfa-671d-426e-b895-841d4f2dbe6b",
          "display": "Marthe Gallet"
        },
        "effectiveDateTime": "2019-04-18T19:05:43Z",
        "specimen": {
          "reference": "urn:uuid:62c86a6d-2739-4d8b-9186-8a7c032ac6d0"
        }
      }
    },
    {
      "fullUrl": "urn:uuid:016fd559-3438-46e3-8f9d-fc3eb009c004",
      "resource": {
        "resourceType": "Observation",
        "id": "016fd559-3438-46e3-8f9d-fc3eb009c004",
        "meta": {
          "profile": [
            "http://hl7.eu/fhir/laboratory/StructureDefinition/Observation-resultslab-eu-lab"
          ]
        },
        "performer": [
          {
            "display": "The Central European Lab"
          }
        ],
        "category": [
          {
            "coding": [
              {
                "system": "http://terminology.hl7.org/CodeSystem/observation-category",
                "code": "laboratory"
              }
            ]
          }
        ],
        "code": {
          "coding": [
            {
              "code": "2951-2",
              "system": "http://loinc.org",
              "display": "Sodium [Moles/volume] in Serum or Plasma"
            }
          ],
          "text": "Sodium [Moles/volume] in Serum or Plasma"
        },
        "valueQuantity": {
          "system": "http://unitsofmeasure.org",
          "value": 140.5,
          "unit": "mmol/L",
          "code": "mmol/L"
        },
        "referenceRange": [
          {
            "low": {
              "value": 135,
              "code": "mmol/L",
              "system": "http://unitsofmeasure.org"
            }
          },
          {
            "high": {
              "value": 145,
              "code": "mmol/L",
              "system": "http://unitsofmeasure.org"
            }
          }
        ],
        "text": {
          "status": "generated",
          "div": "<div xmlns=\"http://www.w3.org/1999/xhtml\"><table class=\"hl7__eu__lab__report\"><tr><th>Test</th><th>18-Apr-2019</th><th>Reference&#xA0;Range</th><th>Unit</th></tr><tr><td>Sodium [Moles/volume] in Serum or Plasma</td><td>140.5</td><td>135 - 145</td><td></td><td>mmol/L</td></tr></table></div>"
        },
        "status": "final",
        "subject": {
          "reference": "urn:uuid:da20fcfa-671d-426e-b895-841d4f2dbe6b",
          "display": "Marthe Gallet"
        },
        "effectiveDateTime": "2019-04-18T19:05:43Z",
        "specimen": {
          "reference": "urn:uuid:62c86a6d-2739-4d8b-9186-8a7c032ac6d0"
        }
      }
    },
    {
      "fullUrl": "urn:uuid:9e4c24e4-5a39-4593-a3b8-5cb11f53935f",
      "resource": {
        "resourceType": "Observation",
        "id": "9e4c24e4-5a39-4593-a3b8-5cb11f53935f",
        "meta": {
          "profile": [
            "http://hl7.eu/fhir/laboratory/StructureDefinition/Observation-resultslab-eu-lab"
          ]
        },
        "performer": [
          {
            "display": "The Central European Lab"
          }
        ],
        "category": [
          {
            "coding": [
              {
                "system": "http://terminology.hl7.org/CodeSystem/observation-category",
                "code": "laboratory"
              }
            ]
          }
        ],
        "code": {
          "coding": [
            {
              "code": "2823-3",
              "system": "http://loinc.org",
              "display": "Potassium [Moles/volume] in Serum or Plasma"
            }
          ],
          "text": "Potassium [Moles/volume] in Serum or Plasma"
        },
        "valueQuantity": {
          "system": "http://unitsofmeasure.org",
          "value": 5,
          "unit": "mmol/L",
          "code": "mmol/L"
        },
        "referenceRange": [
          {
            "low": {
              "value": 3.5,
              "code": "mmol/L",
              "system": "http://unitsofmeasure.org"
            }
          },
          {
            "high": {
              "value": 5.1,
              "code": "mmol/L",
              "system": "http://unitsofmeasure.org"
            }
          }
        ],
        "text": {
          "status": "generated",
          "div": "<div xmlns=\"http://www.w3.org/1999/xhtml\"><table class=\"hl7__eu__lab__report\"><tr><th>Test</th><th>18-Apr-2019</th><th>Reference&#xA0;Range</th><th>Unit</th></tr><tr><td>Potassium [Moles/volume] in Serum or Plasma</td><td>5.0</td><td>3.5 - 5.1</td><td></td><td>mmol/L</td></tr></table></div>"
        },
        "status": "final",
        "subject": {
          "reference": "urn:uuid:da20fcfa-671d-426e-b895-841d4f2dbe6b",
          "display": "Marthe Gallet"
        },
        "effectiveDateTime": "2019-04-18T19:05:43Z",
        "specimen": {
          "reference": "urn:uuid:62c86a6d-2739-4d8b-9186-8a7c032ac6d0"
        }
      }
    },
    {
      "fullUrl": "urn:uuid:af169e60-7159-4c8d-8c09-3f79fa7a7c9c",
      "resource": {
        "resourceType": "Observation",
        "id": "af169e60-7159-4c8d-8c09-3f79fa7a7c9c",
        "meta": {
          "profile": [
            "http://hl7.eu/fhir/laboratory/StructureDefinition/Observation-resultslab-eu-lab"
          ]
        },
        "performer": [
          {
            "display": "The Central European Lab"
          }
        ],
        "category": [
          {
            "coding": [
              {
                "system": "http://terminology.hl7.org/CodeSystem/observation-category",
                "code": "laboratory"
              }
            ]
          }
        ],
        "code": {
          "coding": [
            {
              "code": "2075-0",
              "system": "http://loinc.org",
              "display": "Chloride [Moles/volume] in Serum or Plasma"
            }
          ],
          "text": "Chloride [Moles/volume] in Serum or Plasma"
        },
        "valueQuantity": {
          "system": "http://unitsofmeasure.org",
          "value": 109.1,
          "unit": "mmol/L",
          "code": "mmol/L"
        },
        "referenceRange": [
          {
            "low": {
              "value": 98,
              "code": "mmol/L",
              "system": "http://unitsofmeasure.org"
            }
          },
          {
            "high": {
              "value": 108,
              "code": "mmol/L",
              "system": "http://unitsofmeasure.org"
            }
          }
        ],
        "interpretation": [
          {
            "coding": [
              {
                "code": "H",
                "system": "http://terminology.hl7.org/CodeSystem/v3-ObservationInterpretation",
                "display": "High"
              }
            ]
          }
        ],
        "text": {
          "status": "generated",
          "div": "<div xmlns=\"http://www.w3.org/1999/xhtml\"><table class=\"hl7__eu__lab__report\"><tr><th>Test</th><th>18-Apr-2019</th><th>Reference&#xA0;Range</th><th>Unit</th></tr><tr><td>Chloride [Moles/volume] in Serum or Plasma</td><td>109.1</td><td>98 - 108</td><td>H</td><td>mmol/L</td></tr></table></div>"
        },
        "status": "final",
        "subject": {
          "reference": "urn:uuid:da20fcfa-671d-426e-b895-841d4f2dbe6b",
          "display": "Marthe Gallet"
        },
        "effectiveDateTime": "2019-04-18T19:05:43Z",
        "specimen": {
          "reference": "urn:uuid:62c86a6d-2739-4d8b-9186-8a7c032ac6d0"
        }
      }
    },
    {
      "fullUrl": "urn:uuid:89c2a185-0681-4c56-8a7e-4456c423b02e",
      "resource": {
        "resourceType": "Observation",
        "id": "89c2a185-0681-4c56-8a7e-4456c423b02e",
        "meta": {
          "profile": [
            "http://hl7.eu/fhir/laboratory/StructureDefinition/Observation-resultslab-eu-lab"
          ]
        },
        "performer": [
          {
            "display": "The Central European Lab"
          }
        ],
        "category": [
          {
            "coding": [
              {
                "system": "http://terminology.hl7.org/CodeSystem/observation-category",
                "code": "laboratory"
              }
            ]
          }
        ],
        "code": {
          "coding": [
            {
              "code": "2028-9",
              "system": "http://loinc.org",
              "display": "Carbon dioxide, total [Moles/volume] in Serum or Plasma"
            }
          ],
          "text": "Carbon dioxide, total [Moles/volume] in Serum or Plasma"
        },
        "valueQuantity": {
          "system": "http://unitsofmeasure.org",
          "value": 24.4,
          "unit": "mmol/L",
          "code": "mmol/L"
        },
        "referenceRange": [
          {
            "low": {
              "value": 22,
              "code": "mmol/L",
              "system": "http://unitsofmeasure.org"
            }
          },
          {
            "high": {
              "value": 32,
              "code": "mmol/L",
              "system": "http://unitsofmeasure.org"
            }
          }
        ],
        "text": {
          "status": "generated",
          "div": "<div xmlns=\"http://www.w3.org/1999/xhtml\"><table class=\"hl7__eu__lab__report\"><tr><th>Test</th><th>18-Apr-2019</th><th>Reference&#xA0;Range</th><th>Unit</th></tr><tr><td>Carbon dioxide, total [Moles/volume] in Serum or Plasma</td><td>24.4</td><td>22 - 32</td><td></td><td>mmol/L</td></tr></table></div>"
        },
        "status": "final",
        "subject": {
          "reference": "urn:uuid:da20fcfa-671d-426e-b895-841d4f2dbe6b",
          "display": "Marthe Gallet"
        },
        "effectiveDateTime": "2019-04-18T19:05:43Z",
        "specimen": {
          "reference": "urn:uuid:62c86a6d-2739-4d8b-9186-8a7c032ac6d0"
        }
      }
    },
    {
      "fullUrl": "urn:uuid:a25ef50d-9444-4c64-8fe8-1a424408e4c8",
      "resource": {
        "resourceType": "Observation",
        "id": "a25ef50d-9444-4c64-8fe8-1a424408e4c8",
        "meta": {
          "profile": [
            "http://hl7.eu/fhir/laboratory/StructureDefinition/Observation-resultslab-eu-lab"
          ]
        },
        "performer": [
          {
            "display": "The Central European Lab"
          }
        ],
        "category": [
          {
            "coding": [
              {
                "system": "http://terminology.hl7.org/CodeSystem/observation-category",
                "code": "laboratory"
              }
            ]
          }
        ],
        "code": {
          "coding": [
            {
              "code": "5767-9",
              "system": "http://loinc.org",
              "display": "Appearance of Urine"
            }
          ],
          "text": "Appearance of Urine"
        },
        "text": {
          "status": "generated",
          "div": "<div xmlns=\"http://www.w3.org/1999/xhtml\"><table class=\"hl7__eu__lab__report\"><tr><th>Test</th><th>18-Apr-2019</th><th>Reference&#xA0;Range</th><th>Unit</th></tr><tr><td>Appearance of Urine</td></tr></table></div>"
        },
        "status": "final",
        "subject": {
          "reference": "urn:uuid:da20fcfa-671d-426e-b895-841d4f2dbe6b",
          "display": "Marthe Gallet"
        },
        "effectiveDateTime": "2019-04-18T19:05:43Z",
        "specimen": {
          "reference": "urn:uuid:897bce22-5926-4675-88c3-091b22283701"
        }
      }
    },
    {
      "fullUrl": "urn:uuid:122a1773-03af-4549-a672-82dd15a0ef15",
      "resource": {
        "resourceType": "Observation",
        "id": "122a1773-03af-4549-a672-82dd15a0ef15",
        "meta": {
          "profile": [
            "http://hl7.eu/fhir/laboratory/StructureDefinition/Observation-resultslab-eu-lab"
          ]
        },
        "performer": [
          {
            "display": "The Central European Lab"
          }
        ],
        "category": [
          {
            "coding": [
              {
                "system": "http://terminology.hl7.org/CodeSystem/observation-category",
                "code": "laboratory"
              }
            ]
          }
        ],
        "code": {
          "coding": [
            {
              "code": "34533-0",
              "system": "http://loinc.org",
              "display": "Odor of Urine"
            }
          ],
          "text": "Odor of Urine"
        },
        "text": {
          "status": "generated",
          "div": "<div xmlns=\"http://www.w3.org/1999/xhtml\"><table class=\"hl7__eu__lab__report\"><tr><th>Test</th><th>18-Apr-2019</th><th>Reference&#xA0;Range</th><th>Unit</th></tr><tr><td>Odor of Urine</td></tr></table></div>"
        },
        "status": "final",
        "subject": {
          "reference": "urn:uuid:da20fcfa-671d-426e-b895-841d4f2dbe6b",
          "display": "Marthe Gallet"
        },
        "effectiveDateTime": "2019-04-18T19:05:43Z",
        "specimen": {
          "reference": "urn:uuid:897bce22-5926-4675-88c3-091b22283701"
        }
      }
    },
    {
      "fullUrl": "urn:uuid:afa3b3de-7f28-4926-9f47-87167f2f1a65",
      "resource": {
        "resourceType": "Observation",
        "id": "afa3b3de-7f28-4926-9f47-87167f2f1a65",
        "meta": {
          "profile": [
            "http://hl7.eu/fhir/laboratory/StructureDefinition/Observation-resultslab-eu-lab"
          ]
        },
        "performer": [
          {
            "display": "The Central European Lab"
          }
        ],
        "category": [
          {
            "coding": [
              {
                "system": "http://terminology.hl7.org/CodeSystem/observation-category",
                "code": "laboratory"
              }
            ]
          }
        ],
        "code": {
          "coding": [
            {
              "code": "32167-9",
              "system": "http://loinc.org",
              "display": "Clarity of Urine"
            }
          ],
          "text": "Clarity of Urine"
        },
        "text": {
          "status": "generated",
          "div": "<div xmlns=\"http://www.w3.org/1999/xhtml\"><table class=\"hl7__eu__lab__report\"><tr><th>Test</th><th>18-Apr-2019</th><th>Reference&#xA0;Range</th><th>Unit</th></tr><tr><td>Clarity of Urine</td></tr></table></div>"
        },
        "status": "final",
        "subject": {
          "reference": "urn:uuid:da20fcfa-671d-426e-b895-841d4f2dbe6b",
          "display": "Marthe Gallet"
        },
        "effectiveDateTime": "2019-04-18T19:05:43Z",
        "specimen": {
          "reference": "urn:uuid:897bce22-5926-4675-88c3-091b22283701"
        }
      }
    },
    {
      "fullUrl": "urn:uuid:119a0cf2-8ff7-4411-9058-873f2f7f938a",
      "resource": {
        "resourceType": "Observation",
        "id": "119a0cf2-8ff7-4411-9058-873f2f7f938a",
        "meta": {
          "profile": [
            "http://hl7.eu/fhir/laboratory/StructureDefinition/Observation-resultslab-eu-lab"
          ]
        },
        "performer": [
          {
            "display": "The Central European Lab"
          }
        ],
        "category": [
          {
            "coding": [
              {
                "system": "http://terminology.hl7.org/CodeSystem/observation-category",
                "code": "laboratory"
              }
            ]
          }
        ],
        "code": {
          "coding": [
            {
              "code": "5778-6",
              "system": "http://loinc.org",
              "display": "Color of Urine"
            }
          ],
          "text": "Color of Urine"
        },
        "text": {
          "status": "generated",
          "div": "<div xmlns=\"http://www.w3.org/1999/xhtml\"><table class=\"hl7__eu__lab__report\"><tr><th>Test</th><th>18-Apr-2019</th><th>Reference&#xA0;Range</th><th>Unit</th></tr><tr><td>Color of Urine</td></tr></table></div>"
        },
        "status": "final",
        "subject": {
          "reference": "urn:uuid:da20fcfa-671d-426e-b895-841d4f2dbe6b",
          "display": "Marthe Gallet"
        },
        "effectiveDateTime": "2019-04-18T19:05:43Z",
        "specimen": {
          "reference": "urn:uuid:897bce22-5926-4675-88c3-091b22283701"
        }
      }
    },
    {
      "fullUrl": "urn:uuid:dbd874de-715e-45e9-bc84-63cdf571b40a",
      "resource": {
        "resourceType": "Observation",
        "id": "dbd874de-715e-45e9-bc84-63cdf571b40a",
        "meta": {
          "profile": [
            "http://hl7.eu/fhir/laboratory/StructureDefinition/Observation-resultslab-eu-lab"
          ]
        },
        "performer": [
          {
            "display": "The Central European Lab"
          }
        ],
        "category": [
          {
            "coding": [
              {
                "system": "http://terminology.hl7.org/CodeSystem/observation-category",
                "code": "laboratory"
              }
            ]
          }
        ],
        "code": {
          "coding": [
            {
              "code": "5792-7",
              "system": "http://loinc.org",
              "display": "Glucose [Mass/volume] in Urine by Test strip"
            }
          ],
          "text": "Glucose [Mass/volume] in Urine by Test strip"
        },
        "valueQuantity": {
          "system": "http://unitsofmeasure.org",
          "value": 1.4,
          "unit": "mg/dL",
          "code": "mg/dL"
        },
        "referenceRange": [
          {
            "low": {
              "value": 0.8,
              "code": "mg/dL",
              "system": "http://unitsofmeasure.org"
            }
          },
          {
            "high": {
              "value": 0,
              "code": "mg/dL",
              "system": "http://unitsofmeasure.org"
            }
          }
        ],
        "interpretation": [
          {
            "coding": [
              {
                "code": "H",
                "system": "http://terminology.hl7.org/CodeSystem/v3-ObservationInterpretation",
                "display": "High"
              }
            ]
          }
        ],
        "text": {
          "status": "generated",
          "div": "<div xmlns=\"http://www.w3.org/1999/xhtml\"><table class=\"hl7__eu__lab__report\"><tr><th>Test</th><th>18-Apr-2019</th><th>Reference&#xA0;Range</th><th>Unit</th></tr><tr><td>Glucose [Mass/volume] in Urine by Test strip</td><td>1.4</td><td>0.8 - 0</td><td>H</td><td>mg/dL</td></tr></table></div>"
        },
        "status": "final",
        "subject": {
          "reference": "urn:uuid:da20fcfa-671d-426e-b895-841d4f2dbe6b",
          "display": "Marthe Gallet"
        },
        "effectiveDateTime": "2019-04-18T19:05:43Z",
        "specimen": {
          "reference": "urn:uuid:897bce22-5926-4675-88c3-091b22283701"
        }
      }
    },
    {
      "fullUrl": "urn:uuid:0be99eed-0100-4fcc-ae11-4c8c7b8dc2ce",
      "resource": {
        "resourceType": "Observation",
        "id": "0be99eed-0100-4fcc-ae11-4c8c7b8dc2ce",
        "meta": {
          "profile": [
            "http://hl7.eu/fhir/laboratory/StructureDefinition/Observation-resultslab-eu-lab"
          ]
        },
        "performer": [
          {
            "display": "The Central European Lab"
          }
        ],
        "category": [
          {
            "coding": [
              {
                "system": "http://terminology.hl7.org/CodeSystem/observation-category",
                "code": "laboratory"
              }
            ]
          }
        ],
        "code": {
          "coding": [
            {
              "code": "25428-4",
              "system": "http://loinc.org",
              "display": "Glucose [Presence] in Urine by Test strip"
            }
          ],
          "text": "Glucose [Presence] in Urine by Test strip"
        },
        "text": {
          "status": "generated",
          "div": "<div xmlns=\"http://www.w3.org/1999/xhtml\"><table class=\"hl7__eu__lab__report\"><tr><th>Test</th><th>18-Apr-2019</th><th>Reference&#xA0;Range</th><th>Unit</th></tr><tr><td>Glucose [Presence] in Urine by Test strip</td></tr></table></div>"
        },
        "status": "final",
        "subject": {
          "reference": "urn:uuid:da20fcfa-671d-426e-b895-841d4f2dbe6b",
          "display": "Marthe Gallet"
        },
        "effectiveDateTime": "2019-04-18T19:05:43Z",
        "specimen": {
          "reference": "urn:uuid:897bce22-5926-4675-88c3-091b22283701"
        }
      }
    },
    {
      "fullUrl": "urn:uuid:580808cb-77f2-437f-b623-e15bfc0f6164",
      "resource": {
        "resourceType": "Observation",
        "id": "580808cb-77f2-437f-b623-e15bfc0f6164",
        "meta": {
          "profile": [
            "http://hl7.eu/fhir/laboratory/StructureDefinition/Observation-resultslab-eu-lab"
          ]
        },
        "performer": [
          {
            "display": "The Central European Lab"
          }
        ],
        "category": [
          {
            "coding": [
              {
                "system": "http://terminology.hl7.org/CodeSystem/observation-category",
                "code": "laboratory"
              }
            ]
          }
        ],
        "code": {
          "coding": [
            {
              "code": "20505-4",
              "system": "http://loinc.org",
              "display": "Bilirubin.total [Mass/volume] in Urine by Test strip"
            }
          ],
          "text": "Bilirubin.total [Mass/volume] in Urine by Test strip"
        },
        "valueQuantity": {
          "system": "http://unitsofmeasure.org",
          "value": 0.8,
          "unit": "mg/dL",
          "code": "mg/dL"
        },
        "referenceRange": [
          {
            "low": {
              "value": 0,
              "code": "mg/dL",
              "system": "http://unitsofmeasure.org"
            }
          },
          {
            "high": {
              "value": 1,
              "code": "mg/dL",
              "system": "http://unitsofmeasure.org"
            }
          }
        ],
        "text": {
          "status": "generated",
          "div": "<div xmlns=\"http://www.w3.org/1999/xhtml\"><table class=\"hl7__eu__lab__report\"><tr><th>Test</th><th>18-Apr-2019</th><th>Reference&#xA0;Range</th><th>Unit</th></tr><tr><td>Bilirubin.total [Mass/volume] in Urine by Test strip</td><td>0.8</td><td>0 - 1</td><td></td><td>mg/dL</td></tr></table></div>"
        },
        "status": "final",
        "subject": {
          "reference": "urn:uuid:da20fcfa-671d-426e-b895-841d4f2dbe6b",
          "display": "Marthe Gallet"
        },
        "effectiveDateTime": "2019-04-18T19:05:43Z",
        "specimen": {
          "reference": "urn:uuid:897bce22-5926-4675-88c3-091b22283701"
        }
      }
    },
    {
      "fullUrl": "urn:uuid:22fe5ef3-e099-4a05-8d3d-717e500980f1",
      "resource": {
        "resourceType": "Observation",
        "id": "22fe5ef3-e099-4a05-8d3d-717e500980f1",
        "meta": {
          "profile": [
            "http://hl7.eu/fhir/laboratory/StructureDefinition/Observation-resultslab-eu-lab"
          ]
        },
        "performer": [
          {
            "display": "The Central European Lab"
          }
        ],
        "category": [
          {
            "coding": [
              {
                "system": "http://terminology.hl7.org/CodeSystem/observation-category",
                "code": "laboratory"
              }
            ]
          }
        ],
        "code": {
          "coding": [
            {
              "code": "5770-3",
              "system": "http://loinc.org",
              "display": "Bilirubin.total [Presence] in Urine by Test strip"
            }
          ],
          "text": "Bilirubin.total [Presence] in Urine by Test strip"
        },
        "text": {
          "status": "generated",
          "div": "<div xmlns=\"http://www.w3.org/1999/xhtml\"><table class=\"hl7__eu__lab__report\"><tr><th>Test</th><th>18-Apr-2019</th><th>Reference&#xA0;Range</th><th>Unit</th></tr><tr><td>Bilirubin.total [Presence] in Urine by Test strip</td></tr></table></div>"
        },
        "status": "final",
        "subject": {
          "reference": "urn:uuid:da20fcfa-671d-426e-b895-841d4f2dbe6b",
          "display": "Marthe Gallet"
        },
        "effectiveDateTime": "2019-04-18T19:05:43Z",
        "specimen": {
          "reference": "urn:uuid:897bce22-5926-4675-88c3-091b22283701"
        }
      }
    },
    {
      "fullUrl": "urn:uuid:2bbc9f64-9374-47c2-a1f1-b5db05e5819e",
      "resource": {
        "resourceType": "Observation",
        "id": "2bbc9f64-9374-47c2-a1f1-b5db05e5819e",
        "meta": {
          "profile": [
            "http://hl7.eu/fhir/laboratory/StructureDefinition/Observation-resultslab-eu-lab"
          ]
        },
        "performer": [
          {
            "display": "The Central European Lab"
          }
        ],
        "category": [
          {
            "coding": [
              {
                "system": "http://terminology.hl7.org/CodeSystem/observation-category",
                "code": "laboratory"
              }
            ]
          }
        ],
        "code": {
          "coding": [
            {
              "code": "5797-6",
              "system": "http://loinc.org",
              "display": "Ketones [Mass/volume] in Urine by Test strip"
            }
          ],
          "text": "Ketones [Mass/volume] in Urine by Test strip"
        },
        "valueQuantity": {
          "system": "http://unitsofmeasure.org",
          "value": 12.9,
          "unit": "mg/dL",
          "code": "mg/dL"
        },
        "referenceRange": [
          {
            "low": {
              "value": 0,
              "code": "mg/dL",
              "system": "http://unitsofmeasure.org"
            }
          },
          {
            "high": {
              "value": 20,
              "code": "mg/dL",
              "system": "http://unitsofmeasure.org"
            }
          }
        ],
        "text": {
          "status": "generated",
          "div": "<div xmlns=\"http://www.w3.org/1999/xhtml\"><table class=\"hl7__eu__lab__report\"><tr><th>Test</th><th>18-Apr-2019</th><th>Reference&#xA0;Range</th><th>Unit</th></tr><tr><td>Ketones [Mass/volume] in Urine by Test strip</td><td>12.9</td><td>0 - 20</td><td></td><td>mg/dL</td></tr></table></div>"
        },
        "status": "final",
        "subject": {
          "reference": "urn:uuid:da20fcfa-671d-426e-b895-841d4f2dbe6b",
          "display": "Marthe Gallet"
        },
        "effectiveDateTime": "2019-04-18T19:05:43Z",
        "specimen": {
          "reference": "urn:uuid:897bce22-5926-4675-88c3-091b22283701"
        }
      }
    },
    {
      "fullUrl": "urn:uuid:0cb3b038-9a2b-4e06-b078-eaedf063cef0",
      "resource": {
        "resourceType": "Observation",
        "id": "0cb3b038-9a2b-4e06-b078-eaedf063cef0",
        "meta": {
          "profile": [
            "http://hl7.eu/fhir/laboratory/StructureDefinition/Observation-resultslab-eu-lab"
          ]
        },
        "performer": [
          {
            "display": "The Central European Lab"
          }
        ],
        "category": [
          {
            "coding": [
              {
                "system": "http://terminology.hl7.org/CodeSystem/observation-category",
                "code": "laboratory"
              }
            ]
          }
        ],
        "code": {
          "coding": [
            {
              "code": "2514-8",
              "system": "http://loinc.org",
              "display": "Ketones [Presence] in Urine by Test strip"
            }
          ],
          "text": "Ketones [Presence] in Urine by Test strip"
        },
        "text": {
          "status": "generated",
          "div": "<div xmlns=\"http://www.w3.org/1999/xhtml\"><table class=\"hl7__eu__lab__report\"><tr><th>Test</th><th>18-Apr-2019</th><th>Reference&#xA0;Range</th><th>Unit</th></tr><tr><td>Ketones [Presence] in Urine by Test strip</td></tr></table></div>"
        },
        "status": "final",
        "subject": {
          "reference": "urn:uuid:da20fcfa-671d-426e-b895-841d4f2dbe6b",
          "display": "Marthe Gallet"
        },
        "effectiveDateTime": "2019-04-18T19:05:43Z",
        "specimen": {
          "reference": "urn:uuid:897bce22-5926-4675-88c3-091b22283701"
        }
      }
    },
    {
      "fullUrl": "urn:uuid:947fd558-face-4f71-aba5-6bec94688d5d",
      "resource": {
        "resourceType": "Observation",
        "id": "947fd558-face-4f71-aba5-6bec94688d5d",
        "meta": {
          "profile": [
            "http://hl7.eu/fhir/laboratory/StructureDefinition/Observation-resultslab-eu-lab"
          ]
        },
        "performer": [
          {
            "display": "The Central European Lab"
          }
        ],
        "category": [
          {
            "coding": [
              {
                "system": "http://terminology.hl7.org/CodeSystem/observation-category",
                "code": "laboratory"
              }
            ]
          }
        ],
        "code": {
          "coding": [
            {
              "code": "5811-5",
              "system": "http://loinc.org",
              "display": "Specific gravity of Urine by Test strip"
            }
          ],
          "text": "Specific gravity of Urine by Test strip"
        },
        "valueQuantity": {
          "system": "http://unitsofmeasure.org",
          "value": 1,
          "unit": "{nominal}",
          "code": "{nominal}"
        },
        "referenceRange": [
          {
            "low": {
              "value": 1.01,
              "code": "g/mL",
              "system": "http://unitsofmeasure.org"
            }
          },
          {
            "high": {
              "value": 1.03,
              "code": "g/mL",
              "system": "http://unitsofmeasure.org"
            }
          }
        ],
        "interpretation": [
          {
            "coding": [
              {
                "code": "L",
                "system": "http://terminology.hl7.org/CodeSystem/v3-ObservationInterpretation",
                "display": "Low"
              }
            ]
          }
        ],
        "text": {
          "status": "generated",
          "div": "<div xmlns=\"http://www.w3.org/1999/xhtml\"><table class=\"hl7__eu__lab__report\"><tr><th>Test</th><th>18-Apr-2019</th><th>Reference&#xA0;Range</th><th>Unit</th></tr><tr><td>Specific gravity of Urine by Test strip</td><td>1.0</td><td>1.01 - 1.03</td><td>L</td><td>{nominal}</td></tr></table></div>"
        },
        "status": "final",
        "subject": {
          "reference": "urn:uuid:da20fcfa-671d-426e-b895-841d4f2dbe6b",
          "display": "Marthe Gallet"
        },
        "effectiveDateTime": "2019-04-18T19:05:43Z",
        "specimen": {
          "reference": "urn:uuid:897bce22-5926-4675-88c3-091b22283701"
        }
      }
    },
    {
      "fullUrl": "urn:uuid:ca7a0162-090b-4d67-b3b3-f5f8baf741b3",
      "resource": {
        "resourceType": "Observation",
        "id": "ca7a0162-090b-4d67-b3b3-f5f8baf741b3",
        "meta": {
          "profile": [
            "http://hl7.eu/fhir/laboratory/StructureDefinition/Observation-resultslab-eu-lab"
          ]
        },
        "performer": [
          {
            "display": "The Central European Lab"
          }
        ],
        "category": [
          {
            "coding": [
              {
                "system": "http://terminology.hl7.org/CodeSystem/observation-category",
                "code": "laboratory"
              }
            ]
          }
        ],
        "code": {
          "coding": [
            {
              "code": "5803-2",
              "system": "http://loinc.org",
              "display": "pH of Urine by Test strip"
            }
          ],
          "text": "pH of Urine by Test strip"
        },
        "valueQuantity": {
          "system": "http://unitsofmeasure.org",
          "value": 6.3,
          "unit": "pH",
          "code": "pH"
        },
        "referenceRange": [
          {
            "low": {
              "value": 4.6,
              "code": "pH",
              "system": "http://unitsofmeasure.org"
            }
          },
          {
            "high": {
              "value": 7,
              "code": "pH",
              "system": "http://unitsofmeasure.org"
            }
          }
        ],
        "text": {
          "status": "generated",
          "div": "<div xmlns=\"http://www.w3.org/1999/xhtml\"><table class=\"hl7__eu__lab__report\"><tr><th>Test</th><th>18-Apr-2019</th><th>Reference&#xA0;Range</th><th>Unit</th></tr><tr><td>pH of Urine by Test strip</td><td>6.3</td><td>4.6 - 7</td><td></td><td>pH</td></tr></table></div>"
        },
        "status": "final",
        "subject": {
          "reference": "urn:uuid:da20fcfa-671d-426e-b895-841d4f2dbe6b",
          "display": "Marthe Gallet"
        },
        "effectiveDateTime": "2019-04-18T19:05:43Z",
        "specimen": {
          "reference": "urn:uuid:897bce22-5926-4675-88c3-091b22283701"
        }
      }
    },
    {
      "fullUrl": "urn:uuid:7334bfaa-e910-4912-8656-2064d04e0cca",
      "resource": {
        "resourceType": "Observation",
        "id": "7334bfaa-e910-4912-8656-2064d04e0cca",
        "meta": {
          "profile": [
            "http://hl7.eu/fhir/laboratory/StructureDefinition/Observation-resultslab-eu-lab"
          ]
        },
        "performer": [
          {
            "display": "The Central European Lab"
          }
        ],
        "category": [
          {
            "coding": [
              {
                "system": "http://terminology.hl7.org/CodeSystem/observation-category",
                "code": "laboratory"
              }
            ]
          }
        ],
        "code": {
          "coding": [
            {
              "code": "5804-0",
              "system": "http://loinc.org",
              "display": "Protein [Mass/volume] in Urine by Test strip"
            }
          ],
          "text": "Protein [Mass/volume] in Urine by Test strip"
        },
        "valueQuantity": {
          "system": "http://unitsofmeasure.org",
          "value": 66.2,
          "unit": "mg/dL",
          "code": "mg/dL"
        },
        "referenceRange": [
          {
            "low": {
              "value": 0,
              "code": "mg/dL",
              "system": "http://unitsofmeasure.org"
            }
          },
          {
            "high": {
              "value": 15,
              "code": "mg/dL",
              "system": "http://unitsofmeasure.org"
            }
          }
        ],
        "interpretation": [
          {
            "coding": [
              {
                "code": "H",
                "system": "http://terminology.hl7.org/CodeSystem/v3-ObservationInterpretation",
                "display": "High"
              }
            ]
          }
        ],
        "text": {
          "status": "generated",
          "div": "<div xmlns=\"http://www.w3.org/1999/xhtml\"><table class=\"hl7__eu__lab__report\"><tr><th>Test</th><th>18-Apr-2019</th><th>Reference&#xA0;Range</th><th>Unit</th></tr><tr><td>Protein [Mass/volume] in Urine by Test strip</td><td>66.2</td><td>0 - 15</td><td>H</td><td>mg/dL</td></tr></table></div>"
        },
        "status": "final",
        "subject": {
          "reference": "urn:uuid:da20fcfa-671d-426e-b895-841d4f2dbe6b",
          "display": "Marthe Gallet"
        },
        "effectiveDateTime": "2019-04-18T19:05:43Z",
        "specimen": {
          "reference": "urn:uuid:897bce22-5926-4675-88c3-091b22283701"
        }
      }
    },
    {
      "fullUrl": "urn:uuid:88e1bba4-75d4-42fc-8158-7aee561da13a",
      "resource": {
        "resourceType": "Observation",
        "id": "88e1bba4-75d4-42fc-8158-7aee561da13a",
        "meta": {
          "profile": [
            "http://hl7.eu/fhir/laboratory/StructureDefinition/Observation-resultslab-eu-lab"
          ]
        },
        "performer": [
          {
            "display": "The Central European Lab"
          }
        ],
        "category": [
          {
            "coding": [
              {
                "system": "http://terminology.hl7.org/CodeSystem/observation-category",
                "code": "laboratory"
              }
            ]
          }
        ],
        "code": {
          "coding": [
            {
              "code": "20454-5",
              "system": "http://loinc.org",
              "display": "Protein [Presence] in Urine by Test strip"
            }
          ],
          "text": "Protein [Presence] in Urine by Test strip"
        },
        "text": {
          "status": "generated",
          "div": "<div xmlns=\"http://www.w3.org/1999/xhtml\"><table class=\"hl7__eu__lab__report\"><tr><th>Test</th><th>18-Apr-2019</th><th>Reference&#xA0;Range</th><th>Unit</th></tr><tr><td>Protein [Presence] in Urine by Test strip</td></tr></table></div>"
        },
        "status": "final",
        "subject": {
          "reference": "urn:uuid:da20fcfa-671d-426e-b895-841d4f2dbe6b",
          "display": "Marthe Gallet"
        },
        "effectiveDateTime": "2019-04-18T19:05:43Z",
        "specimen": {
          "reference": "urn:uuid:897bce22-5926-4675-88c3-091b22283701"
        }
      }
    },
    {
      "fullUrl": "urn:uuid:0827659f-ddd1-409b-bab9-414f5f4a576a",
      "resource": {
        "resourceType": "Observation",
        "id": "0827659f-ddd1-409b-bab9-414f5f4a576a",
        "meta": {
          "profile": [
            "http://hl7.eu/fhir/laboratory/StructureDefinition/Observation-resultslab-eu-lab"
          ]
        },
        "performer": [
          {
            "display": "The Central European Lab"
          }
        ],
        "category": [
          {
            "coding": [
              {
                "system": "http://terminology.hl7.org/CodeSystem/observation-category",
                "code": "laboratory"
              }
            ]
          }
        ],
        "code": {
          "coding": [
            {
              "code": "5802-4",
              "system": "http://loinc.org",
              "display": "Nitrite [Presence] in Urine by Test strip"
            }
          ],
          "text": "Nitrite [Presence] in Urine by Test strip"
        },
        "text": {
          "status": "generated",
          "div": "<div xmlns=\"http://www.w3.org/1999/xhtml\"><table class=\"hl7__eu__lab__report\"><tr><th>Test</th><th>18-Apr-2019</th><th>Reference&#xA0;Range</th><th>Unit</th></tr><tr><td>Nitrite [Presence] in Urine by Test strip</td></tr></table></div>"
        },
        "status": "final",
        "subject": {
          "reference": "urn:uuid:da20fcfa-671d-426e-b895-841d4f2dbe6b",
          "display": "Marthe Gallet"
        },
        "effectiveDateTime": "2019-04-18T19:05:43Z",
        "specimen": {
          "reference": "urn:uuid:897bce22-5926-4675-88c3-091b22283701"
        }
      }
    },
    {
      "fullUrl": "urn:uuid:bc74c82a-4a64-41f2-9dbd-1f0e18093124",
      "resource": {
        "resourceType": "Observation",
        "id": "bc74c82a-4a64-41f2-9dbd-1f0e18093124",
        "meta": {
          "profile": [
            "http://hl7.eu/fhir/laboratory/StructureDefinition/Observation-resultslab-eu-lab"
          ]
        },
        "performer": [
          {
            "display": "The Central European Lab"
          }
        ],
        "category": [
          {
            "coding": [
              {
                "system": "http://terminology.hl7.org/CodeSystem/observation-category",
                "code": "laboratory"
              }
            ]
          }
        ],
        "code": {
          "coding": [
            {
              "code": "5794-3",
              "system": "http://loinc.org",
              "display": "Hemoglobin [Presence] in Urine by Test strip"
            }
          ],
          "text": "Hemoglobin [Presence] in Urine by Test strip"
        },
        "text": {
          "status": "generated",
          "div": "<div xmlns=\"http://www.w3.org/1999/xhtml\"><table class=\"hl7__eu__lab__report\"><tr><th>Test</th><th>18-Apr-2019</th><th>Reference&#xA0;Range</th><th>Unit</th></tr><tr><td>Hemoglobin [Presence] in Urine by Test strip</td></tr></table></div>"
        },
        "status": "final",
        "subject": {
          "reference": "urn:uuid:da20fcfa-671d-426e-b895-841d4f2dbe6b",
          "display": "Marthe Gallet"
        },
        "effectiveDateTime": "2019-04-18T19:05:43Z",
        "specimen": {
          "reference": "urn:uuid:897bce22-5926-4675-88c3-091b22283701"
        }
      }
    },
    {
      "fullUrl": "urn:uuid:890dfc59-49eb-45a4-954e-ecd3e061c3a3",
      "resource": {
        "resourceType": "Observation",
        "id": "890dfc59-49eb-45a4-954e-ecd3e061c3a3",
        "meta": {
          "profile": [
            "http://hl7.eu/fhir/laboratory/StructureDefinition/Observation-resultslab-eu-lab"
          ]
        },
        "performer": [
          {
            "display": "The Central European Lab"
          }
        ],
        "category": [
          {
            "coding": [
              {
                "system": "http://terminology.hl7.org/CodeSystem/observation-category",
                "code": "laboratory"
              }
            ]
          }
        ],
        "code": {
          "coding": [
            {
              "code": "5799-2",
              "system": "http://loinc.org",
              "display": "Leukocyte esterase [Presence] in Urine by Test strip"
            }
          ],
          "text": "Leukocyte esterase [Presence] in Urine by Test strip"
        },
        "text": {
          "status": "generated",
          "div": "<div xmlns=\"http://www.w3.org/1999/xhtml\"><table class=\"hl7__eu__lab__report\"><tr><th>Test</th><th>18-Apr-2019</th><th>Reference&#xA0;Range</th><th>Unit</th></tr><tr><td>Leukocyte esterase [Presence] in Urine by Test strip</td></tr></table></div>"
        },
        "status": "final",
        "subject": {
          "reference": "urn:uuid:da20fcfa-671d-426e-b895-841d4f2dbe6b",
          "display": "Marthe Gallet"
        },
        "effectiveDateTime": "2019-04-18T19:05:43Z",
        "specimen": {
          "reference": "urn:uuid:897bce22-5926-4675-88c3-091b22283701"
        }
      }
    },
    {
      "fullUrl": "urn:uuid:10553e58-3076-4112-bf40-fd5406247bfe",
      "resource": {
        "resourceType": "Device",
        "id": "10553e58-3076-4112-bf40-fd5406247bfe",
        "deviceName": [
          {
            "name": "SYNDERAI Synthetic Generator",
            "type": "manufacturer-name"
          }
        ],
        "version": [
          {
            "value": "5.0"
          }
        ],
        "text": {
          "status": "generated",
          "div": "<div xmlns=\"http://www.w3.org/1999/xhtml\">SYNDERAI Synthetic Generator v5.0</div>"
        },
        "status": "active\"",
        "distinctIdentifier": "synderai-generator-50",
        "manufacturer": "SYNDERAI Project"
      }
    },
    {
      "fullUrl": "urn:uuid:72829f72-0745-402d-b472-94972dcc28aa",
      "resource": {
        "resourceType": "Provenance",
        "id": "72829f72-0745-402d-b472-94972dcc28aa",
        "target": [
          {
            "reference": "Patient/da20fcfa-671d-426e-b895-841d4f2dbe6b"
          },
          {
            "reference": "Bundle/096e8318-faeb-4f52-a02c-adeaa078ce30"
          },
          {
            "reference": "Composition/a79fd956-a7ba-471a-b06f-880e609b7409"
          },
          {
            "reference": "PractitionerRole/6a1febe1-6927-4beb-8280-cdbe3a4830ae"
          },
          {
            "reference": "Practitioner/f9c22433-5b15-4598-9198-b23897305f20"
          },
          {
            "reference": "PractitionerRole/56557eae-1d8d-4e5e-bfb2-2fbadecf370d"
          },
          {
            "reference": "Organization/28fa0ed1-3e06-47d3-b4a1-0d9df398737d"
          }
        ],
        "activity": {
          "text": "Synthetic Example Data Generation"
        },
        "policy": [
          "https://synderai.net/synderai-synthetic-data-policy"
        ],
        "agent": [
          {
            "type": {
              "text": "author"
            },
            "who": {
              "reference": "Device/10553e58-3076-4112-bf40-fd5406247bfe"
            }
          }
        ],
        "reason": [
          {
            "text": "Interoperability Testing and Training (non-clinical use)"
          }
        ],
        "text": {
          "status": "generated",
          "div": "<div xmlns=\"http://www.w3.org/1999/xhtml\">Provenance for SYNDERAI Synthetic Example Data Resource</div>"
        },
        "recorded": "2019-04-18T21:05:43Z"
      }
    },
    {
      "fullUrl": "urn:uuid:6a1febe1-6927-4beb-8280-cdbe3a4830ae",
      "resource": {
        "resourceType": "PractitionerRole",
        "id": "6a1febe1-6927-4beb-8280-cdbe3a4830ae",
        "meta": {
          "profile": [
            "http://hl7.eu/fhir/base/StructureDefinition/practitionerRole-eu"
          ]
        },
        "text": {
          "status": "generated",
          "div": "<div xmlns=\"http://www.w3.org/1999/xhtml\">Laboratory Role Id: 6a1febe1-6927-4beb-8280-cdbe3a4830ae</div>"
        },
        "practitioner": {
          "reference": "urn:uuid:f9c22433-5b15-4598-9198-b23897305f20"
        }
      }
    },
    {
      "fullUrl": "urn:uuid:f9c22433-5b15-4598-9198-b23897305f20",
      "resource": {
        "resourceType": "Practitioner",
        "id": "f9c22433-5b15-4598-9198-b23897305f20",
        "meta": {
          "profile": [
            "http://hl7.eu/fhir/base/StructureDefinition/practitioner-eu"
          ]
        },
        "identifier": [
          {
            "assigner": {
              "display": "HL7 Europe"
            },
            "system": "urn:oid:2.16.840.1.113883.2.51.999",
            "value": "30fe7085-ce12-41c0-a957-bf30b613d50c"
          }
        ],
        "name": [
          {
            "prefix": [
              "dr"
            ],
            "given": [
              "Ex"
            ],
            "family": "Ample"
          }
        ],
        "address": [
          {
            "line": [
              "Laboratoire Central Europenne",
              "Boulevard du Jardin Botanique 32"
            ],
            "postalCode": "1000",
            "city": "Brussels",
            "country": "Belgium"
          }
        ],
        "text": {
          "status": "generated",
          "div": "<div xmlns=\"http://www.w3.org/1999/xhtml\">Laboratory: Laboratoire Central Europenne, 1000 Brussels, Belgium</div>"
        }
      }
    }
  ],
  "type": "document",
  "timestamp": "2019-04-18T21:05:43Z"
}
