{
  "resourceType": "Bundle",
  "id": "f187ae79-79e0-4757-a5ec-02df9cf91c27",
  "meta": {
    "profile": [
      "http://hl7.eu/fhir/laboratory/StructureDefinition/Bundle-eu-lab"
    ]
  },
  "identifier": {
    "assigner": {
      "display": "HL7 Europe"
    },
    "system": "urn:oid:2.16.840.1.113883.2.51.999",
    "value": "661fd031-bf3d-4781-9601-2d87692f92e5"
  },
  "entry": [
    {
      "fullUrl": "urn:uuid:29254de1-29f4-44ad-af78-5b52cf2162ed",
      "resource": {
        "resourceType": "Composition",
        "id": "29254de1-29f4-44ad-af78-5b52cf2162ed",
        "meta": {
          "profile": [
            "http://hl7.eu/fhir/laboratory/StructureDefinition/Composition-eu-lab"
          ]
        },
        "identifier": {
          "assigner": {
            "display": "HL7 Europe"
          },
          "system": "urn:oid:2.16.840.1.113883.2.51.999",
          "value": "9e1fba78-cdb4-475d-b8ce-1083cbacf070"
        },
        "author": [
          {
            "reference": "urn:uuid:a827de3c-8094-4fb1-82c0-e225e6671ab4"
          }
        ],
        "category": [
          {
            "coding": [
              {
                "code": "26436-6",
                "system": "http://loinc.org",
                "display": "Laboratory studies (set)"
              }
            ]
          }
        ],
        "type": {
          "coding": [
            {
              "code": "11502-2",
              "system": "http://loinc.org",
              "display": "Laboratory report"
            }
          ],
          "text": "Laboratory Report"
        },
        "section": [
          {
            "code": {
              "coding": [
                {
                  "code": "26436-6",
                  "system": "http://loinc.org",
                  "display": "Laboratory studies (set)"
                }
              ],
              "text": "Laboratory studies"
            },
            "section": [
              {
                "code": {
                  "coding": [
                    {
                      "code": "$18719-5",
                      "system": "http://loinc.org",
                      "display": "Chemistry studies (set)"
                    }
                  ],
                  "text": "Chemistry"
                },
                "entry": [
                  {
                    "reference": "urn:uuid:9eafaefe-23cf-4e4e-a8c6-04eeeeb172ee"
                  },
                  {
                    "reference": "urn:uuid:17ab9518-8aab-4521-a433-0fb81da9611a"
                  },
                  {
                    "reference": "urn:uuid:c6d51b5e-c260-48ea-8719-d869e37c6ea2"
                  },
                  {
                    "reference": "urn:uuid:b996c849-2d54-450c-a9e4-7461908252ac"
                  },
                  {
                    "reference": "urn:uuid:56ab9120-7569-42d4-8f17-48eccda65d8d"
                  },
                  {
                    "reference": "urn:uuid:a80d438b-8a25-485c-8489-a2dae2fe1b8f"
                  },
                  {
                    "reference": "urn:uuid:6e25ce3e-bcc4-4f36-a7be-5c3945bd47ca"
                  },
                  {
                    "reference": "urn:uuid:75200ade-57d2-46fb-a302-fdeb6acd9513"
                  },
                  {
                    "reference": "urn:uuid:aeee1de3-8a0b-4186-b492-dc33a96ed4f8"
                  },
                  {
                    "reference": "urn:uuid:351d9cd2-9673-4389-8d38-fdeeb7aa19a5"
                  },
                  {
                    "reference": "urn:uuid:724e9552-3e18-481a-b542-d97b9ca3fa9a"
                  },
                  {
                    "reference": "urn:uuid:5f71338f-ee18-48c4-bb92-e01f2e783adb"
                  },
                  {
                    "reference": "urn:uuid:7072c2f1-3ab9-433d-8d7a-a1b789dbed03"
                  },
                  {
                    "reference": "urn:uuid:d1ae6afd-665c-431c-991e-688f1acbd7a3"
                  },
                  {
                    "reference": "urn:uuid:7622105d-bc22-42e2-b9b8-b789cfbc6090"
                  },
                  {
                    "reference": "urn:uuid:80e35f21-f16b-4212-a50e-2ba42d8f1d3f"
                  },
                  {
                    "reference": "urn:uuid:dbcef571-887f-4818-b801-af723cdb79d9"
                  },
                  {
                    "reference": "urn:uuid:fe1dbc36-7854-45d2-b5b3-e179645df7ce"
                  }
                ],
                "text": {
                  "status": "generated",
                  "div": "<div xmlns=\"http://www.w3.org/1999/xhtml\"><h3>Chemistry</h3><table class=\"hl7__eu__lab__report\"><thead><tr><th>Test</th><th>30-APR-2024</th><th>Reference&#xA0;Range</th><th>Unit</th></tr></thead><tbody><tr><td>Glucose [Mass/volume] in Serum or Plasma</td><td>71.9</td><td>70 - 99</td><td>mg/dL</td></tr><tr><td>Urea nitrogen [Mass/volume] in Serum or Plasma</td><td>14.0</td><td>7 - 50</td><td>mg/dL</td></tr><tr><td>Creatinine [Mass/volume] in Serum or Plasma</td><td><strong>2.1 H</strong></td><td>0.6 - 1.1</td><td>mg/dL</td></tr><tr><td>Calcium [Mass/volume] in Serum or Plasma</td><td>9.4</td><td>8.6 - 10.4</td><td>mg/dL</td></tr><tr><td>Sodium [Moles/volume] in Serum or Plasma</td><td>136.3</td><td>135 - 145</td><td>mmol/L</td></tr><tr><td>Potassium [Moles/volume] in Serum or Plasma</td><td>4.6</td><td>3.5 - 5.1</td><td>mmol/L</td></tr><tr><td>Chloride [Moles/volume] in Serum or Plasma</td><td><strong>110.5 H</strong></td><td>98 - 108</td><td>mmol/L</td></tr><tr><td>Carbon dioxide, total [Moles/volume] in Serum or Plasma</td><td><strong>21.3 L</strong></td><td>22 - 32</td><td>mmol/L</td></tr><tr><td>Ketones [Presence] in Urine by Test strip</td><td>Urine ketone test = ++</td><td></td><td></td></tr><tr><td>Hemoglobin A1c/Hemoglobin.total in Blood</td><td>4.0</td><td>4 - 6.4</td><td>%</td></tr><tr><td>Glucose [Mass/volume] in Blood</td><td>71.9</td><td>70 - 100</td><td>mg/dL</td></tr><tr><td>Urea nitrogen [Mass/volume] in Blood</td><td>14.0</td><td>7 - 43</td><td>mg/dL</td></tr><tr><td>Creatinine [Mass/volume] in Blood</td><td><strong>2.9 H</strong></td><td>0.6 - 1.1</td><td>mg/dL</td></tr><tr><td>Calcium [Mass/volume] in Blood</td><td>9.4</td><td>8.5 - 10.5</td><td>mg/dL</td></tr><tr><td>Sodium [Moles/volume] in Blood</td><td>136.3</td><td>135 - 145</td><td>mmol/L</td></tr><tr><td>Potassium [Moles/volume] in Blood</td><td>4.6</td><td>3.5 - 5.1</td><td>mmol/L</td></tr><tr><td>Chloride [Moles/volume] in Blood</td><td><strong>110.5 H</strong></td><td>98 - 108</td><td>mmol/L</td></tr><tr><td>Carbon dioxide, total [Moles/volume] in Blood</td><td><strong>21.3 L</strong></td><td>22 - 29</td><td>mmol/L</td></tr></tbody></table></div>"
                },
                "title": "Chemistry"
              },
              {
                "code": {
                  "coding": [
                    {
                      "code": "$18729-4",
                      "system": "http://loinc.org",
                      "display": "Urinalysis studies (set)"
                    }
                  ],
                  "text": "Urinalysis"
                },
                "entry": [
                  {
                    "reference": "urn:uuid:7b9a7823-1608-4f6d-9797-ddb2dbfd8daf"
                  },
                  {
                    "reference": "urn:uuid:8b682e3c-4346-4fd7-bd29-3a17f5c77040"
                  },
                  {
                    "reference": "urn:uuid:395dd90a-534d-4043-9543-fd831e0eb54a"
                  },
                  {
                    "reference": "urn:uuid:fba8ab3c-a047-45f7-ae4e-35e556b949bf"
                  },
                  {
                    "reference": "urn:uuid:f0e88eec-fc9c-48cb-9e3e-03b4be867f93"
                  },
                  {
                    "reference": "urn:uuid:d6e241de-d573-4363-a725-5b5c53b35837"
                  },
                  {
                    "reference": "urn:uuid:13fc9b8d-ed07-4865-8574-acae8b84d114"
                  },
                  {
                    "reference": "urn:uuid:69545c76-eecb-4988-9f1d-b5370f0251fa"
                  },
                  {
                    "reference": "urn:uuid:1f28fecf-f3a2-4cad-8bf6-497790796113"
                  },
                  {
                    "reference": "urn:uuid:46339745-18fd-41b2-adb8-dd38de4cc8f4"
                  },
                  {
                    "reference": "urn:uuid:80c67eb4-bb28-4861-ac83-21b55a79d051"
                  },
                  {
                    "reference": "urn:uuid:782be472-060d-4085-87d2-908c4a681ff5"
                  }
                ],
                "text": {
                  "status": "generated",
                  "div": "<div xmlns=\"http://www.w3.org/1999/xhtml\"><h3>Urinalysis</h3><table class=\"hl7__eu__lab__report\"><thead><tr><th>Test</th><th>30-APR-2024</th><th>Reference&#xA0;Range</th><th>Unit</th></tr></thead><tbody><tr><td>Glucose [Mass/volume] in Urine by Test strip</td><td><strong>1.6 H</strong></td><td>0.8 - 0</td><td>mg/dL</td></tr><tr><td>Glucose [Presence] in Urine by Test strip</td><td>++</td><td></td><td></td></tr><tr><td>Bilirubin.total [Mass/volume] in Urine by Test strip</td><td><strong>1.1 H</strong></td><td>0 - 1</td><td>mg/dL</td></tr><tr><td>Bilirubin.total [Presence] in Urine by Test strip</td><td>Finding of bilirubin in urine</td><td></td><td></td></tr><tr><td>Ketones [Mass/volume] in Urine by Test strip</td><td>2.6</td><td>0 - 4</td><td>mg/dL</td></tr><tr><td>Specific gravity of Urine by Test strip</td><td><strong>1.0 L</strong></td><td>1.005 - 1.03</td><td>{nominal}</td></tr><tr><td>pH of Urine by Test strip</td><td>5.8</td><td>4.6 - 7</td><td>pH</td></tr><tr><td>Protein [Mass/volume] in Urine by Test strip</td><td><strong>304.3 H</strong></td><td>0 - 14</td><td>mg/dL</td></tr><tr><td>Protein [Presence] in Urine by Test strip</td><td>Urine protein test = ++</td><td></td><td></td></tr><tr><td>Nitrite [Presence] in Urine by Test strip</td><td>Urine nitrite negative</td><td></td><td></td></tr><tr><td>Hemoglobin [Presence] in Urine by Test strip</td><td>Urine blood test = negative</td><td></td><td></td></tr><tr><td>Leukocyte esterase [Presence] in Urine by Test strip</td><td>Urine leukocyte test negative</td><td></td><td></td></tr></tbody></table></div>"
                },
                "title": "Urinalysis"
              },
              {
                "code": {
                  "coding": [
                    {
                      "code": "$LP7846-1",
                      "system": "http://loinc.org",
                      "display": "Specimen information"
                    }
                  ],
                  "text": "Specimen information"
                },
                "entry": [
                  {
                    "reference": "urn:uuid:f8b4c0ee-c773-4b52-bd22-7bcbf22bd6d2"
                  },
                  {
                    "reference": "urn:uuid:5aaccba9-c301-491a-b6b4-abcd0a529301"
                  },
                  {
                    "reference": "urn:uuid:f2bc4313-fe26-4ebb-a78c-f802916e7ff8"
                  },
                  {
                    "reference": "urn:uuid:fda9cb15-0e6c-41e5-b788-aa2a68c9a8ec"
                  }
                ],
                "text": {
                  "status": "generated",
                  "div": "<div xmlns=\"http://www.w3.org/1999/xhtml\"><h3>Specimen information</h3><table class=\"hl7__eu__lab__report\"><thead><tr><th>Test</th><th>30-APR-2024</th><th>Specimen</th><th></th></tr></thead><tbody><tr><td>Appearance of Urine</td><td>Cloudy urine</td><td>Urine</td><td></td></tr><tr><td>Odor of Urine</td><td>Urine smell ammoniacal</td><td>Urine</td><td></td></tr><tr><td>Clarity of Urine</td><td>Translucent</td><td>Urine</td><td></td></tr><tr><td>Color of Urine</td><td>Brown color</td><td>Urine</td><td></td></tr></tbody></table></div>"
                },
                "title": "Specimen information"
              }
            ],
            "title": "Laboratory Report"
          },
          {
            "text": {
              "status": "generated",
              "div": "<div xmlns=\"http://www.w3.org/1999/xhtml\"><h3>Annotation</h3><table class=\"hl7__eu__lab__report\"><tr><th>Conclusion and Recommendations based on this report and previous findings known to us</th></tr><tr><td>The patient shows significantly elevated creatinine, proteinuria, glucosuria, bilirubinuria, and abnormal urine appearance, suggesting impaired renal function, likely chronic kidney disease with possible nephrotic features. Elevated chloride and low CO₂ may indicate metabolic acidosis. Blood glucose and HbA1c are within normal limits, making diabetes less likely. Recommend urgent nephrology evaluation and further workup for renal pathology.</td></tr></table></div>"
            },
            "code": {
              "coding": [
                {
                  "system": "http://loinc.org",
                  "code": "48767-8",
                  "display": "Annotation comment"
                }
              ]
            },
            "title": "Annotation comment"
          }
        ],
        "status": "final",
        "subject": {
          "reference": "urn:uuid:84134239-00f7-4f54-acf1-ea460f1a952f",
          "display": "Meaghan Neary"
        },
        "date": "2024-04-30T00:11:04Z",
        "title": "Laboratory Report",
        "confidentiality": "N"
      }
    },
    {
      "fullUrl": "urn:uuid:73888087-8e7a-4155-9f09-76b7f9121b87",
      "resource": {
        "resourceType": "DiagnosticReport",
        "id": "73888087-8e7a-4155-9f09-76b7f9121b87",
        "meta": {
          "profile": [
            "http://hl7.eu/fhir/laboratory/StructureDefinition/DiagnosticReport-eu-lab"
          ]
        },
        "identifier": [
          {
            "assigner": {
              "display": "HL7 Europe"
            },
            "system": "urn:oid:2.16.840.1.113883.2.51.999",
            "value": "ce5ae991-324d-44d2-a118-4dd480dddd48"
          }
        ],
        "extension": [
          {
            "url": "http://hl7.org/fhir/5.0/StructureDefinition/extension-DiagnosticReport.composition",
            "valueReference": {
              "reference": "urn:uuid:9e1fba78-cdb4-475d-b8ce-1083cbacf070"
            }
          }
        ],
        "category": [
          {
            "coding": [
              {
                "code": "26436-6",
                "system": "http://loinc.org",
                "display": "Laboratory studies (set)"
              }
            ]
          }
        ],
        "specimen": [
          {
            "reference": "urn:uuid:d35dd442-e3c1-4ed6-a5cb-98942425c7dc"
          },
          {
            "reference": "urn:uuid:8cb3ef7b-f595-4a7d-8a93-c009cccd71b1"
          },
          {
            "reference": "urn:uuid:eddd24f5-9a25-46fb-bce6-a4bb34626425"
          }
        ],
        "result": [
          {
            "reference": "urn:uuid:9eafaefe-23cf-4e4e-a8c6-04eeeeb172ee"
          },
          {
            "reference": "urn:uuid:17ab9518-8aab-4521-a433-0fb81da9611a"
          },
          {
            "reference": "urn:uuid:c6d51b5e-c260-48ea-8719-d869e37c6ea2"
          },
          {
            "reference": "urn:uuid:b996c849-2d54-450c-a9e4-7461908252ac"
          },
          {
            "reference": "urn:uuid:56ab9120-7569-42d4-8f17-48eccda65d8d"
          },
          {
            "reference": "urn:uuid:a80d438b-8a25-485c-8489-a2dae2fe1b8f"
          },
          {
            "reference": "urn:uuid:6e25ce3e-bcc4-4f36-a7be-5c3945bd47ca"
          },
          {
            "reference": "urn:uuid:75200ade-57d2-46fb-a302-fdeb6acd9513"
          },
          {
            "reference": "urn:uuid:f8b4c0ee-c773-4b52-bd22-7bcbf22bd6d2"
          },
          {
            "reference": "urn:uuid:5aaccba9-c301-491a-b6b4-abcd0a529301"
          },
          {
            "reference": "urn:uuid:f2bc4313-fe26-4ebb-a78c-f802916e7ff8"
          },
          {
            "reference": "urn:uuid:fda9cb15-0e6c-41e5-b788-aa2a68c9a8ec"
          },
          {
            "reference": "urn:uuid:7b9a7823-1608-4f6d-9797-ddb2dbfd8daf"
          },
          {
            "reference": "urn:uuid:8b682e3c-4346-4fd7-bd29-3a17f5c77040"
          },
          {
            "reference": "urn:uuid:395dd90a-534d-4043-9543-fd831e0eb54a"
          },
          {
            "reference": "urn:uuid:fba8ab3c-a047-45f7-ae4e-35e556b949bf"
          },
          {
            "reference": "urn:uuid:f0e88eec-fc9c-48cb-9e3e-03b4be867f93"
          },
          {
            "reference": "urn:uuid:aeee1de3-8a0b-4186-b492-dc33a96ed4f8"
          },
          {
            "reference": "urn:uuid:d6e241de-d573-4363-a725-5b5c53b35837"
          },
          {
            "reference": "urn:uuid:13fc9b8d-ed07-4865-8574-acae8b84d114"
          },
          {
            "reference": "urn:uuid:69545c76-eecb-4988-9f1d-b5370f0251fa"
          },
          {
            "reference": "urn:uuid:1f28fecf-f3a2-4cad-8bf6-497790796113"
          },
          {
            "reference": "urn:uuid:46339745-18fd-41b2-adb8-dd38de4cc8f4"
          },
          {
            "reference": "urn:uuid:80c67eb4-bb28-4861-ac83-21b55a79d051"
          },
          {
            "reference": "urn:uuid:782be472-060d-4085-87d2-908c4a681ff5"
          },
          {
            "reference": "urn:uuid:351d9cd2-9673-4389-8d38-fdeeb7aa19a5"
          },
          {
            "reference": "urn:uuid:724e9552-3e18-481a-b542-d97b9ca3fa9a"
          },
          {
            "reference": "urn:uuid:5f71338f-ee18-48c4-bb92-e01f2e783adb"
          },
          {
            "reference": "urn:uuid:7072c2f1-3ab9-433d-8d7a-a1b789dbed03"
          },
          {
            "reference": "urn:uuid:d1ae6afd-665c-431c-991e-688f1acbd7a3"
          },
          {
            "reference": "urn:uuid:7622105d-bc22-42e2-b9b8-b789cfbc6090"
          },
          {
            "reference": "urn:uuid:80e35f21-f16b-4212-a50e-2ba42d8f1d3f"
          },
          {
            "reference": "urn:uuid:dbcef571-887f-4818-b801-af723cdb79d9"
          },
          {
            "reference": "urn:uuid:fe1dbc36-7854-45d2-b5b3-e179645df7ce"
          }
        ],
        "status": "registered",
        "code": {
          "coding": [
            {
              "code": "11502-2",
              "system": "http://loinc.org",
              "display": "Laboratory report"
            }
          ]
        },
        "subject": {
          "reference": "urn:uuid:84134239-00f7-4f54-acf1-ea460f1a952f",
          "display": "Meaghan Neary"
        }
      }
    },
    {
      "fullUrl": "urn:uuid:84134239-00f7-4f54-acf1-ea460f1a952f",
      "resource": {
        "resourceType": "Patient",
        "id": "84134239-00f7-4f54-acf1-ea460f1a952f",
        "meta": {
          "security": [
            {
              "system": "http://terminology.hl7.org/CodeSystem/v3-ActReason",
              "code": "HTEST"
            },
            {
              "system": "http://terminology.hl7.org/CodeSystem/v3-ActReason",
              "code": "TRAIN"
            }
          ],
          "tag": [
            {
              "system": "https://synderai.net/fhir/CodeSystem/tags",
              "code": "synthetic",
              "display": "SYNDERAI Synthetic data"
            }
          ],
          "profile": [
            "http://hl7.eu/fhir/base/StructureDefinition/patient-eu-core"
          ]
        },
        "identifier": [
          {
            "type": {
              "coding": [
                {
                  "code": "PT",
                  "system": "http://terminology.hl7.org/CodeSystem/v2-0203"
                }
              ]
            },
            "system": "http://ec.europa.eu/identifier/eci",
            "value": "1586-567257-8"
          },
          {
            "type": {
              "coding": [
                {
                  "code": "MR",
                  "system": "http://terminology.hl7.org/CodeSystem/v2-0203"
                }
              ]
            },
            "system": "http://local.setting.eu/identifier",
            "value": "443e6379-f231-b364-3ccb-644740a1aa2a"
          }
        ],
        "name": [
          {
            "family": "Neary"
          },
          {
            "given": [
              "Meaghan"
            ]
          },
          {
            "text": "Meaghan Neary"
          }
        ],
        "address": [
          {
            "line": [
              "64 Linskey Street"
            ],
            "use": "home",
            "type": "physical",
            "postalCode": "D02",
            "city": "Dublin",
            "country": "Ireland"
          }
        ],
        "telecom": [
          {
            "system": "phone",
            "value": "001-967-573-0911x465"
          }
        ],
        "extension": [
          {
            "url": "http://hl7.org/fhir/StructureDefinition/patient-nationality",
            "valueCodeableConcept": {
              "coding": [
                {
                  "code": "IE",
                  "system": "http://hl7.org/fhir/ValueSet/country"
                }
              ]
            }
          }
        ],
        "text": {
          "status": "generated",
          "div": "<div xmlns=\"http://www.w3.org/1999/xhtml\"><table class=\"hl7__ips\"><tr><td>Meaghan Neary</td><td>female</td><td>19-Dec-1960</td></tr></table></div>"
        },
        "gender": "female",
        "birthDate": "1960-12-19"
      }
    },
    {
      "fullUrl": "urn:uuid:afe23449-062d-4755-92c2-b2d723ad0b44",
      "resource": {
        "resourceType": "ServiceRequest",
        "id": "afe23449-062d-4755-92c2-b2d723ad0b44",
        "meta": {
          "profile": [
            "http://hl7.eu/fhir/laboratory/StructureDefinition/ServiceRequest-eu-lab"
          ]
        },
        "identifier": [
          {
            "system": "http://example.org",
            "value": "090e5b4f-c786-4399-ad8a-bde9b1e8965b"
          }
        ],
        "specimen": [
          {
            "reference": "urn:uuid:d35dd442-e3c1-4ed6-a5cb-98942425c7dc"
          },
          {
            "reference": "urn:uuid:8cb3ef7b-f595-4a7d-8a93-c009cccd71b1"
          },
          {
            "reference": "urn:uuid:eddd24f5-9a25-46fb-bce6-a4bb34626425"
          }
        ],
        "reasonCode": [
          {
            "coding": [
              {
                "code": "55822004",
                "system": "http://snomed.info/sct",
                "display": "Hyperlipidemia"
              }
            ]
          },
          {
            "coding": [
              {
                "code": "433144002",
                "system": "http://snomed.info/sct",
                "display": "Chronic kidney disease stage 3"
              }
            ]
          },
          {
            "coding": [
              {
                "code": "157141000119108",
                "system": "http://snomed.info/sct",
                "display": "Proteinuria due to type 2 diabetes mellitus"
              }
            ]
          },
          {
            "coding": [
              {
                "code": "431856006",
                "system": "http://snomed.info/sct",
                "display": "Chronic kidney disease stage 2"
              }
            ]
          },
          {
            "coding": [
              {
                "code": "90781000119102",
                "system": "http://snomed.info/sct",
                "display": "Microalbuminuria due to type 2 diabetes mellitus"
              }
            ]
          },
          {
            "coding": [
              {
                "code": "127013003",
                "system": "http://snomed.info/sct",
                "display": "Disorder of kidney due to diabetes mellitus"
              }
            ]
          },
          {
            "coding": [
              {
                "code": "431855005",
                "system": "http://snomed.info/sct",
                "display": "Chronic kidney disease stage 1"
              }
            ]
          },
          {
            "coding": [
              {
                "code": "237602007",
                "system": "http://snomed.info/sct",
                "display": "Metabolic syndrome X"
              }
            ]
          },
          {
            "coding": [
              {
                "code": "271737000",
                "system": "http://snomed.info/sct",
                "display": "Anemia"
              }
            ]
          },
          {
            "coding": [
              {
                "code": "15777000",
                "system": "http://snomed.info/sct",
                "display": "Prediabetes"
              }
            ]
          },
          {
            "coding": [
              {
                "code": "59621000",
                "system": "http://snomed.info/sct",
                "display": "Essential hypertension"
              }
            ]
          }
        ],
        "status": "active",
        "intent": "order",
        "code": {
          "coding": [
            {
              "code": "108252007",
              "system": "http://snomed.info/sct",
              "display": "Laboratory procedure"
            }
          ]
        },
        "subject": {
          "reference": "urn:uuid:84134239-00f7-4f54-acf1-ea460f1a952f",
          "display": "Meaghan Neary"
        },
        "requester": {
          "reference": "urn:uuid:949ea270-a06c-4900-9e34-8d52be27a486"
        }
      }
    },
    {
      "fullUrl": "urn:uuid:949ea270-a06c-4900-9e34-8d52be27a486",
      "resource": {
        "resourceType": "PractitionerRole",
        "id": "949ea270-a06c-4900-9e34-8d52be27a486",
        "meta": {
          "profile": [
            "http://hl7.eu/fhir/base/StructureDefinition/practitionerRole-eu"
          ]
        },
        "text": {
          "status": "generated",
          "div": "<div xmlns=\"http://www.w3.org/1999/xhtml\">Provider Role Id: 949ea270-a06c-4900-9e34-8d52be27a486</div>"
        },
        "organization": {
          "reference": "urn:uuid:ee0ec851-5352-4752-ace3-6956bad195e0"
        }
      }
    },
    {
      "fullUrl": "urn:uuid:ee0ec851-5352-4752-ace3-6956bad195e0",
      "resource": {
        "resourceType": "Organization",
        "id": "ee0ec851-5352-4752-ace3-6956bad195e0",
        "meta": {
          "profile": [
            "http://hl7.eu/fhir/base/StructureDefinition/organization-eu"
          ]
        },
        "identifier": [
          {
            "assigner": {
              "display": "HL7 Europe"
            },
            "system": "urn:oid:2.16.840.1.113883.2.51.999",
            "value": "81c1c236-5bc4-4633-b8a0-805f4330de58"
          }
        ],
        "address": [
          {
            "line": [
              "Parnell Square West nan"
            ],
            "city": "Dublin",
            "postalCode": "D01",
            "country": "Ireland"
          }
        ],
        "text": {
          "status": "generated",
          "div": "<div xmlns=\"http://www.w3.org/1999/xhtml\">Provider Organization: Rotunda Hospital</div>"
        },
        "name": "Rotunda Hospital"
      }
    },
    {
      "fullUrl": "urn:uuid:d35dd442-e3c1-4ed6-a5cb-98942425c7dc",
      "resource": {
        "resourceType": "Specimen",
        "id": "d35dd442-e3c1-4ed6-a5cb-98942425c7dc",
        "meta": {
          "profile": [
            "http://hl7.eu/fhir/laboratory/StructureDefinition/Specimen-eu-lab"
          ]
        },
        "collection": {
          "collectedDateTime": "2024-04-29"
        },
        "text": {
          "status": "generated",
          "div": "<div xmlns=\"http://www.w3.org/1999/xhtml\"><table class=\"hl7__eu__lab__report\"><tr><th>Specimen</th><th>Collection Date</th></tr><tr><td>Acellular blood (serum or plasma) specimen</td><td><span class=\"nb\">29-Apr-2024</span></td></tr></table></div>"
        },
        "type": {
          "coding": [
            {
              "code": "122592007",
              "system": "http://snomed.info/sct",
              "display": "Acellular blood (serum or plasma) specimen"
            }
          ]
        }
      }
    },
    {
      "fullUrl": "urn:uuid:8cb3ef7b-f595-4a7d-8a93-c009cccd71b1",
      "resource": {
        "resourceType": "Specimen",
        "id": "8cb3ef7b-f595-4a7d-8a93-c009cccd71b1",
        "meta": {
          "profile": [
            "http://hl7.eu/fhir/laboratory/StructureDefinition/Specimen-eu-lab"
          ]
        },
        "collection": {
          "collectedDateTime": "2024-04-29"
        },
        "text": {
          "status": "generated",
          "div": "<div xmlns=\"http://www.w3.org/1999/xhtml\"><table class=\"hl7__eu__lab__report\"><tr><th>Specimen</th><th>Collection Date</th></tr><tr><td>Urine specimen</td><td><span class=\"nb\">29-Apr-2024</span></td></tr></table></div>"
        },
        "type": {
          "coding": [
            {
              "code": "122575003",
              "system": "http://snomed.info/sct",
              "display": "Urine specimen"
            }
          ]
        }
      }
    },
    {
      "fullUrl": "urn:uuid:eddd24f5-9a25-46fb-bce6-a4bb34626425",
      "resource": {
        "resourceType": "Specimen",
        "id": "eddd24f5-9a25-46fb-bce6-a4bb34626425",
        "meta": {
          "profile": [
            "http://hl7.eu/fhir/laboratory/StructureDefinition/Specimen-eu-lab"
          ]
        },
        "collection": {
          "collectedDateTime": "2024-04-29"
        },
        "text": {
          "status": "generated",
          "div": "<div xmlns=\"http://www.w3.org/1999/xhtml\"><table class=\"hl7__eu__lab__report\"><tr><th>Specimen</th><th>Collection Date</th></tr><tr><td>Whole blood specimen (specimen)</td><td><span class=\"nb\">29-Apr-2024</span></td></tr></table></div>"
        },
        "type": {
          "coding": [
            {
              "code": "258580003",
              "system": "http://snomed.info/sct",
              "display": "Whole blood specimen (specimen)"
            }
          ]
        }
      }
    },
    {
      "fullUrl": "urn:uuid:9eafaefe-23cf-4e4e-a8c6-04eeeeb172ee",
      "resource": {
        "resourceType": "Observation",
        "id": "9eafaefe-23cf-4e4e-a8c6-04eeeeb172ee",
        "meta": {
          "profile": [
            "http://hl7.eu/fhir/laboratory/StructureDefinition/Observation-resultslab-eu-lab"
          ]
        },
        "performer": [
          {
            "display": "The Central European Lab"
          }
        ],
        "category": [
          {
            "coding": [
              {
                "system": "http://terminology.hl7.org/CodeSystem/observation-category",
                "code": "laboratory"
              }
            ]
          }
        ],
        "code": {
          "coding": [
            {
              "code": "2345-7",
              "system": "http://loinc.org",
              "display": "Glucose [Mass/volume] in Serum or Plasma"
            }
          ],
          "text": "Glucose [Mass/volume] in Serum or Plasma"
        },
        "valueQuantity": {
          "system": "http://unitsofmeasure.org",
          "value": 71.9,
          "unit": "mg/dL",
          "code": "mg/dL"
        },
        "referenceRange": [
          {
            "low": {
              "value": 70,
              "code": "mg/dL",
              "system": "http://unitsofmeasure.org"
            }
          },
          {
            "high": {
              "value": 99,
              "code": "mg/dL",
              "system": "http://unitsofmeasure.org"
            }
          }
        ],
        "text": {
          "status": "generated",
          "div": "<div xmlns=\"http://www.w3.org/1999/xhtml\"><table class=\"hl7__eu__lab__report\"><tr><th>Test</th><th>30-Apr-2024</th><th>Reference&#xA0;Range</th><th>Unit</th></tr><tr><td>Glucose [Mass/volume] in Serum or Plasma</td><td>71.9</td><td>70 - 99</td><td></td><td>mg/dL</td></tr></table></div>"
        },
        "status": "final",
        "subject": {
          "reference": "urn:uuid:84134239-00f7-4f54-acf1-ea460f1a952f",
          "display": "Meaghan Neary"
        },
        "effectiveDateTime": "2024-04-29T22:11:04Z",
        "specimen": {
          "reference": "urn:uuid:d35dd442-e3c1-4ed6-a5cb-98942425c7dc"
        }
      }
    },
    {
      "fullUrl": "urn:uuid:17ab9518-8aab-4521-a433-0fb81da9611a",
      "resource": {
        "resourceType": "Observation",
        "id": "17ab9518-8aab-4521-a433-0fb81da9611a",
        "meta": {
          "profile": [
            "http://hl7.eu/fhir/laboratory/StructureDefinition/Observation-resultslab-eu-lab"
          ]
        },
        "performer": [
          {
            "display": "The Central European Lab"
          }
        ],
        "category": [
          {
            "coding": [
              {
                "system": "http://terminology.hl7.org/CodeSystem/observation-category",
                "code": "laboratory"
              }
            ]
          }
        ],
        "code": {
          "coding": [
            {
              "code": "3094-0",
              "system": "http://loinc.org",
              "display": "Urea nitrogen [Mass/volume] in Serum or Plasma"
            }
          ],
          "text": "Urea nitrogen [Mass/volume] in Serum or Plasma"
        },
        "valueQuantity": {
          "system": "http://unitsofmeasure.org",
          "value": 14,
          "unit": "mg/dL",
          "code": "mg/dL"
        },
        "referenceRange": [
          {
            "low": {
              "value": 7,
              "code": "mg/dL",
              "system": "http://unitsofmeasure.org"
            }
          },
          {
            "high": {
              "value": 50,
              "code": "mg/dL",
              "system": "http://unitsofmeasure.org"
            }
          }
        ],
        "text": {
          "status": "generated",
          "div": "<div xmlns=\"http://www.w3.org/1999/xhtml\"><table class=\"hl7__eu__lab__report\"><tr><th>Test</th><th>30-Apr-2024</th><th>Reference&#xA0;Range</th><th>Unit</th></tr><tr><td>Urea nitrogen [Mass/volume] in Serum or Plasma</td><td>14.0</td><td>7 - 50</td><td></td><td>mg/dL</td></tr></table></div>"
        },
        "status": "final",
        "subject": {
          "reference": "urn:uuid:84134239-00f7-4f54-acf1-ea460f1a952f",
          "display": "Meaghan Neary"
        },
        "effectiveDateTime": "2024-04-29T22:11:04Z",
        "specimen": {
          "reference": "urn:uuid:d35dd442-e3c1-4ed6-a5cb-98942425c7dc"
        }
      }
    },
    {
      "fullUrl": "urn:uuid:c6d51b5e-c260-48ea-8719-d869e37c6ea2",
      "resource": {
        "resourceType": "Observation",
        "id": "c6d51b5e-c260-48ea-8719-d869e37c6ea2",
        "meta": {
          "profile": [
            "http://hl7.eu/fhir/laboratory/StructureDefinition/Observation-resultslab-eu-lab"
          ]
        },
        "performer": [
          {
            "display": "The Central European Lab"
          }
        ],
        "category": [
          {
            "coding": [
              {
                "system": "http://terminology.hl7.org/CodeSystem/observation-category",
                "code": "laboratory"
              }
            ]
          }
        ],
        "code": {
          "coding": [
            {
              "code": "2160-0",
              "system": "http://loinc.org",
              "display": "Creatinine [Mass/volume] in Serum or Plasma"
            }
          ],
          "text": "Creatinine [Mass/volume] in Serum or Plasma"
        },
        "valueQuantity": {
          "system": "http://unitsofmeasure.org",
          "value": 2.1,
          "unit": "mg/dL",
          "code": "mg/dL"
        },
        "referenceRange": [
          {
            "low": {
              "value": 0.6,
              "code": "mg/dL",
              "system": "http://unitsofmeasure.org"
            }
          },
          {
            "high": {
              "value": 1.1,
              "code": "mg/dL",
              "system": "http://unitsofmeasure.org"
            }
          }
        ],
        "interpretation": [
          {
            "coding": [
              {
                "code": "H",
                "system": "http://terminology.hl7.org/CodeSystem/v3-ObservationInterpretation",
                "display": "High"
              }
            ]
          }
        ],
        "text": {
          "status": "generated",
          "div": "<div xmlns=\"http://www.w3.org/1999/xhtml\"><table class=\"hl7__eu__lab__report\"><tr><th>Test</th><th>30-Apr-2024</th><th>Reference&#xA0;Range</th><th>Unit</th></tr><tr><td>Creatinine [Mass/volume] in Serum or Plasma</td><td>2.1</td><td>0.6 - 1.1</td><td>H</td><td>mg/dL</td></tr></table></div>"
        },
        "status": "final",
        "subject": {
          "reference": "urn:uuid:84134239-00f7-4f54-acf1-ea460f1a952f",
          "display": "Meaghan Neary"
        },
        "effectiveDateTime": "2024-04-29T22:11:04Z",
        "specimen": {
          "reference": "urn:uuid:d35dd442-e3c1-4ed6-a5cb-98942425c7dc"
        }
      }
    },
    {
      "fullUrl": "urn:uuid:b996c849-2d54-450c-a9e4-7461908252ac",
      "resource": {
        "resourceType": "Observation",
        "id": "b996c849-2d54-450c-a9e4-7461908252ac",
        "meta": {
          "profile": [
            "http://hl7.eu/fhir/laboratory/StructureDefinition/Observation-resultslab-eu-lab"
          ]
        },
        "performer": [
          {
            "display": "The Central European Lab"
          }
        ],
        "category": [
          {
            "coding": [
              {
                "system": "http://terminology.hl7.org/CodeSystem/observation-category",
                "code": "laboratory"
              }
            ]
          }
        ],
        "code": {
          "coding": [
            {
              "code": "17861-6",
              "system": "http://loinc.org",
              "display": "Calcium [Mass/volume] in Serum or Plasma"
            }
          ],
          "text": "Calcium [Mass/volume] in Serum or Plasma"
        },
        "valueQuantity": {
          "system": "http://unitsofmeasure.org",
          "value": 9.4,
          "unit": "mg/dL",
          "code": "mg/dL"
        },
        "referenceRange": [
          {
            "low": {
              "value": 8.6,
              "code": "mg/dL",
              "system": "http://unitsofmeasure.org"
            }
          },
          {
            "high": {
              "value": 10.4,
              "code": "mg/dL",
              "system": "http://unitsofmeasure.org"
            }
          }
        ],
        "text": {
          "status": "generated",
          "div": "<div xmlns=\"http://www.w3.org/1999/xhtml\"><table class=\"hl7__eu__lab__report\"><tr><th>Test</th><th>30-Apr-2024</th><th>Reference&#xA0;Range</th><th>Unit</th></tr><tr><td>Calcium [Mass/volume] in Serum or Plasma</td><td>9.4</td><td>8.6 - 10.4</td><td></td><td>mg/dL</td></tr></table></div>"
        },
        "status": "final",
        "subject": {
          "reference": "urn:uuid:84134239-00f7-4f54-acf1-ea460f1a952f",
          "display": "Meaghan Neary"
        },
        "effectiveDateTime": "2024-04-29T22:11:04Z",
        "specimen": {
          "reference": "urn:uuid:d35dd442-e3c1-4ed6-a5cb-98942425c7dc"
        }
      }
    },
    {
      "fullUrl": "urn:uuid:56ab9120-7569-42d4-8f17-48eccda65d8d",
      "resource": {
        "resourceType": "Observation",
        "id": "56ab9120-7569-42d4-8f17-48eccda65d8d",
        "meta": {
          "profile": [
            "http://hl7.eu/fhir/laboratory/StructureDefinition/Observation-resultslab-eu-lab"
          ]
        },
        "performer": [
          {
            "display": "The Central European Lab"
          }
        ],
        "category": [
          {
            "coding": [
              {
                "system": "http://terminology.hl7.org/CodeSystem/observation-category",
                "code": "laboratory"
              }
            ]
          }
        ],
        "code": {
          "coding": [
            {
              "code": "2951-2",
              "system": "http://loinc.org",
              "display": "Sodium [Moles/volume] in Serum or Plasma"
            }
          ],
          "text": "Sodium [Moles/volume] in Serum or Plasma"
        },
        "valueQuantity": {
          "system": "http://unitsofmeasure.org",
          "value": 136.3,
          "unit": "mmol/L",
          "code": "mmol/L"
        },
        "referenceRange": [
          {
            "low": {
              "value": 135,
              "code": "mmol/L",
              "system": "http://unitsofmeasure.org"
            }
          },
          {
            "high": {
              "value": 145,
              "code": "mmol/L",
              "system": "http://unitsofmeasure.org"
            }
          }
        ],
        "text": {
          "status": "generated",
          "div": "<div xmlns=\"http://www.w3.org/1999/xhtml\"><table class=\"hl7__eu__lab__report\"><tr><th>Test</th><th>30-Apr-2024</th><th>Reference&#xA0;Range</th><th>Unit</th></tr><tr><td>Sodium [Moles/volume] in Serum or Plasma</td><td>136.3</td><td>135 - 145</td><td></td><td>mmol/L</td></tr></table></div>"
        },
        "status": "final",
        "subject": {
          "reference": "urn:uuid:84134239-00f7-4f54-acf1-ea460f1a952f",
          "display": "Meaghan Neary"
        },
        "effectiveDateTime": "2024-04-29T22:11:04Z",
        "specimen": {
          "reference": "urn:uuid:d35dd442-e3c1-4ed6-a5cb-98942425c7dc"
        }
      }
    },
    {
      "fullUrl": "urn:uuid:a80d438b-8a25-485c-8489-a2dae2fe1b8f",
      "resource": {
        "resourceType": "Observation",
        "id": "a80d438b-8a25-485c-8489-a2dae2fe1b8f",
        "meta": {
          "profile": [
            "http://hl7.eu/fhir/laboratory/StructureDefinition/Observation-resultslab-eu-lab"
          ]
        },
        "performer": [
          {
            "display": "The Central European Lab"
          }
        ],
        "category": [
          {
            "coding": [
              {
                "system": "http://terminology.hl7.org/CodeSystem/observation-category",
                "code": "laboratory"
              }
            ]
          }
        ],
        "code": {
          "coding": [
            {
              "code": "2823-3",
              "system": "http://loinc.org",
              "display": "Potassium [Moles/volume] in Serum or Plasma"
            }
          ],
          "text": "Potassium [Moles/volume] in Serum or Plasma"
        },
        "valueQuantity": {
          "system": "http://unitsofmeasure.org",
          "value": 4.6,
          "unit": "mmol/L",
          "code": "mmol/L"
        },
        "referenceRange": [
          {
            "low": {
              "value": 3.5,
              "code": "mmol/L",
              "system": "http://unitsofmeasure.org"
            }
          },
          {
            "high": {
              "value": 5.1,
              "code": "mmol/L",
              "system": "http://unitsofmeasure.org"
            }
          }
        ],
        "text": {
          "status": "generated",
          "div": "<div xmlns=\"http://www.w3.org/1999/xhtml\"><table class=\"hl7__eu__lab__report\"><tr><th>Test</th><th>30-Apr-2024</th><th>Reference&#xA0;Range</th><th>Unit</th></tr><tr><td>Potassium [Moles/volume] in Serum or Plasma</td><td>4.6</td><td>3.5 - 5.1</td><td></td><td>mmol/L</td></tr></table></div>"
        },
        "status": "final",
        "subject": {
          "reference": "urn:uuid:84134239-00f7-4f54-acf1-ea460f1a952f",
          "display": "Meaghan Neary"
        },
        "effectiveDateTime": "2024-04-29T22:11:04Z",
        "specimen": {
          "reference": "urn:uuid:d35dd442-e3c1-4ed6-a5cb-98942425c7dc"
        }
      }
    },
    {
      "fullUrl": "urn:uuid:6e25ce3e-bcc4-4f36-a7be-5c3945bd47ca",
      "resource": {
        "resourceType": "Observation",
        "id": "6e25ce3e-bcc4-4f36-a7be-5c3945bd47ca",
        "meta": {
          "profile": [
            "http://hl7.eu/fhir/laboratory/StructureDefinition/Observation-resultslab-eu-lab"
          ]
        },
        "performer": [
          {
            "display": "The Central European Lab"
          }
        ],
        "category": [
          {
            "coding": [
              {
                "system": "http://terminology.hl7.org/CodeSystem/observation-category",
                "code": "laboratory"
              }
            ]
          }
        ],
        "code": {
          "coding": [
            {
              "code": "2075-0",
              "system": "http://loinc.org",
              "display": "Chloride [Moles/volume] in Serum or Plasma"
            }
          ],
          "text": "Chloride [Moles/volume] in Serum or Plasma"
        },
        "valueQuantity": {
          "system": "http://unitsofmeasure.org",
          "value": 110.5,
          "unit": "mmol/L",
          "code": "mmol/L"
        },
        "referenceRange": [
          {
            "low": {
              "value": 98,
              "code": "mmol/L",
              "system": "http://unitsofmeasure.org"
            }
          },
          {
            "high": {
              "value": 108,
              "code": "mmol/L",
              "system": "http://unitsofmeasure.org"
            }
          }
        ],
        "interpretation": [
          {
            "coding": [
              {
                "code": "H",
                "system": "http://terminology.hl7.org/CodeSystem/v3-ObservationInterpretation",
                "display": "High"
              }
            ]
          }
        ],
        "text": {
          "status": "generated",
          "div": "<div xmlns=\"http://www.w3.org/1999/xhtml\"><table class=\"hl7__eu__lab__report\"><tr><th>Test</th><th>30-Apr-2024</th><th>Reference&#xA0;Range</th><th>Unit</th></tr><tr><td>Chloride [Moles/volume] in Serum or Plasma</td><td>110.5</td><td>98 - 108</td><td>H</td><td>mmol/L</td></tr></table></div>"
        },
        "status": "final",
        "subject": {
          "reference": "urn:uuid:84134239-00f7-4f54-acf1-ea460f1a952f",
          "display": "Meaghan Neary"
        },
        "effectiveDateTime": "2024-04-29T22:11:04Z",
        "specimen": {
          "reference": "urn:uuid:d35dd442-e3c1-4ed6-a5cb-98942425c7dc"
        }
      }
    },
    {
      "fullUrl": "urn:uuid:75200ade-57d2-46fb-a302-fdeb6acd9513",
      "resource": {
        "resourceType": "Observation",
        "id": "75200ade-57d2-46fb-a302-fdeb6acd9513",
        "meta": {
          "profile": [
            "http://hl7.eu/fhir/laboratory/StructureDefinition/Observation-resultslab-eu-lab"
          ]
        },
        "performer": [
          {
            "display": "The Central European Lab"
          }
        ],
        "category": [
          {
            "coding": [
              {
                "system": "http://terminology.hl7.org/CodeSystem/observation-category",
                "code": "laboratory"
              }
            ]
          }
        ],
        "code": {
          "coding": [
            {
              "code": "2028-9",
              "system": "http://loinc.org",
              "display": "Carbon dioxide, total [Moles/volume] in Serum or Plasma"
            }
          ],
          "text": "Carbon dioxide, total [Moles/volume] in Serum or Plasma"
        },
        "valueQuantity": {
          "system": "http://unitsofmeasure.org",
          "value": 21.3,
          "unit": "mmol/L",
          "code": "mmol/L"
        },
        "referenceRange": [
          {
            "low": {
              "value": 22,
              "code": "mmol/L",
              "system": "http://unitsofmeasure.org"
            }
          },
          {
            "high": {
              "value": 32,
              "code": "mmol/L",
              "system": "http://unitsofmeasure.org"
            }
          }
        ],
        "interpretation": [
          {
            "coding": [
              {
                "code": "L",
                "system": "http://terminology.hl7.org/CodeSystem/v3-ObservationInterpretation",
                "display": "Low"
              }
            ]
          }
        ],
        "text": {
          "status": "generated",
          "div": "<div xmlns=\"http://www.w3.org/1999/xhtml\"><table class=\"hl7__eu__lab__report\"><tr><th>Test</th><th>30-Apr-2024</th><th>Reference&#xA0;Range</th><th>Unit</th></tr><tr><td>Carbon dioxide, total [Moles/volume] in Serum or Plasma</td><td>21.3</td><td>22 - 32</td><td>L</td><td>mmol/L</td></tr></table></div>"
        },
        "status": "final",
        "subject": {
          "reference": "urn:uuid:84134239-00f7-4f54-acf1-ea460f1a952f",
          "display": "Meaghan Neary"
        },
        "effectiveDateTime": "2024-04-29T22:11:04Z",
        "specimen": {
          "reference": "urn:uuid:d35dd442-e3c1-4ed6-a5cb-98942425c7dc"
        }
      }
    },
    {
      "fullUrl": "urn:uuid:f8b4c0ee-c773-4b52-bd22-7bcbf22bd6d2",
      "resource": {
        "resourceType": "Observation",
        "id": "f8b4c0ee-c773-4b52-bd22-7bcbf22bd6d2",
        "meta": {
          "profile": [
            "http://hl7.eu/fhir/laboratory/StructureDefinition/Observation-resultslab-eu-lab"
          ]
        },
        "performer": [
          {
            "display": "The Central European Lab"
          }
        ],
        "category": [
          {
            "coding": [
              {
                "system": "http://terminology.hl7.org/CodeSystem/observation-category",
                "code": "laboratory"
              }
            ]
          }
        ],
        "code": {
          "coding": [
            {
              "code": "5767-9",
              "system": "http://loinc.org",
              "display": "Appearance of Urine"
            }
          ],
          "text": "Appearance of Urine"
        },
        "text": {
          "status": "generated",
          "div": "<div xmlns=\"http://www.w3.org/1999/xhtml\"><table class=\"hl7__eu__lab__report\"><tr><th>Test</th><th>30-Apr-2024</th><th>Reference&#xA0;Range</th><th>Unit</th></tr><tr><td>Appearance of Urine</td></tr></table></div>"
        },
        "status": "final",
        "subject": {
          "reference": "urn:uuid:84134239-00f7-4f54-acf1-ea460f1a952f",
          "display": "Meaghan Neary"
        },
        "effectiveDateTime": "2024-04-29T22:11:04Z",
        "specimen": {
          "reference": "urn:uuid:8cb3ef7b-f595-4a7d-8a93-c009cccd71b1"
        }
      }
    },
    {
      "fullUrl": "urn:uuid:5aaccba9-c301-491a-b6b4-abcd0a529301",
      "resource": {
        "resourceType": "Observation",
        "id": "5aaccba9-c301-491a-b6b4-abcd0a529301",
        "meta": {
          "profile": [
            "http://hl7.eu/fhir/laboratory/StructureDefinition/Observation-resultslab-eu-lab"
          ]
        },
        "performer": [
          {
            "display": "The Central European Lab"
          }
        ],
        "category": [
          {
            "coding": [
              {
                "system": "http://terminology.hl7.org/CodeSystem/observation-category",
                "code": "laboratory"
              }
            ]
          }
        ],
        "code": {
          "coding": [
            {
              "code": "34533-0",
              "system": "http://loinc.org",
              "display": "Odor of Urine"
            }
          ],
          "text": "Odor of Urine"
        },
        "text": {
          "status": "generated",
          "div": "<div xmlns=\"http://www.w3.org/1999/xhtml\"><table class=\"hl7__eu__lab__report\"><tr><th>Test</th><th>30-Apr-2024</th><th>Reference&#xA0;Range</th><th>Unit</th></tr><tr><td>Odor of Urine</td></tr></table></div>"
        },
        "status": "final",
        "subject": {
          "reference": "urn:uuid:84134239-00f7-4f54-acf1-ea460f1a952f",
          "display": "Meaghan Neary"
        },
        "effectiveDateTime": "2024-04-29T22:11:04Z",
        "specimen": {
          "reference": "urn:uuid:8cb3ef7b-f595-4a7d-8a93-c009cccd71b1"
        }
      }
    },
    {
      "fullUrl": "urn:uuid:f2bc4313-fe26-4ebb-a78c-f802916e7ff8",
      "resource": {
        "resourceType": "Observation",
        "id": "f2bc4313-fe26-4ebb-a78c-f802916e7ff8",
        "meta": {
          "profile": [
            "http://hl7.eu/fhir/laboratory/StructureDefinition/Observation-resultslab-eu-lab"
          ]
        },
        "performer": [
          {
            "display": "The Central European Lab"
          }
        ],
        "category": [
          {
            "coding": [
              {
                "system": "http://terminology.hl7.org/CodeSystem/observation-category",
                "code": "laboratory"
              }
            ]
          }
        ],
        "code": {
          "coding": [
            {
              "code": "32167-9",
              "system": "http://loinc.org",
              "display": "Clarity of Urine"
            }
          ],
          "text": "Clarity of Urine"
        },
        "text": {
          "status": "generated",
          "div": "<div xmlns=\"http://www.w3.org/1999/xhtml\"><table class=\"hl7__eu__lab__report\"><tr><th>Test</th><th>30-Apr-2024</th><th>Reference&#xA0;Range</th><th>Unit</th></tr><tr><td>Clarity of Urine</td></tr></table></div>"
        },
        "status": "final",
        "subject": {
          "reference": "urn:uuid:84134239-00f7-4f54-acf1-ea460f1a952f",
          "display": "Meaghan Neary"
        },
        "effectiveDateTime": "2024-04-29T22:11:04Z",
        "specimen": {
          "reference": "urn:uuid:8cb3ef7b-f595-4a7d-8a93-c009cccd71b1"
        }
      }
    },
    {
      "fullUrl": "urn:uuid:fda9cb15-0e6c-41e5-b788-aa2a68c9a8ec",
      "resource": {
        "resourceType": "Observation",
        "id": "fda9cb15-0e6c-41e5-b788-aa2a68c9a8ec",
        "meta": {
          "profile": [
            "http://hl7.eu/fhir/laboratory/StructureDefinition/Observation-resultslab-eu-lab"
          ]
        },
        "performer": [
          {
            "display": "The Central European Lab"
          }
        ],
        "category": [
          {
            "coding": [
              {
                "system": "http://terminology.hl7.org/CodeSystem/observation-category",
                "code": "laboratory"
              }
            ]
          }
        ],
        "code": {
          "coding": [
            {
              "code": "5778-6",
              "system": "http://loinc.org",
              "display": "Color of Urine"
            }
          ],
          "text": "Color of Urine"
        },
        "text": {
          "status": "generated",
          "div": "<div xmlns=\"http://www.w3.org/1999/xhtml\"><table class=\"hl7__eu__lab__report\"><tr><th>Test</th><th>30-Apr-2024</th><th>Reference&#xA0;Range</th><th>Unit</th></tr><tr><td>Color of Urine</td></tr></table></div>"
        },
        "status": "final",
        "subject": {
          "reference": "urn:uuid:84134239-00f7-4f54-acf1-ea460f1a952f",
          "display": "Meaghan Neary"
        },
        "effectiveDateTime": "2024-04-29T22:11:04Z",
        "specimen": {
          "reference": "urn:uuid:8cb3ef7b-f595-4a7d-8a93-c009cccd71b1"
        }
      }
    },
    {
      "fullUrl": "urn:uuid:7b9a7823-1608-4f6d-9797-ddb2dbfd8daf",
      "resource": {
        "resourceType": "Observation",
        "id": "7b9a7823-1608-4f6d-9797-ddb2dbfd8daf",
        "meta": {
          "profile": [
            "http://hl7.eu/fhir/laboratory/StructureDefinition/Observation-resultslab-eu-lab"
          ]
        },
        "performer": [
          {
            "display": "The Central European Lab"
          }
        ],
        "category": [
          {
            "coding": [
              {
                "system": "http://terminology.hl7.org/CodeSystem/observation-category",
                "code": "laboratory"
              }
            ]
          }
        ],
        "code": {
          "coding": [
            {
              "code": "5792-7",
              "system": "http://loinc.org",
              "display": "Glucose [Mass/volume] in Urine by Test strip"
            }
          ],
          "text": "Glucose [Mass/volume] in Urine by Test strip"
        },
        "valueQuantity": {
          "system": "http://unitsofmeasure.org",
          "value": 1.6,
          "unit": "mg/dL",
          "code": "mg/dL"
        },
        "referenceRange": [
          {
            "low": {
              "value": 0.8,
              "code": "mg/dL",
              "system": "http://unitsofmeasure.org"
            }
          },
          {
            "high": {
              "value": 0,
              "code": "mg/dL",
              "system": "http://unitsofmeasure.org"
            }
          }
        ],
        "interpretation": [
          {
            "coding": [
              {
                "code": "H",
                "system": "http://terminology.hl7.org/CodeSystem/v3-ObservationInterpretation",
                "display": "High"
              }
            ]
          }
        ],
        "text": {
          "status": "generated",
          "div": "<div xmlns=\"http://www.w3.org/1999/xhtml\"><table class=\"hl7__eu__lab__report\"><tr><th>Test</th><th>30-Apr-2024</th><th>Reference&#xA0;Range</th><th>Unit</th></tr><tr><td>Glucose [Mass/volume] in Urine by Test strip</td><td>1.6</td><td>0.8 - 0</td><td>H</td><td>mg/dL</td></tr></table></div>"
        },
        "status": "final",
        "subject": {
          "reference": "urn:uuid:84134239-00f7-4f54-acf1-ea460f1a952f",
          "display": "Meaghan Neary"
        },
        "effectiveDateTime": "2024-04-29T22:11:04Z",
        "specimen": {
          "reference": "urn:uuid:8cb3ef7b-f595-4a7d-8a93-c009cccd71b1"
        }
      }
    },
    {
      "fullUrl": "urn:uuid:8b682e3c-4346-4fd7-bd29-3a17f5c77040",
      "resource": {
        "resourceType": "Observation",
        "id": "8b682e3c-4346-4fd7-bd29-3a17f5c77040",
        "meta": {
          "profile": [
            "http://hl7.eu/fhir/laboratory/StructureDefinition/Observation-resultslab-eu-lab"
          ]
        },
        "performer": [
          {
            "display": "The Central European Lab"
          }
        ],
        "category": [
          {
            "coding": [
              {
                "system": "http://terminology.hl7.org/CodeSystem/observation-category",
                "code": "laboratory"
              }
            ]
          }
        ],
        "code": {
          "coding": [
            {
              "code": "25428-4",
              "system": "http://loinc.org",
              "display": "Glucose [Presence] in Urine by Test strip"
            }
          ],
          "text": "Glucose [Presence] in Urine by Test strip"
        },
        "text": {
          "status": "generated",
          "div": "<div xmlns=\"http://www.w3.org/1999/xhtml\"><table class=\"hl7__eu__lab__report\"><tr><th>Test</th><th>30-Apr-2024</th><th>Reference&#xA0;Range</th><th>Unit</th></tr><tr><td>Glucose [Presence] in Urine by Test strip</td></tr></table></div>"
        },
        "status": "final",
        "subject": {
          "reference": "urn:uuid:84134239-00f7-4f54-acf1-ea460f1a952f",
          "display": "Meaghan Neary"
        },
        "effectiveDateTime": "2024-04-29T22:11:04Z",
        "specimen": {
          "reference": "urn:uuid:8cb3ef7b-f595-4a7d-8a93-c009cccd71b1"
        }
      }
    },
    {
      "fullUrl": "urn:uuid:395dd90a-534d-4043-9543-fd831e0eb54a",
      "resource": {
        "resourceType": "Observation",
        "id": "395dd90a-534d-4043-9543-fd831e0eb54a",
        "meta": {
          "profile": [
            "http://hl7.eu/fhir/laboratory/StructureDefinition/Observation-resultslab-eu-lab"
          ]
        },
        "performer": [
          {
            "display": "The Central European Lab"
          }
        ],
        "category": [
          {
            "coding": [
              {
                "system": "http://terminology.hl7.org/CodeSystem/observation-category",
                "code": "laboratory"
              }
            ]
          }
        ],
        "code": {
          "coding": [
            {
              "code": "20505-4",
              "system": "http://loinc.org",
              "display": "Bilirubin.total [Mass/volume] in Urine by Test strip"
            }
          ],
          "text": "Bilirubin.total [Mass/volume] in Urine by Test strip"
        },
        "valueQuantity": {
          "system": "http://unitsofmeasure.org",
          "value": 1.1,
          "unit": "mg/dL",
          "code": "mg/dL"
        },
        "referenceRange": [
          {
            "low": {
              "value": 0,
              "code": "mg/dL",
              "system": "http://unitsofmeasure.org"
            }
          },
          {
            "high": {
              "value": 1,
              "code": "mg/dL",
              "system": "http://unitsofmeasure.org"
            }
          }
        ],
        "interpretation": [
          {
            "coding": [
              {
                "code": "H",
                "system": "http://terminology.hl7.org/CodeSystem/v3-ObservationInterpretation",
                "display": "High"
              }
            ]
          }
        ],
        "text": {
          "status": "generated",
          "div": "<div xmlns=\"http://www.w3.org/1999/xhtml\"><table class=\"hl7__eu__lab__report\"><tr><th>Test</th><th>30-Apr-2024</th><th>Reference&#xA0;Range</th><th>Unit</th></tr><tr><td>Bilirubin.total [Mass/volume] in Urine by Test strip</td><td>1.1</td><td>0 - 1</td><td>H</td><td>mg/dL</td></tr></table></div>"
        },
        "status": "final",
        "subject": {
          "reference": "urn:uuid:84134239-00f7-4f54-acf1-ea460f1a952f",
          "display": "Meaghan Neary"
        },
        "effectiveDateTime": "2024-04-29T22:11:04Z",
        "specimen": {
          "reference": "urn:uuid:8cb3ef7b-f595-4a7d-8a93-c009cccd71b1"
        }
      }
    },
    {
      "fullUrl": "urn:uuid:fba8ab3c-a047-45f7-ae4e-35e556b949bf",
      "resource": {
        "resourceType": "Observation",
        "id": "fba8ab3c-a047-45f7-ae4e-35e556b949bf",
        "meta": {
          "profile": [
            "http://hl7.eu/fhir/laboratory/StructureDefinition/Observation-resultslab-eu-lab"
          ]
        },
        "performer": [
          {
            "display": "The Central European Lab"
          }
        ],
        "category": [
          {
            "coding": [
              {
                "system": "http://terminology.hl7.org/CodeSystem/observation-category",
                "code": "laboratory"
              }
            ]
          }
        ],
        "code": {
          "coding": [
            {
              "code": "5770-3",
              "system": "http://loinc.org",
              "display": "Bilirubin.total [Presence] in Urine by Test strip"
            }
          ],
          "text": "Bilirubin.total [Presence] in Urine by Test strip"
        },
        "text": {
          "status": "generated",
          "div": "<div xmlns=\"http://www.w3.org/1999/xhtml\"><table class=\"hl7__eu__lab__report\"><tr><th>Test</th><th>30-Apr-2024</th><th>Reference&#xA0;Range</th><th>Unit</th></tr><tr><td>Bilirubin.total [Presence] in Urine by Test strip</td></tr></table></div>"
        },
        "status": "final",
        "subject": {
          "reference": "urn:uuid:84134239-00f7-4f54-acf1-ea460f1a952f",
          "display": "Meaghan Neary"
        },
        "effectiveDateTime": "2024-04-29T22:11:04Z",
        "specimen": {
          "reference": "urn:uuid:8cb3ef7b-f595-4a7d-8a93-c009cccd71b1"
        }
      }
    },
    {
      "fullUrl": "urn:uuid:f0e88eec-fc9c-48cb-9e3e-03b4be867f93",
      "resource": {
        "resourceType": "Observation",
        "id": "f0e88eec-fc9c-48cb-9e3e-03b4be867f93",
        "meta": {
          "profile": [
            "http://hl7.eu/fhir/laboratory/StructureDefinition/Observation-resultslab-eu-lab"
          ]
        },
        "performer": [
          {
            "display": "The Central European Lab"
          }
        ],
        "category": [
          {
            "coding": [
              {
                "system": "http://terminology.hl7.org/CodeSystem/observation-category",
                "code": "laboratory"
              }
            ]
          }
        ],
        "code": {
          "coding": [
            {
              "code": "5797-6",
              "system": "http://loinc.org",
              "display": "Ketones [Mass/volume] in Urine by Test strip"
            }
          ],
          "text": "Ketones [Mass/volume] in Urine by Test strip"
        },
        "valueQuantity": {
          "system": "http://unitsofmeasure.org",
          "value": 2.6,
          "unit": "mg/dL",
          "code": "mg/dL"
        },
        "referenceRange": [
          {
            "low": {
              "value": 0,
              "code": "mg/dL",
              "system": "http://unitsofmeasure.org"
            }
          },
          {
            "high": {
              "value": 4,
              "code": "mg/dL",
              "system": "http://unitsofmeasure.org"
            }
          }
        ],
        "text": {
          "status": "generated",
          "div": "<div xmlns=\"http://www.w3.org/1999/xhtml\"><table class=\"hl7__eu__lab__report\"><tr><th>Test</th><th>30-Apr-2024</th><th>Reference&#xA0;Range</th><th>Unit</th></tr><tr><td>Ketones [Mass/volume] in Urine by Test strip</td><td>2.6</td><td>0 - 4</td><td></td><td>mg/dL</td></tr></table></div>"
        },
        "status": "final",
        "subject": {
          "reference": "urn:uuid:84134239-00f7-4f54-acf1-ea460f1a952f",
          "display": "Meaghan Neary"
        },
        "effectiveDateTime": "2024-04-29T22:11:04Z",
        "specimen": {
          "reference": "urn:uuid:8cb3ef7b-f595-4a7d-8a93-c009cccd71b1"
        }
      }
    },
    {
      "fullUrl": "urn:uuid:aeee1de3-8a0b-4186-b492-dc33a96ed4f8",
      "resource": {
        "resourceType": "Observation",
        "id": "aeee1de3-8a0b-4186-b492-dc33a96ed4f8",
        "meta": {
          "profile": [
            "http://hl7.eu/fhir/laboratory/StructureDefinition/Observation-resultslab-eu-lab"
          ]
        },
        "performer": [
          {
            "display": "The Central European Lab"
          }
        ],
        "category": [
          {
            "coding": [
              {
                "system": "http://terminology.hl7.org/CodeSystem/observation-category",
                "code": "laboratory"
              }
            ]
          }
        ],
        "code": {
          "coding": [
            {
              "code": "2514-8",
              "system": "http://loinc.org",
              "display": "Ketones [Presence] in Urine by Test strip"
            }
          ],
          "text": "Ketones [Presence] in Urine by Test strip"
        },
        "text": {
          "status": "generated",
          "div": "<div xmlns=\"http://www.w3.org/1999/xhtml\"><table class=\"hl7__eu__lab__report\"><tr><th>Test</th><th>30-Apr-2024</th><th>Reference&#xA0;Range</th><th>Unit</th></tr><tr><td>Ketones [Presence] in Urine by Test strip</td></tr></table></div>"
        },
        "status": "final",
        "subject": {
          "reference": "urn:uuid:84134239-00f7-4f54-acf1-ea460f1a952f",
          "display": "Meaghan Neary"
        },
        "effectiveDateTime": "2024-04-29T22:11:04Z",
        "specimen": {
          "reference": "urn:uuid:8cb3ef7b-f595-4a7d-8a93-c009cccd71b1"
        }
      }
    },
    {
      "fullUrl": "urn:uuid:d6e241de-d573-4363-a725-5b5c53b35837",
      "resource": {
        "resourceType": "Observation",
        "id": "d6e241de-d573-4363-a725-5b5c53b35837",
        "meta": {
          "profile": [
            "http://hl7.eu/fhir/laboratory/StructureDefinition/Observation-resultslab-eu-lab"
          ]
        },
        "performer": [
          {
            "display": "The Central European Lab"
          }
        ],
        "category": [
          {
            "coding": [
              {
                "system": "http://terminology.hl7.org/CodeSystem/observation-category",
                "code": "laboratory"
              }
            ]
          }
        ],
        "code": {
          "coding": [
            {
              "code": "5811-5",
              "system": "http://loinc.org",
              "display": "Specific gravity of Urine by Test strip"
            }
          ],
          "text": "Specific gravity of Urine by Test strip"
        },
        "valueQuantity": {
          "system": "http://unitsofmeasure.org",
          "value": 1,
          "unit": "{nominal}",
          "code": "{nominal}"
        },
        "referenceRange": [
          {
            "low": {
              "value": 1.005,
              "code": "g/mL",
              "system": "http://unitsofmeasure.org"
            }
          },
          {
            "high": {
              "value": 1.03,
              "code": "g/mL",
              "system": "http://unitsofmeasure.org"
            }
          }
        ],
        "interpretation": [
          {
            "coding": [
              {
                "code": "L",
                "system": "http://terminology.hl7.org/CodeSystem/v3-ObservationInterpretation",
                "display": "Low"
              }
            ]
          }
        ],
        "text": {
          "status": "generated",
          "div": "<div xmlns=\"http://www.w3.org/1999/xhtml\"><table class=\"hl7__eu__lab__report\"><tr><th>Test</th><th>30-Apr-2024</th><th>Reference&#xA0;Range</th><th>Unit</th></tr><tr><td>Specific gravity of Urine by Test strip</td><td>1.0</td><td>1.005 - 1.03</td><td>L</td><td>{nominal}</td></tr></table></div>"
        },
        "status": "final",
        "subject": {
          "reference": "urn:uuid:84134239-00f7-4f54-acf1-ea460f1a952f",
          "display": "Meaghan Neary"
        },
        "effectiveDateTime": "2024-04-29T22:11:04Z",
        "specimen": {
          "reference": "urn:uuid:8cb3ef7b-f595-4a7d-8a93-c009cccd71b1"
        }
      }
    },
    {
      "fullUrl": "urn:uuid:13fc9b8d-ed07-4865-8574-acae8b84d114",
      "resource": {
        "resourceType": "Observation",
        "id": "13fc9b8d-ed07-4865-8574-acae8b84d114",
        "meta": {
          "profile": [
            "http://hl7.eu/fhir/laboratory/StructureDefinition/Observation-resultslab-eu-lab"
          ]
        },
        "performer": [
          {
            "display": "The Central European Lab"
          }
        ],
        "category": [
          {
            "coding": [
              {
                "system": "http://terminology.hl7.org/CodeSystem/observation-category",
                "code": "laboratory"
              }
            ]
          }
        ],
        "code": {
          "coding": [
            {
              "code": "5803-2",
              "system": "http://loinc.org",
              "display": "pH of Urine by Test strip"
            }
          ],
          "text": "pH of Urine by Test strip"
        },
        "valueQuantity": {
          "system": "http://unitsofmeasure.org",
          "value": 5.8,
          "unit": "pH",
          "code": "pH"
        },
        "referenceRange": [
          {
            "low": {
              "value": 4.6,
              "code": "pH",
              "system": "http://unitsofmeasure.org"
            }
          },
          {
            "high": {
              "value": 7,
              "code": "pH",
              "system": "http://unitsofmeasure.org"
            }
          }
        ],
        "text": {
          "status": "generated",
          "div": "<div xmlns=\"http://www.w3.org/1999/xhtml\"><table class=\"hl7__eu__lab__report\"><tr><th>Test</th><th>30-Apr-2024</th><th>Reference&#xA0;Range</th><th>Unit</th></tr><tr><td>pH of Urine by Test strip</td><td>5.8</td><td>4.6 - 7</td><td></td><td>pH</td></tr></table></div>"
        },
        "status": "final",
        "subject": {
          "reference": "urn:uuid:84134239-00f7-4f54-acf1-ea460f1a952f",
          "display": "Meaghan Neary"
        },
        "effectiveDateTime": "2024-04-29T22:11:04Z",
        "specimen": {
          "reference": "urn:uuid:8cb3ef7b-f595-4a7d-8a93-c009cccd71b1"
        }
      }
    },
    {
      "fullUrl": "urn:uuid:69545c76-eecb-4988-9f1d-b5370f0251fa",
      "resource": {
        "resourceType": "Observation",
        "id": "69545c76-eecb-4988-9f1d-b5370f0251fa",
        "meta": {
          "profile": [
            "http://hl7.eu/fhir/laboratory/StructureDefinition/Observation-resultslab-eu-lab"
          ]
        },
        "performer": [
          {
            "display": "The Central European Lab"
          }
        ],
        "category": [
          {
            "coding": [
              {
                "system": "http://terminology.hl7.org/CodeSystem/observation-category",
                "code": "laboratory"
              }
            ]
          }
        ],
        "code": {
          "coding": [
            {
              "code": "5804-0",
              "system": "http://loinc.org",
              "display": "Protein [Mass/volume] in Urine by Test strip"
            }
          ],
          "text": "Protein [Mass/volume] in Urine by Test strip"
        },
        "valueQuantity": {
          "system": "http://unitsofmeasure.org",
          "value": 304.3,
          "unit": "mg/dL",
          "code": "mg/dL"
        },
        "referenceRange": [
          {
            "low": {
              "value": 0,
              "code": "mg/dL",
              "system": "http://unitsofmeasure.org"
            }
          },
          {
            "high": {
              "value": 14,
              "code": "mg/dL",
              "system": "http://unitsofmeasure.org"
            }
          }
        ],
        "interpretation": [
          {
            "coding": [
              {
                "code": "H",
                "system": "http://terminology.hl7.org/CodeSystem/v3-ObservationInterpretation",
                "display": "High"
              }
            ]
          }
        ],
        "text": {
          "status": "generated",
          "div": "<div xmlns=\"http://www.w3.org/1999/xhtml\"><table class=\"hl7__eu__lab__report\"><tr><th>Test</th><th>30-Apr-2024</th><th>Reference&#xA0;Range</th><th>Unit</th></tr><tr><td>Protein [Mass/volume] in Urine by Test strip</td><td>304.3</td><td>0 - 14</td><td>H</td><td>mg/dL</td></tr></table></div>"
        },
        "status": "final",
        "subject": {
          "reference": "urn:uuid:84134239-00f7-4f54-acf1-ea460f1a952f",
          "display": "Meaghan Neary"
        },
        "effectiveDateTime": "2024-04-29T22:11:04Z",
        "specimen": {
          "reference": "urn:uuid:8cb3ef7b-f595-4a7d-8a93-c009cccd71b1"
        }
      }
    },
    {
      "fullUrl": "urn:uuid:1f28fecf-f3a2-4cad-8bf6-497790796113",
      "resource": {
        "resourceType": "Observation",
        "id": "1f28fecf-f3a2-4cad-8bf6-497790796113",
        "meta": {
          "profile": [
            "http://hl7.eu/fhir/laboratory/StructureDefinition/Observation-resultslab-eu-lab"
          ]
        },
        "performer": [
          {
            "display": "The Central European Lab"
          }
        ],
        "category": [
          {
            "coding": [
              {
                "system": "http://terminology.hl7.org/CodeSystem/observation-category",
                "code": "laboratory"
              }
            ]
          }
        ],
        "code": {
          "coding": [
            {
              "code": "20454-5",
              "system": "http://loinc.org",
              "display": "Protein [Presence] in Urine by Test strip"
            }
          ],
          "text": "Protein [Presence] in Urine by Test strip"
        },
        "text": {
          "status": "generated",
          "div": "<div xmlns=\"http://www.w3.org/1999/xhtml\"><table class=\"hl7__eu__lab__report\"><tr><th>Test</th><th>30-Apr-2024</th><th>Reference&#xA0;Range</th><th>Unit</th></tr><tr><td>Protein [Presence] in Urine by Test strip</td></tr></table></div>"
        },
        "status": "final",
        "subject": {
          "reference": "urn:uuid:84134239-00f7-4f54-acf1-ea460f1a952f",
          "display": "Meaghan Neary"
        },
        "effectiveDateTime": "2024-04-29T22:11:04Z",
        "specimen": {
          "reference": "urn:uuid:8cb3ef7b-f595-4a7d-8a93-c009cccd71b1"
        }
      }
    },
    {
      "fullUrl": "urn:uuid:46339745-18fd-41b2-adb8-dd38de4cc8f4",
      "resource": {
        "resourceType": "Observation",
        "id": "46339745-18fd-41b2-adb8-dd38de4cc8f4",
        "meta": {
          "profile": [
            "http://hl7.eu/fhir/laboratory/StructureDefinition/Observation-resultslab-eu-lab"
          ]
        },
        "performer": [
          {
            "display": "The Central European Lab"
          }
        ],
        "category": [
          {
            "coding": [
              {
                "system": "http://terminology.hl7.org/CodeSystem/observation-category",
                "code": "laboratory"
              }
            ]
          }
        ],
        "code": {
          "coding": [
            {
              "code": "5802-4",
              "system": "http://loinc.org",
              "display": "Nitrite [Presence] in Urine by Test strip"
            }
          ],
          "text": "Nitrite [Presence] in Urine by Test strip"
        },
        "text": {
          "status": "generated",
          "div": "<div xmlns=\"http://www.w3.org/1999/xhtml\"><table class=\"hl7__eu__lab__report\"><tr><th>Test</th><th>30-Apr-2024</th><th>Reference&#xA0;Range</th><th>Unit</th></tr><tr><td>Nitrite [Presence] in Urine by Test strip</td></tr></table></div>"
        },
        "status": "final",
        "subject": {
          "reference": "urn:uuid:84134239-00f7-4f54-acf1-ea460f1a952f",
          "display": "Meaghan Neary"
        },
        "effectiveDateTime": "2024-04-29T22:11:04Z",
        "specimen": {
          "reference": "urn:uuid:8cb3ef7b-f595-4a7d-8a93-c009cccd71b1"
        }
      }
    },
    {
      "fullUrl": "urn:uuid:80c67eb4-bb28-4861-ac83-21b55a79d051",
      "resource": {
        "resourceType": "Observation",
        "id": "80c67eb4-bb28-4861-ac83-21b55a79d051",
        "meta": {
          "profile": [
            "http://hl7.eu/fhir/laboratory/StructureDefinition/Observation-resultslab-eu-lab"
          ]
        },
        "performer": [
          {
            "display": "The Central European Lab"
          }
        ],
        "category": [
          {
            "coding": [
              {
                "system": "http://terminology.hl7.org/CodeSystem/observation-category",
                "code": "laboratory"
              }
            ]
          }
        ],
        "code": {
          "coding": [
            {
              "code": "5794-3",
              "system": "http://loinc.org",
              "display": "Hemoglobin [Presence] in Urine by Test strip"
            }
          ],
          "text": "Hemoglobin [Presence] in Urine by Test strip"
        },
        "text": {
          "status": "generated",
          "div": "<div xmlns=\"http://www.w3.org/1999/xhtml\"><table class=\"hl7__eu__lab__report\"><tr><th>Test</th><th>30-Apr-2024</th><th>Reference&#xA0;Range</th><th>Unit</th></tr><tr><td>Hemoglobin [Presence] in Urine by Test strip</td></tr></table></div>"
        },
        "status": "final",
        "subject": {
          "reference": "urn:uuid:84134239-00f7-4f54-acf1-ea460f1a952f",
          "display": "Meaghan Neary"
        },
        "effectiveDateTime": "2024-04-29T22:11:04Z",
        "specimen": {
          "reference": "urn:uuid:8cb3ef7b-f595-4a7d-8a93-c009cccd71b1"
        }
      }
    },
    {
      "fullUrl": "urn:uuid:782be472-060d-4085-87d2-908c4a681ff5",
      "resource": {
        "resourceType": "Observation",
        "id": "782be472-060d-4085-87d2-908c4a681ff5",
        "meta": {
          "profile": [
            "http://hl7.eu/fhir/laboratory/StructureDefinition/Observation-resultslab-eu-lab"
          ]
        },
        "performer": [
          {
            "display": "The Central European Lab"
          }
        ],
        "category": [
          {
            "coding": [
              {
                "system": "http://terminology.hl7.org/CodeSystem/observation-category",
                "code": "laboratory"
              }
            ]
          }
        ],
        "code": {
          "coding": [
            {
              "code": "5799-2",
              "system": "http://loinc.org",
              "display": "Leukocyte esterase [Presence] in Urine by Test strip"
            }
          ],
          "text": "Leukocyte esterase [Presence] in Urine by Test strip"
        },
        "text": {
          "status": "generated",
          "div": "<div xmlns=\"http://www.w3.org/1999/xhtml\"><table class=\"hl7__eu__lab__report\"><tr><th>Test</th><th>30-Apr-2024</th><th>Reference&#xA0;Range</th><th>Unit</th></tr><tr><td>Leukocyte esterase [Presence] in Urine by Test strip</td></tr></table></div>"
        },
        "status": "final",
        "subject": {
          "reference": "urn:uuid:84134239-00f7-4f54-acf1-ea460f1a952f",
          "display": "Meaghan Neary"
        },
        "effectiveDateTime": "2024-04-29T22:11:04Z",
        "specimen": {
          "reference": "urn:uuid:8cb3ef7b-f595-4a7d-8a93-c009cccd71b1"
        }
      }
    },
    {
      "fullUrl": "urn:uuid:351d9cd2-9673-4389-8d38-fdeeb7aa19a5",
      "resource": {
        "resourceType": "Observation",
        "id": "351d9cd2-9673-4389-8d38-fdeeb7aa19a5",
        "meta": {
          "profile": [
            "http://hl7.eu/fhir/laboratory/StructureDefinition/Observation-resultslab-eu-lab"
          ]
        },
        "performer": [
          {
            "display": "The Central European Lab"
          }
        ],
        "category": [
          {
            "coding": [
              {
                "system": "http://terminology.hl7.org/CodeSystem/observation-category",
                "code": "laboratory"
              }
            ]
          }
        ],
        "code": {
          "coding": [
            {
              "code": "4548-4",
              "system": "http://loinc.org",
              "display": "Hemoglobin A1c/Hemoglobin.total in Blood"
            }
          ],
          "text": "Hemoglobin A1c/Hemoglobin.total in Blood"
        },
        "valueQuantity": {
          "system": "http://unitsofmeasure.org",
          "value": 4,
          "unit": "%",
          "code": "%"
        },
        "referenceRange": [
          {
            "low": {
              "value": 4,
              "code": "%",
              "system": "http://unitsofmeasure.org"
            }
          },
          {
            "high": {
              "value": 6.4,
              "code": "%",
              "system": "http://unitsofmeasure.org"
            }
          }
        ],
        "text": {
          "status": "generated",
          "div": "<div xmlns=\"http://www.w3.org/1999/xhtml\"><table class=\"hl7__eu__lab__report\"><tr><th>Test</th><th>30-Apr-2024</th><th>Reference&#xA0;Range</th><th>Unit</th></tr><tr><td>Hemoglobin A1c/Hemoglobin.total in Blood</td><td>4.0</td><td>4 - 6.4</td><td></td><td>%</td></tr></table></div>"
        },
        "status": "final",
        "subject": {
          "reference": "urn:uuid:84134239-00f7-4f54-acf1-ea460f1a952f",
          "display": "Meaghan Neary"
        },
        "effectiveDateTime": "2024-04-29T22:11:04Z",
        "specimen": {
          "reference": "urn:uuid:eddd24f5-9a25-46fb-bce6-a4bb34626425"
        }
      }
    },
    {
      "fullUrl": "urn:uuid:724e9552-3e18-481a-b542-d97b9ca3fa9a",
      "resource": {
        "resourceType": "Observation",
        "id": "724e9552-3e18-481a-b542-d97b9ca3fa9a",
        "meta": {
          "profile": [
            "http://hl7.eu/fhir/laboratory/StructureDefinition/Observation-resultslab-eu-lab"
          ]
        },
        "performer": [
          {
            "display": "The Central European Lab"
          }
        ],
        "category": [
          {
            "coding": [
              {
                "system": "http://terminology.hl7.org/CodeSystem/observation-category",
                "code": "laboratory"
              }
            ]
          }
        ],
        "code": {
          "coding": [
            {
              "code": "2339-0",
              "system": "http://loinc.org",
              "display": "Glucose [Mass/volume] in Blood"
            }
          ],
          "text": "Glucose [Mass/volume] in Blood"
        },
        "valueQuantity": {
          "system": "http://unitsofmeasure.org",
          "value": 71.9,
          "unit": "mg/dL",
          "code": "mg/dL"
        },
        "referenceRange": [
          {
            "low": {
              "value": 70,
              "code": "mg/dL",
              "system": "http://unitsofmeasure.org"
            }
          },
          {
            "high": {
              "value": 100,
              "code": "mg/dL",
              "system": "http://unitsofmeasure.org"
            }
          }
        ],
        "text": {
          "status": "generated",
          "div": "<div xmlns=\"http://www.w3.org/1999/xhtml\"><table class=\"hl7__eu__lab__report\"><tr><th>Test</th><th>30-Apr-2024</th><th>Reference&#xA0;Range</th><th>Unit</th></tr><tr><td>Glucose [Mass/volume] in Blood</td><td>71.9</td><td>70 - 100</td><td></td><td>mg/dL</td></tr></table></div>"
        },
        "status": "final",
        "subject": {
          "reference": "urn:uuid:84134239-00f7-4f54-acf1-ea460f1a952f",
          "display": "Meaghan Neary"
        },
        "effectiveDateTime": "2024-04-29T22:11:04Z",
        "specimen": {
          "reference": "urn:uuid:eddd24f5-9a25-46fb-bce6-a4bb34626425"
        }
      }
    },
    {
      "fullUrl": "urn:uuid:5f71338f-ee18-48c4-bb92-e01f2e783adb",
      "resource": {
        "resourceType": "Observation",
        "id": "5f71338f-ee18-48c4-bb92-e01f2e783adb",
        "meta": {
          "profile": [
            "http://hl7.eu/fhir/laboratory/StructureDefinition/Observation-resultslab-eu-lab"
          ]
        },
        "performer": [
          {
            "display": "The Central European Lab"
          }
        ],
        "category": [
          {
            "coding": [
              {
                "system": "http://terminology.hl7.org/CodeSystem/observation-category",
                "code": "laboratory"
              }
            ]
          }
        ],
        "code": {
          "coding": [
            {
              "code": "6299-2",
              "system": "http://loinc.org",
              "display": "Urea nitrogen [Mass/volume] in Blood"
            }
          ],
          "text": "Urea nitrogen [Mass/volume] in Blood"
        },
        "valueQuantity": {
          "system": "http://unitsofmeasure.org",
          "value": 14,
          "unit": "mg/dL",
          "code": "mg/dL"
        },
        "referenceRange": [
          {
            "low": {
              "value": 7,
              "code": "mg/dL",
              "system": "http://unitsofmeasure.org"
            }
          },
          {
            "high": {
              "value": 43,
              "code": "mg/dL",
              "system": "http://unitsofmeasure.org"
            }
          }
        ],
        "text": {
          "status": "generated",
          "div": "<div xmlns=\"http://www.w3.org/1999/xhtml\"><table class=\"hl7__eu__lab__report\"><tr><th>Test</th><th>30-Apr-2024</th><th>Reference&#xA0;Range</th><th>Unit</th></tr><tr><td>Urea nitrogen [Mass/volume] in Blood</td><td>14.0</td><td>7 - 43</td><td></td><td>mg/dL</td></tr></table></div>"
        },
        "status": "final",
        "subject": {
          "reference": "urn:uuid:84134239-00f7-4f54-acf1-ea460f1a952f",
          "display": "Meaghan Neary"
        },
        "effectiveDateTime": "2024-04-29T22:11:04Z",
        "specimen": {
          "reference": "urn:uuid:eddd24f5-9a25-46fb-bce6-a4bb34626425"
        }
      }
    },
    {
      "fullUrl": "urn:uuid:7072c2f1-3ab9-433d-8d7a-a1b789dbed03",
      "resource": {
        "resourceType": "Observation",
        "id": "7072c2f1-3ab9-433d-8d7a-a1b789dbed03",
        "meta": {
          "profile": [
            "http://hl7.eu/fhir/laboratory/StructureDefinition/Observation-resultslab-eu-lab"
          ]
        },
        "performer": [
          {
            "display": "The Central European Lab"
          }
        ],
        "category": [
          {
            "coding": [
              {
                "system": "http://terminology.hl7.org/CodeSystem/observation-category",
                "code": "laboratory"
              }
            ]
          }
        ],
        "code": {
          "coding": [
            {
              "code": "38483-4",
              "system": "http://loinc.org",
              "display": "Creatinine [Mass/volume] in Blood"
            }
          ],
          "text": "Creatinine [Mass/volume] in Blood"
        },
        "valueQuantity": {
          "system": "http://unitsofmeasure.org",
          "value": 2.9,
          "unit": "mg/dL",
          "code": "mg/dL"
        },
        "referenceRange": [
          {
            "low": {
              "value": 0.6,
              "code": "mg/dL",
              "system": "http://unitsofmeasure.org"
            }
          },
          {
            "high": {
              "value": 1.1,
              "code": "mg/dL",
              "system": "http://unitsofmeasure.org"
            }
          }
        ],
        "interpretation": [
          {
            "coding": [
              {
                "code": "H",
                "system": "http://terminology.hl7.org/CodeSystem/v3-ObservationInterpretation",
                "display": "High"
              }
            ]
          }
        ],
        "text": {
          "status": "generated",
          "div": "<div xmlns=\"http://www.w3.org/1999/xhtml\"><table class=\"hl7__eu__lab__report\"><tr><th>Test</th><th>30-Apr-2024</th><th>Reference&#xA0;Range</th><th>Unit</th></tr><tr><td>Creatinine [Mass/volume] in Blood</td><td>2.9</td><td>0.6 - 1.1</td><td>H</td><td>mg/dL</td></tr></table></div>"
        },
        "status": "final",
        "subject": {
          "reference": "urn:uuid:84134239-00f7-4f54-acf1-ea460f1a952f",
          "display": "Meaghan Neary"
        },
        "effectiveDateTime": "2024-04-29T22:11:04Z",
        "specimen": {
          "reference": "urn:uuid:eddd24f5-9a25-46fb-bce6-a4bb34626425"
        }
      }
    },
    {
      "fullUrl": "urn:uuid:d1ae6afd-665c-431c-991e-688f1acbd7a3",
      "resource": {
        "resourceType": "Observation",
        "id": "d1ae6afd-665c-431c-991e-688f1acbd7a3",
        "meta": {
          "profile": [
            "http://hl7.eu/fhir/laboratory/StructureDefinition/Observation-resultslab-eu-lab"
          ]
        },
        "performer": [
          {
            "display": "The Central European Lab"
          }
        ],
        "category": [
          {
            "coding": [
              {
                "system": "http://terminology.hl7.org/CodeSystem/observation-category",
                "code": "laboratory"
              }
            ]
          }
        ],
        "code": {
          "coding": [
            {
              "code": "49765-1",
              "system": "http://loinc.org",
              "display": "Calcium [Mass/volume] in Blood"
            }
          ],
          "text": "Calcium [Mass/volume] in Blood"
        },
        "valueQuantity": {
          "system": "http://unitsofmeasure.org",
          "value": 9.4,
          "unit": "mg/dL",
          "code": "mg/dL"
        },
        "referenceRange": [
          {
            "low": {
              "value": 8.5,
              "code": "mg/dL",
              "system": "http://unitsofmeasure.org"
            }
          },
          {
            "high": {
              "value": 10.5,
              "code": "mg/dL",
              "system": "http://unitsofmeasure.org"
            }
          }
        ],
        "text": {
          "status": "generated",
          "div": "<div xmlns=\"http://www.w3.org/1999/xhtml\"><table class=\"hl7__eu__lab__report\"><tr><th>Test</th><th>30-Apr-2024</th><th>Reference&#xA0;Range</th><th>Unit</th></tr><tr><td>Calcium [Mass/volume] in Blood</td><td>9.4</td><td>8.5 - 10.5</td><td></td><td>mg/dL</td></tr></table></div>"
        },
        "status": "final",
        "subject": {
          "reference": "urn:uuid:84134239-00f7-4f54-acf1-ea460f1a952f",
          "display": "Meaghan Neary"
        },
        "effectiveDateTime": "2024-04-29T22:11:04Z",
        "specimen": {
          "reference": "urn:uuid:eddd24f5-9a25-46fb-bce6-a4bb34626425"
        }
      }
    },
    {
      "fullUrl": "urn:uuid:7622105d-bc22-42e2-b9b8-b789cfbc6090",
      "resource": {
        "resourceType": "Observation",
        "id": "7622105d-bc22-42e2-b9b8-b789cfbc6090",
        "meta": {
          "profile": [
            "http://hl7.eu/fhir/laboratory/StructureDefinition/Observation-resultslab-eu-lab"
          ]
        },
        "performer": [
          {
            "display": "The Central European Lab"
          }
        ],
        "category": [
          {
            "coding": [
              {
                "system": "http://terminology.hl7.org/CodeSystem/observation-category",
                "code": "laboratory"
              }
            ]
          }
        ],
        "code": {
          "coding": [
            {
              "code": "2947-0",
              "system": "http://loinc.org",
              "display": "Sodium [Moles/volume] in Blood"
            }
          ],
          "text": "Sodium [Moles/volume] in Blood"
        },
        "valueQuantity": {
          "system": "http://unitsofmeasure.org",
          "value": 136.3,
          "unit": "mmol/L",
          "code": "mmol/L"
        },
        "referenceRange": [
          {
            "low": {
              "value": 135,
              "code": "mmol/L",
              "system": "http://unitsofmeasure.org"
            }
          },
          {
            "high": {
              "value": 145,
              "code": "mmol/L",
              "system": "http://unitsofmeasure.org"
            }
          }
        ],
        "text": {
          "status": "generated",
          "div": "<div xmlns=\"http://www.w3.org/1999/xhtml\"><table class=\"hl7__eu__lab__report\"><tr><th>Test</th><th>30-Apr-2024</th><th>Reference&#xA0;Range</th><th>Unit</th></tr><tr><td>Sodium [Moles/volume] in Blood</td><td>136.3</td><td>135 - 145</td><td></td><td>mmol/L</td></tr></table></div>"
        },
        "status": "final",
        "subject": {
          "reference": "urn:uuid:84134239-00f7-4f54-acf1-ea460f1a952f",
          "display": "Meaghan Neary"
        },
        "effectiveDateTime": "2024-04-29T22:11:04Z",
        "specimen": {
          "reference": "urn:uuid:eddd24f5-9a25-46fb-bce6-a4bb34626425"
        }
      }
    },
    {
      "fullUrl": "urn:uuid:80e35f21-f16b-4212-a50e-2ba42d8f1d3f",
      "resource": {
        "resourceType": "Observation",
        "id": "80e35f21-f16b-4212-a50e-2ba42d8f1d3f",
        "meta": {
          "profile": [
            "http://hl7.eu/fhir/laboratory/StructureDefinition/Observation-resultslab-eu-lab"
          ]
        },
        "performer": [
          {
            "display": "The Central European Lab"
          }
        ],
        "category": [
          {
            "coding": [
              {
                "system": "http://terminology.hl7.org/CodeSystem/observation-category",
                "code": "laboratory"
              }
            ]
          }
        ],
        "code": {
          "coding": [
            {
              "code": "6298-4",
              "system": "http://loinc.org",
              "display": "Potassium [Moles/volume] in Blood"
            }
          ],
          "text": "Potassium [Moles/volume] in Blood"
        },
        "valueQuantity": {
          "system": "http://unitsofmeasure.org",
          "value": 4.6,
          "unit": "mmol/L",
          "code": "mmol/L"
        },
        "referenceRange": [
          {
            "low": {
              "value": 3.5,
              "code": "mmol/L",
              "system": "http://unitsofmeasure.org"
            }
          },
          {
            "high": {
              "value": 5.1,
              "code": "mmol/L",
              "system": "http://unitsofmeasure.org"
            }
          }
        ],
        "text": {
          "status": "generated",
          "div": "<div xmlns=\"http://www.w3.org/1999/xhtml\"><table class=\"hl7__eu__lab__report\"><tr><th>Test</th><th>30-Apr-2024</th><th>Reference&#xA0;Range</th><th>Unit</th></tr><tr><td>Potassium [Moles/volume] in Blood</td><td>4.6</td><td>3.5 - 5.1</td><td></td><td>mmol/L</td></tr></table></div>"
        },
        "status": "final",
        "subject": {
          "reference": "urn:uuid:84134239-00f7-4f54-acf1-ea460f1a952f",
          "display": "Meaghan Neary"
        },
        "effectiveDateTime": "2024-04-29T22:11:04Z",
        "specimen": {
          "reference": "urn:uuid:eddd24f5-9a25-46fb-bce6-a4bb34626425"
        }
      }
    },
    {
      "fullUrl": "urn:uuid:dbcef571-887f-4818-b801-af723cdb79d9",
      "resource": {
        "resourceType": "Observation",
        "id": "dbcef571-887f-4818-b801-af723cdb79d9",
        "meta": {
          "profile": [
            "http://hl7.eu/fhir/laboratory/StructureDefinition/Observation-resultslab-eu-lab"
          ]
        },
        "performer": [
          {
            "display": "The Central European Lab"
          }
        ],
        "category": [
          {
            "coding": [
              {
                "system": "http://terminology.hl7.org/CodeSystem/observation-category",
                "code": "laboratory"
              }
            ]
          }
        ],
        "code": {
          "coding": [
            {
              "code": "2069-3",
              "system": "http://loinc.org",
              "display": "Chloride [Moles/volume] in Blood"
            }
          ],
          "text": "Chloride [Moles/volume] in Blood"
        },
        "valueQuantity": {
          "system": "http://unitsofmeasure.org",
          "value": 110.5,
          "unit": "mmol/L",
          "code": "mmol/L"
        },
        "referenceRange": [
          {
            "low": {
              "value": 98,
              "code": "mmol/L",
              "system": "http://unitsofmeasure.org"
            }
          },
          {
            "high": {
              "value": 108,
              "code": "mmol/L",
              "system": "http://unitsofmeasure.org"
            }
          }
        ],
        "interpretation": [
          {
            "coding": [
              {
                "code": "H",
                "system": "http://terminology.hl7.org/CodeSystem/v3-ObservationInterpretation",
                "display": "High"
              }
            ]
          }
        ],
        "text": {
          "status": "generated",
          "div": "<div xmlns=\"http://www.w3.org/1999/xhtml\"><table class=\"hl7__eu__lab__report\"><tr><th>Test</th><th>30-Apr-2024</th><th>Reference&#xA0;Range</th><th>Unit</th></tr><tr><td>Chloride [Moles/volume] in Blood</td><td>110.5</td><td>98 - 108</td><td>H</td><td>mmol/L</td></tr></table></div>"
        },
        "status": "final",
        "subject": {
          "reference": "urn:uuid:84134239-00f7-4f54-acf1-ea460f1a952f",
          "display": "Meaghan Neary"
        },
        "effectiveDateTime": "2024-04-29T22:11:04Z",
        "specimen": {
          "reference": "urn:uuid:eddd24f5-9a25-46fb-bce6-a4bb34626425"
        }
      }
    },
    {
      "fullUrl": "urn:uuid:fe1dbc36-7854-45d2-b5b3-e179645df7ce",
      "resource": {
        "resourceType": "Observation",
        "id": "fe1dbc36-7854-45d2-b5b3-e179645df7ce",
        "meta": {
          "profile": [
            "http://hl7.eu/fhir/laboratory/StructureDefinition/Observation-resultslab-eu-lab"
          ]
        },
        "performer": [
          {
            "display": "The Central European Lab"
          }
        ],
        "category": [
          {
            "coding": [
              {
                "system": "http://terminology.hl7.org/CodeSystem/observation-category",
                "code": "laboratory"
              }
            ]
          }
        ],
        "code": {
          "coding": [
            {
              "code": "20565-8",
              "system": "http://loinc.org",
              "display": "Carbon dioxide, total [Moles/volume] in Blood"
            }
          ],
          "text": "Carbon dioxide, total [Moles/volume] in Blood"
        },
        "valueQuantity": {
          "system": "http://unitsofmeasure.org",
          "value": 21.3,
          "unit": "mmol/L",
          "code": "mmol/L"
        },
        "referenceRange": [
          {
            "low": {
              "value": 22,
              "code": "mmol/L",
              "system": "http://unitsofmeasure.org"
            }
          },
          {
            "high": {
              "value": 29,
              "code": "mmol/L",
              "system": "http://unitsofmeasure.org"
            }
          }
        ],
        "interpretation": [
          {
            "coding": [
              {
                "code": "L",
                "system": "http://terminology.hl7.org/CodeSystem/v3-ObservationInterpretation",
                "display": "Low"
              }
            ]
          }
        ],
        "text": {
          "status": "generated",
          "div": "<div xmlns=\"http://www.w3.org/1999/xhtml\"><table class=\"hl7__eu__lab__report\"><tr><th>Test</th><th>30-Apr-2024</th><th>Reference&#xA0;Range</th><th>Unit</th></tr><tr><td>Carbon dioxide, total [Moles/volume] in Blood</td><td>21.3</td><td>22 - 29</td><td>L</td><td>mmol/L</td></tr></table></div>"
        },
        "status": "final",
        "subject": {
          "reference": "urn:uuid:84134239-00f7-4f54-acf1-ea460f1a952f",
          "display": "Meaghan Neary"
        },
        "effectiveDateTime": "2024-04-29T22:11:04Z",
        "specimen": {
          "reference": "urn:uuid:eddd24f5-9a25-46fb-bce6-a4bb34626425"
        }
      }
    },
    {
      "fullUrl": "urn:uuid:de088fa5-160c-4fb8-97ff-1cf662562a5f",
      "resource": {
        "resourceType": "Device",
        "id": "de088fa5-160c-4fb8-97ff-1cf662562a5f",
        "deviceName": [
          {
            "name": "SYNDERAI Synthetic Generator",
            "type": "manufacturer-name"
          }
        ],
        "version": [
          {
            "value": "5.0"
          }
        ],
        "text": {
          "status": "generated",
          "div": "<div xmlns=\"http://www.w3.org/1999/xhtml\">SYNDERAI Synthetic Generator v5.0</div>"
        },
        "status": "active\"",
        "distinctIdentifier": "synderai-generator-50",
        "manufacturer": "SYNDERAI Project"
      }
    },
    {
      "fullUrl": "urn:uuid:cf9763a1-a425-4913-bfe4-db18d0ee6efe",
      "resource": {
        "resourceType": "Provenance",
        "id": "cf9763a1-a425-4913-bfe4-db18d0ee6efe",
        "target": [
          {
            "reference": "Patient/84134239-00f7-4f54-acf1-ea460f1a952f"
          },
          {
            "reference": "Bundle/f187ae79-79e0-4757-a5ec-02df9cf91c27"
          },
          {
            "reference": "Composition/29254de1-29f4-44ad-af78-5b52cf2162ed"
          },
          {
            "reference": "PractitionerRole/a827de3c-8094-4fb1-82c0-e225e6671ab4"
          },
          {
            "reference": "Practitioner/4c6e4965-7e8a-4b5c-999a-311c0d53089b"
          },
          {
            "reference": "PractitionerRole/949ea270-a06c-4900-9e34-8d52be27a486"
          },
          {
            "reference": "Organization/ee0ec851-5352-4752-ace3-6956bad195e0"
          }
        ],
        "activity": {
          "text": "Synthetic Example Data Generation"
        },
        "policy": [
          "https://synderai.net/synderai-synthetic-data-policy"
        ],
        "agent": [
          {
            "type": {
              "text": "author"
            },
            "who": {
              "reference": "Device/de088fa5-160c-4fb8-97ff-1cf662562a5f"
            }
          }
        ],
        "reason": [
          {
            "text": "Interoperability Testing and Training (non-clinical use)"
          }
        ],
        "text": {
          "status": "generated",
          "div": "<div xmlns=\"http://www.w3.org/1999/xhtml\">Provenance for SYNDERAI Synthetic Example Data Resource</div>"
        },
        "recorded": "2024-04-30T00:11:04Z"
      }
    },
    {
      "fullUrl": "urn:uuid:a827de3c-8094-4fb1-82c0-e225e6671ab4",
      "resource": {
        "resourceType": "PractitionerRole",
        "id": "a827de3c-8094-4fb1-82c0-e225e6671ab4",
        "meta": {
          "profile": [
            "http://hl7.eu/fhir/base/StructureDefinition/practitionerRole-eu"
          ]
        },
        "text": {
          "status": "generated",
          "div": "<div xmlns=\"http://www.w3.org/1999/xhtml\">Laboratory Role Id: a827de3c-8094-4fb1-82c0-e225e6671ab4</div>"
        },
        "practitioner": {
          "reference": "urn:uuid:4c6e4965-7e8a-4b5c-999a-311c0d53089b"
        }
      }
    },
    {
      "fullUrl": "urn:uuid:4c6e4965-7e8a-4b5c-999a-311c0d53089b",
      "resource": {
        "resourceType": "Practitioner",
        "id": "4c6e4965-7e8a-4b5c-999a-311c0d53089b",
        "meta": {
          "profile": [
            "http://hl7.eu/fhir/base/StructureDefinition/practitioner-eu"
          ]
        },
        "identifier": [
          {
            "assigner": {
              "display": "HL7 Europe"
            },
            "system": "urn:oid:2.16.840.1.113883.2.51.999",
            "value": "9c971314-2616-4e9c-8dd0-a5868532b714"
          }
        ],
        "name": [
          {
            "prefix": [
              "dr"
            ],
            "given": [
              "Ex"
            ],
            "family": "Ample"
          }
        ],
        "address": [
          {
            "line": [
              "Laboratoire Central Européenne",
              "Boulevard du Jardin Botanique 32"
            ],
            "postalCode": "1000",
            "city": "Brussels",
            "country": "Belgium"
          }
        ],
        "text": {
          "status": "generated",
          "div": "<div xmlns=\"http://www.w3.org/1999/xhtml\">Laboratory: Laboratoire Central Européenne, 1000 Brussels, Belgium</div>"
        }
      }
    }
  ],
  "type": "document",
  "timestamp": "2024-04-30T00:11:04Z"
}
