{
  "resourceType": "Bundle",
  "id": "359a6448-5e17-4b6d-84f1-e679487d32e5",
  "meta": {
    "profile": [
      "http://hl7.eu/fhir/laboratory/StructureDefinition/Bundle-eu-lab"
    ]
  },
  "identifier": {
    "assigner": {
      "display": "HL7 Europe"
    },
    "system": "urn:oid:2.16.840.1.113883.2.51.999",
    "value": "d24b97ef-8742-4c2d-afa6-59d3abe69986"
  },
  "entry": [
    {
      "fullUrl": "urn:uuid:4fd17e0a-f315-4da0-970b-4bd791131cc6",
      "resource": {
        "resourceType": "Composition",
        "id": "4fd17e0a-f315-4da0-970b-4bd791131cc6",
        "meta": {
          "profile": [
            "http://hl7.eu/fhir/laboratory/StructureDefinition/Composition-eu-lab"
          ]
        },
        "identifier": {
          "assigner": {
            "display": "HL7 Europe"
          },
          "system": "urn:oid:2.16.840.1.113883.2.51.999",
          "value": "63f7d957-1177-4e66-be5a-72b839fb2089"
        },
        "author": [
          {
            "reference": "urn:uuid:1f5f7847-8a16-4027-bc8d-7cc85ae72213"
          }
        ],
        "category": [
          {
            "coding": [
              {
                "code": "26436-6",
                "system": "http://loinc.org",
                "display": "Laboratory studies (set)"
              }
            ]
          }
        ],
        "type": {
          "coding": [
            {
              "code": "11502-2",
              "system": "http://loinc.org",
              "display": "Laboratory report"
            }
          ],
          "text": "Laboratory Report"
        },
        "section": [
          {
            "code": {
              "coding": [
                {
                  "code": "26436-6",
                  "system": "http://loinc.org",
                  "display": "Laboratory studies (set)"
                }
              ],
              "text": "Laboratory studies"
            },
            "section": [
              {
                "code": {
                  "coding": [
                    {
                      "code": "$18723-7",
                      "system": "http://loinc.org",
                      "display": "Hematology studies (set)"
                    }
                  ],
                  "text": "Hematology"
                },
                "entry": [
                  {
                    "reference": "urn:uuid:3bbbc991-cd8f-4d14-9327-134c0778f871"
                  },
                  {
                    "reference": "urn:uuid:4d3d9c14-cffa-4a3a-92a8-f485dcd517ec"
                  },
                  {
                    "reference": "urn:uuid:1169e123-681e-4be6-ba13-f494e0359f67"
                  },
                  {
                    "reference": "urn:uuid:fbe30351-fe1b-4cab-b274-e1cd3482a551"
                  },
                  {
                    "reference": "urn:uuid:fa7a7919-1da2-45ba-8a35-b17fd01ada4f"
                  },
                  {
                    "reference": "urn:uuid:faaaa4f2-b93e-4b0d-827e-ed9e41da157b"
                  },
                  {
                    "reference": "urn:uuid:99ce5ad5-18d0-4724-ba61-f3d22c4bcf9a"
                  },
                  {
                    "reference": "urn:uuid:a900c6e1-5fb2-49f5-97c0-3a4942b53b6b"
                  },
                  {
                    "reference": "urn:uuid:726519c0-42bc-4caa-a76b-25ced4d08bab"
                  },
                  {
                    "reference": "urn:uuid:16a3ce5b-5fcc-4b7e-87b9-1f9a0293def0"
                  },
                  {
                    "reference": "urn:uuid:3e56f40b-4ad6-45c9-b8d6-7b8702fef4ec"
                  }
                ],
                "text": {
                  "status": "generated",
                  "div": "<div xmlns=\"http://www.w3.org/1999/xhtml\"><h3>Hematology</h3><table class=\"hl7__eu__lab__report\"><thead><tr><th>Test</th><th>11-FEB-2019</th><th>Reference&#xA0;Range</th><th>Unit</th></tr></thead><tbody><tr><td>Leukocytes [#/volume] in Blood by Automated count</td><td>8.1</td><td>3.4 - 10.6</td><td>10*3/uL</td></tr><tr><td>Erythrocytes [#/volume] in Blood by Automated count</td><td><strong>4.1 L</strong></td><td>4.2 - 5.2</td><td>10*6/uL</td></tr><tr><td>Hemoglobin [Mass/volume] in Blood</td><td>14.1</td><td>12 - 16</td><td>g/dL</td></tr><tr><td>Hematocrit [Volume Fraction] of Blood by Automated count</td><td>45.0</td><td>37 - 46</td><td>%</td></tr><tr><td>MCV [Entitic volume] by Automated count</td><td>91.6</td><td>80 - 105</td><td>fL</td></tr><tr><td>MCH [Entitic mass] by Automated count</td><td>29.0</td><td>27 - 34</td><td>pg</td></tr><tr><td>MCHC [Mass/volume] by Automated count</td><td>35.0</td><td>31 - 35</td><td>g/dL</td></tr><tr><td>Erythrocyte distribution width [Entitic volume] by Automated count</td><td>40.1</td><td>36 - 46</td><td>fL</td></tr><tr><td>Platelets [#/volume] in Blood by Automated count</td><td>369.4</td><td>150 - 415</td><td>10*3/uL</td></tr><tr><td>Platelet distribution width [Entitic volume] in Blood by Automated count</td><td><strong>441.4 H</strong></td><td>11.6 - 17.4</td><td>fL</td></tr><tr><td>Platelet mean volume [Entitic volume] in Blood by Automated count</td><td>10.3</td><td>7.2 - 13.8</td><td>fL</td></tr></tbody></table></div>"
                },
                "title": "Hematology"
              },
              {
                "code": {
                  "coding": [
                    {
                      "code": "$18719-5",
                      "system": "http://loinc.org",
                      "display": "Chemistry studies (set)"
                    }
                  ],
                  "text": "Chemistry"
                },
                "entry": [
                  {
                    "reference": "urn:uuid:04fc0475-a02d-4ada-9360-d67a1ae6f701"
                  },
                  {
                    "reference": "urn:uuid:cd06c843-fdc8-4db3-aafd-8dbcaaf9f01e"
                  },
                  {
                    "reference": "urn:uuid:78072c96-6d65-41e8-9847-f02e255245e3"
                  },
                  {
                    "reference": "urn:uuid:0a1f98f3-f08f-4074-871d-d6ac0e9494c3"
                  },
                  {
                    "reference": "urn:uuid:a0082937-2c58-43e4-9274-6a8913195a18"
                  },
                  {
                    "reference": "urn:uuid:c4040448-4040-4f1e-86b5-2f9ec7a730a5"
                  },
                  {
                    "reference": "urn:uuid:6696aad4-cfb2-4587-a646-4fab51297a00"
                  },
                  {
                    "reference": "urn:uuid:ec77f15b-485c-4103-ac72-725103790f87"
                  },
                  {
                    "reference": "urn:uuid:791fa523-097c-4fd0-8b8c-099d948acb0b"
                  }
                ],
                "text": {
                  "status": "generated",
                  "div": "<div xmlns=\"http://www.w3.org/1999/xhtml\"><h3>Chemistry</h3><table class=\"hl7__eu__lab__report\"><thead><tr><th>Test</th><th>11-FEB-2019</th><th>Reference&#xA0;Range</th><th>Unit</th></tr></thead><tbody><tr><td>Hemoglobin A1c/Hemoglobin.total in Blood</td><td><strong>6.2 H</strong></td><td>4.8 - 5.7</td><td>%</td></tr><tr><td>Glucose [Mass/volume] in Blood</td><td>92.5</td><td>70 - 99</td><td>mg/dL</td></tr><tr><td>Urea nitrogen [Mass/volume] in Blood</td><td>11.8</td><td>7 - 20</td><td>mg/dL</td></tr><tr><td>Creatinine [Mass/volume] in Blood</td><td><strong>1.7 H</strong></td><td>0.6 - 1.1</td><td>mg/dL</td></tr><tr><td>Calcium [Mass/volume] in Blood</td><td>8.9</td><td>8.5 - 10.5</td><td>mg/dL</td></tr><tr><td>Sodium [Moles/volume] in Blood</td><td>137.0</td><td>135 - 145</td><td>mmol/L</td></tr><tr><td>Potassium [Moles/volume] in Blood</td><td>3.7</td><td>3.5 - 5.3</td><td>mmol/L</td></tr><tr><td>Chloride [Moles/volume] in Blood</td><td>102.8</td><td>98 - 114</td><td>mmol/L</td></tr><tr><td>Carbon dioxide, total [Moles/volume] in Blood</td><td><strong>21.2 L</strong></td><td>22 - 29</td><td>mmol/L</td></tr></tbody></table></div>"
                },
                "title": "Chemistry"
              }
            ],
            "title": "Laboratory Report"
          },
          {
            "text": {
              "status": "generated",
              "div": "<div xmlns=\"http://www.w3.org/1999/xhtml\"><h3>Annotation</h3><table class=\"hl7__eu__lab__report\"><tr><th>Conclusion and Recommendations based on this report and previous findings known to us</th></tr><tr><td>The patient shows elevated HbA1c, indicating impaired glucose metabolism (prediabetes/diabetes). Creatinine is elevated, suggesting possible renal impairment. Mildly low erythrocyte count with normal hemoglobin/hematocrit may reflect early or compensated anemia. Total CO₂ is slightly low, which could indicate mild metabolic acidosis. Platelet distribution width is markedly increased, possibly reflecting platelet activation or variation. Recommend clinical correlation and further evaluation of renal function and glycemic control.</td></tr></table></div>"
            },
            "code": {
              "coding": [
                {
                  "system": "http://loinc.org",
                  "code": "48767-8",
                  "display": "Annotation comment"
                }
              ]
            },
            "title": "Annotation comment"
          }
        ],
        "status": "final",
        "subject": {
          "reference": "urn:uuid:a85b6bcd-8c81-4314-a317-67fd5a68d942",
          "display": "Pauline Grenier"
        },
        "date": "2019-02-11T12:54:46Z",
        "title": "Laboratory Report",
        "confidentiality": "N"
      }
    },
    {
      "fullUrl": "urn:uuid:6cd4dde0-46d3-4829-9f4f-2d2d94104cec",
      "resource": {
        "resourceType": "DiagnosticReport",
        "id": "6cd4dde0-46d3-4829-9f4f-2d2d94104cec",
        "meta": {
          "profile": [
            "http://hl7.eu/fhir/laboratory/StructureDefinition/DiagnosticReport-eu-lab"
          ]
        },
        "identifier": [
          {
            "assigner": {
              "display": "HL7 Europe"
            },
            "system": "urn:oid:2.16.840.1.113883.2.51.999",
            "value": "f65a39a7-0bd1-43f1-9a17-69aeb8a350f5"
          }
        ],
        "extension": [
          {
            "url": "http://hl7.org/fhir/5.0/StructureDefinition/extension-DiagnosticReport.composition",
            "valueReference": {
              "reference": "urn:uuid:63f7d957-1177-4e66-be5a-72b839fb2089"
            }
          }
        ],
        "category": [
          {
            "coding": [
              {
                "code": "26436-6",
                "system": "http://loinc.org",
                "display": "Laboratory studies (set)"
              }
            ]
          }
        ],
        "specimen": [
          {
            "reference": "urn:uuid:b5f89f6b-7192-436a-a578-b473c2c593ed"
          },
          {
            "reference": "urn:uuid:b5f89f6b-7192-436a-a578-b473c2c593ed"
          }
        ],
        "result": [
          {
            "reference": "urn:uuid:04fc0475-a02d-4ada-9360-d67a1ae6f701"
          },
          {
            "reference": "urn:uuid:cd06c843-fdc8-4db3-aafd-8dbcaaf9f01e"
          },
          {
            "reference": "urn:uuid:78072c96-6d65-41e8-9847-f02e255245e3"
          },
          {
            "reference": "urn:uuid:0a1f98f3-f08f-4074-871d-d6ac0e9494c3"
          },
          {
            "reference": "urn:uuid:a0082937-2c58-43e4-9274-6a8913195a18"
          },
          {
            "reference": "urn:uuid:c4040448-4040-4f1e-86b5-2f9ec7a730a5"
          },
          {
            "reference": "urn:uuid:6696aad4-cfb2-4587-a646-4fab51297a00"
          },
          {
            "reference": "urn:uuid:ec77f15b-485c-4103-ac72-725103790f87"
          },
          {
            "reference": "urn:uuid:791fa523-097c-4fd0-8b8c-099d948acb0b"
          },
          {
            "reference": "urn:uuid:3bbbc991-cd8f-4d14-9327-134c0778f871"
          },
          {
            "reference": "urn:uuid:4d3d9c14-cffa-4a3a-92a8-f485dcd517ec"
          },
          {
            "reference": "urn:uuid:1169e123-681e-4be6-ba13-f494e0359f67"
          },
          {
            "reference": "urn:uuid:fbe30351-fe1b-4cab-b274-e1cd3482a551"
          },
          {
            "reference": "urn:uuid:fa7a7919-1da2-45ba-8a35-b17fd01ada4f"
          },
          {
            "reference": "urn:uuid:faaaa4f2-b93e-4b0d-827e-ed9e41da157b"
          },
          {
            "reference": "urn:uuid:99ce5ad5-18d0-4724-ba61-f3d22c4bcf9a"
          },
          {
            "reference": "urn:uuid:a900c6e1-5fb2-49f5-97c0-3a4942b53b6b"
          },
          {
            "reference": "urn:uuid:726519c0-42bc-4caa-a76b-25ced4d08bab"
          },
          {
            "reference": "urn:uuid:16a3ce5b-5fcc-4b7e-87b9-1f9a0293def0"
          },
          {
            "reference": "urn:uuid:3e56f40b-4ad6-45c9-b8d6-7b8702fef4ec"
          }
        ],
        "status": "registered",
        "code": {
          "coding": [
            {
              "code": "11502-2",
              "system": "http://loinc.org",
              "display": "Laboratory report"
            }
          ]
        },
        "subject": {
          "reference": "urn:uuid:a85b6bcd-8c81-4314-a317-67fd5a68d942",
          "display": "Pauline Grenier"
        }
      }
    },
    {
      "fullUrl": "urn:uuid:a85b6bcd-8c81-4314-a317-67fd5a68d942",
      "resource": {
        "resourceType": "Patient",
        "id": "a85b6bcd-8c81-4314-a317-67fd5a68d942",
        "meta": {
          "security": [
            {
              "system": "http://terminology.hl7.org/CodeSystem/v3-ActReason",
              "code": "HTEST"
            },
            {
              "system": "http://terminology.hl7.org/CodeSystem/v3-ActReason",
              "code": "TRAIN"
            }
          ],
          "tag": [
            {
              "system": "https://synderai.net/fhir/CodeSystem/tags",
              "code": "synthetic",
              "display": "SYNDERAI Synthetic data"
            }
          ],
          "profile": [
            "http://hl7.eu/fhir/base/StructureDefinition/patient-eu-core"
          ]
        },
        "identifier": [
          {
            "type": {
              "coding": [
                {
                  "code": "PT",
                  "system": "http://terminology.hl7.org/CodeSystem/v2-0203"
                }
              ]
            },
            "system": "http://ec.europa.eu/identifier/eci",
            "value": "6776-872657-1"
          },
          {
            "type": {
              "coding": [
                {
                  "code": "MR",
                  "system": "http://terminology.hl7.org/CodeSystem/v2-0203"
                }
              ]
            },
            "system": "http://local.setting.eu/identifier",
            "value": "a90ff566-3092-3af0-91f2-c0514ba66d35"
          }
        ],
        "name": [
          {
            "family": "Grenier"
          },
          {
            "given": [
              "Pauline"
            ]
          },
          {
            "text": "Pauline Grenier"
          }
        ],
        "address": [
          {
            "line": [
              "114, avenue Georges"
            ],
            "use": "home",
            "type": "physical",
            "postalCode": "71110",
            "city": "Caron",
            "country": "France"
          }
        ],
        "telecom": [
          {
            "system": "phone",
            "value": "+33 4 26 27 51 56"
          }
        ],
        "extension": [
          {
            "url": "http://hl7.org/fhir/StructureDefinition/patient-nationality",
            "valueCodeableConcept": {
              "coding": [
                {
                  "code": "FR",
                  "system": "http://hl7.org/fhir/ValueSet/country"
                }
              ]
            }
          }
        ],
        "text": {
          "status": "generated",
          "div": "<div xmlns=\"http://www.w3.org/1999/xhtml\"><table class=\"hl7__ips\"><tr><td>Pauline Grenier</td><td>female</td><td>03-May-1971</td></tr></table></div>"
        },
        "gender": "female",
        "birthDate": "1971-05-03"
      }
    },
    {
      "fullUrl": "urn:uuid:eb8a473c-8d3b-458a-a50c-481112107330",
      "resource": {
        "resourceType": "ServiceRequest",
        "id": "eb8a473c-8d3b-458a-a50c-481112107330",
        "meta": {
          "profile": [
            "http://hl7.eu/fhir/laboratory/StructureDefinition/ServiceRequest-eu-lab"
          ]
        },
        "identifier": [
          {
            "system": "http://example.org",
            "value": "43b3696c-305f-4769-b8d5-ae9e861f229c"
          }
        ],
        "specimen": [
          {
            "reference": "urn:uuid:b5f89f6b-7192-436a-a578-b473c2c593ed"
          }
        ],
        "reasonCode": [
          {
            "coding": [
              {
                "code": "59621000",
                "system": "http://snomed.info/sct",
                "display": "Essential hypertension"
              }
            ]
          },
          {
            "coding": [
              {
                "code": "237602007",
                "system": "http://snomed.info/sct",
                "display": "Metabolic syndrome X"
              }
            ]
          },
          {
            "coding": [
              {
                "code": "15777000",
                "system": "http://snomed.info/sct",
                "display": "Prediabetes"
              }
            ]
          }
        ],
        "status": "active",
        "intent": "order",
        "code": {
          "coding": [
            {
              "code": "108252007",
              "system": "http://snomed.info/sct",
              "display": "Laboratory procedure"
            }
          ]
        },
        "subject": {
          "reference": "urn:uuid:a85b6bcd-8c81-4314-a317-67fd5a68d942",
          "display": "Pauline Grenier"
        },
        "requester": {
          "reference": "urn:uuid:bbadafed-9388-46f4-a2b6-f530a7990e41"
        }
      }
    },
    {
      "fullUrl": "urn:uuid:bbadafed-9388-46f4-a2b6-f530a7990e41",
      "resource": {
        "resourceType": "PractitionerRole",
        "id": "bbadafed-9388-46f4-a2b6-f530a7990e41",
        "meta": {
          "profile": [
            "http://hl7.eu/fhir/base/StructureDefinition/practitionerRole-eu"
          ]
        },
        "text": {
          "status": "generated",
          "div": "<div xmlns=\"http://www.w3.org/1999/xhtml\">Provider Role Id: bbadafed-9388-46f4-a2b6-f530a7990e41</div>"
        },
        "organization": {
          "reference": "urn:uuid:119fdf65-eead-45d8-817b-6e9f8a6b366b"
        }
      }
    },
    {
      "fullUrl": "urn:uuid:119fdf65-eead-45d8-817b-6e9f8a6b366b",
      "resource": {
        "resourceType": "Organization",
        "id": "119fdf65-eead-45d8-817b-6e9f8a6b366b",
        "meta": {
          "profile": [
            "http://hl7.eu/fhir/base/StructureDefinition/organization-eu"
          ]
        },
        "identifier": [
          {
            "assigner": {
              "display": "HL7 Europe"
            },
            "system": "urn:oid:2.16.840.1.113883.2.51.999",
            "value": "1992223f-077e-4bfa-a865-c4554e5c91b7"
          }
        ],
        "address": [
          {
            "city": "Le Creusot",
            "postalCode": "71200",
            "country": "France"
          }
        ],
        "text": {
          "status": "generated",
          "div": "<div xmlns=\"http://www.w3.org/1999/xhtml\">Provider Organization: Hôpital du Creusot - Site Foch</div>"
        },
        "name": "Hôpital du Creusot - Site Foch"
      }
    },
    {
      "fullUrl": "urn:uuid:b5f89f6b-7192-436a-a578-b473c2c593ed",
      "resource": {
        "resourceType": "Specimen",
        "id": "b5f89f6b-7192-436a-a578-b473c2c593ed",
        "meta": {
          "profile": [
            "http://hl7.eu/fhir/laboratory/StructureDefinition/Specimen-eu-lab"
          ]
        },
        "collection": {
          "collectedDateTime": "2019-02-11"
        },
        "text": {
          "status": "generated",
          "div": "<div xmlns=\"http://www.w3.org/1999/xhtml\"><table class=\"hl7__eu__lab__report\"><tr><th>Specimen</th><th>Collection Date</th></tr><tr><td>Whole blood specimen (specimen)</td><td><span class=\"nb\">11-Feb-2019</span></td></tr></table></div>"
        },
        "type": {
          "coding": [
            {
              "code": "258580003",
              "system": "http://snomed.info/sct",
              "display": "Whole blood specimen (specimen)"
            }
          ]
        }
      }
    },
    {
      "fullUrl": "urn:uuid:b5f89f6b-7192-436a-a578-b473c2c593ed",
      "resource": {
        "resourceType": "Specimen",
        "id": "b5f89f6b-7192-436a-a578-b473c2c593ed",
        "meta": {
          "profile": [
            "http://hl7.eu/fhir/laboratory/StructureDefinition/Specimen-eu-lab"
          ]
        },
        "collection": {
          "collectedDateTime": "2019-02-11"
        },
        "text": {
          "status": "generated",
          "div": "<div xmlns=\"http://www.w3.org/1999/xhtml\"><table class=\"hl7__eu__lab__report\"><tr><th>Specimen</th><th>Collection Date</th></tr><tr><td>Whole blood specimen (specimen)</td><td><span class=\"nb\">11-Feb-2019</span></td></tr></table></div>"
        },
        "type": {
          "coding": [
            {
              "code": "258580003",
              "system": "http://snomed.info/sct",
              "display": "Whole blood specimen (specimen)"
            }
          ]
        }
      }
    },
    {
      "fullUrl": "urn:uuid:04fc0475-a02d-4ada-9360-d67a1ae6f701",
      "resource": {
        "resourceType": "Observation",
        "id": "04fc0475-a02d-4ada-9360-d67a1ae6f701",
        "meta": {
          "profile": [
            "http://hl7.eu/fhir/laboratory/StructureDefinition/Observation-resultslab-eu-lab"
          ]
        },
        "performer": [
          {
            "display": "The Central European Lab"
          }
        ],
        "category": [
          {
            "coding": [
              {
                "system": "http://terminology.hl7.org/CodeSystem/observation-category",
                "code": "laboratory"
              }
            ]
          }
        ],
        "code": {
          "coding": [
            {
              "code": "4548-4",
              "system": "http://loinc.org",
              "display": "Hemoglobin A1c/Hemoglobin.total in Blood"
            }
          ],
          "text": "Hemoglobin A1c/Hemoglobin.total in Blood"
        },
        "valueQuantity": {
          "system": "http://unitsofmeasure.org",
          "value": 6.2,
          "unit": "%",
          "code": "%"
        },
        "referenceRange": [
          {
            "low": {
              "value": 4.8,
              "code": "%",
              "system": "http://unitsofmeasure.org"
            }
          },
          {
            "high": {
              "value": 5.7,
              "code": "%",
              "system": "http://unitsofmeasure.org"
            }
          }
        ],
        "interpretation": [
          {
            "coding": [
              {
                "code": "H",
                "system": "http://terminology.hl7.org/CodeSystem/v3-ObservationInterpretation",
                "display": "High"
              }
            ]
          }
        ],
        "text": {
          "status": "generated",
          "div": "<div xmlns=\"http://www.w3.org/1999/xhtml\"><table class=\"hl7__eu__lab__report\"><tr><th>Test</th><th>11-Feb-2019</th><th>Reference&#xA0;Range</th><th>Unit</th></tr><tr><td>Hemoglobin A1c/Hemoglobin.total in Blood</td><td>6.2</td><td>4.8 - 5.7</td><td>H</td><td>%</td></tr></table></div>"
        },
        "status": "final",
        "subject": {
          "reference": "urn:uuid:a85b6bcd-8c81-4314-a317-67fd5a68d942",
          "display": "Pauline Grenier"
        },
        "effectiveDateTime": "2019-02-11T11:54:46Z",
        "specimen": {
          "reference": "urn:uuid:b5f89f6b-7192-436a-a578-b473c2c593ed"
        }
      }
    },
    {
      "fullUrl": "urn:uuid:cd06c843-fdc8-4db3-aafd-8dbcaaf9f01e",
      "resource": {
        "resourceType": "Observation",
        "id": "cd06c843-fdc8-4db3-aafd-8dbcaaf9f01e",
        "meta": {
          "profile": [
            "http://hl7.eu/fhir/laboratory/StructureDefinition/Observation-resultslab-eu-lab"
          ]
        },
        "performer": [
          {
            "display": "The Central European Lab"
          }
        ],
        "category": [
          {
            "coding": [
              {
                "system": "http://terminology.hl7.org/CodeSystem/observation-category",
                "code": "laboratory"
              }
            ]
          }
        ],
        "code": {
          "coding": [
            {
              "code": "2339-0",
              "system": "http://loinc.org",
              "display": "Glucose [Mass/volume] in Blood"
            }
          ],
          "text": "Glucose [Mass/volume] in Blood"
        },
        "valueQuantity": {
          "system": "http://unitsofmeasure.org",
          "value": 92.5,
          "unit": "mg/dL",
          "code": "mg/dL"
        },
        "referenceRange": [
          {
            "low": {
              "value": 70,
              "code": "mg/dL",
              "system": "http://unitsofmeasure.org"
            }
          },
          {
            "high": {
              "value": 99,
              "code": "mg/dL",
              "system": "http://unitsofmeasure.org"
            }
          }
        ],
        "text": {
          "status": "generated",
          "div": "<div xmlns=\"http://www.w3.org/1999/xhtml\"><table class=\"hl7__eu__lab__report\"><tr><th>Test</th><th>11-Feb-2019</th><th>Reference&#xA0;Range</th><th>Unit</th></tr><tr><td>Glucose [Mass/volume] in Blood</td><td>92.5</td><td>70 - 99</td><td></td><td>mg/dL</td></tr></table></div>"
        },
        "status": "final",
        "subject": {
          "reference": "urn:uuid:a85b6bcd-8c81-4314-a317-67fd5a68d942",
          "display": "Pauline Grenier"
        },
        "effectiveDateTime": "2019-02-11T11:54:46Z",
        "specimen": {
          "reference": "urn:uuid:b5f89f6b-7192-436a-a578-b473c2c593ed"
        }
      }
    },
    {
      "fullUrl": "urn:uuid:78072c96-6d65-41e8-9847-f02e255245e3",
      "resource": {
        "resourceType": "Observation",
        "id": "78072c96-6d65-41e8-9847-f02e255245e3",
        "meta": {
          "profile": [
            "http://hl7.eu/fhir/laboratory/StructureDefinition/Observation-resultslab-eu-lab"
          ]
        },
        "performer": [
          {
            "display": "The Central European Lab"
          }
        ],
        "category": [
          {
            "coding": [
              {
                "system": "http://terminology.hl7.org/CodeSystem/observation-category",
                "code": "laboratory"
              }
            ]
          }
        ],
        "code": {
          "coding": [
            {
              "code": "6299-2",
              "system": "http://loinc.org",
              "display": "Urea nitrogen [Mass/volume] in Blood"
            }
          ],
          "text": "Urea nitrogen [Mass/volume] in Blood"
        },
        "valueQuantity": {
          "system": "http://unitsofmeasure.org",
          "value": 11.8,
          "unit": "mg/dL",
          "code": "mg/dL"
        },
        "referenceRange": [
          {
            "low": {
              "value": 7,
              "code": "mg/dL",
              "system": "http://unitsofmeasure.org"
            }
          },
          {
            "high": {
              "value": 20,
              "code": "mg/dL",
              "system": "http://unitsofmeasure.org"
            }
          }
        ],
        "text": {
          "status": "generated",
          "div": "<div xmlns=\"http://www.w3.org/1999/xhtml\"><table class=\"hl7__eu__lab__report\"><tr><th>Test</th><th>11-Feb-2019</th><th>Reference&#xA0;Range</th><th>Unit</th></tr><tr><td>Urea nitrogen [Mass/volume] in Blood</td><td>11.8</td><td>7 - 20</td><td></td><td>mg/dL</td></tr></table></div>"
        },
        "status": "final",
        "subject": {
          "reference": "urn:uuid:a85b6bcd-8c81-4314-a317-67fd5a68d942",
          "display": "Pauline Grenier"
        },
        "effectiveDateTime": "2019-02-11T11:54:46Z",
        "specimen": {
          "reference": "urn:uuid:b5f89f6b-7192-436a-a578-b473c2c593ed"
        }
      }
    },
    {
      "fullUrl": "urn:uuid:0a1f98f3-f08f-4074-871d-d6ac0e9494c3",
      "resource": {
        "resourceType": "Observation",
        "id": "0a1f98f3-f08f-4074-871d-d6ac0e9494c3",
        "meta": {
          "profile": [
            "http://hl7.eu/fhir/laboratory/StructureDefinition/Observation-resultslab-eu-lab"
          ]
        },
        "performer": [
          {
            "display": "The Central European Lab"
          }
        ],
        "category": [
          {
            "coding": [
              {
                "system": "http://terminology.hl7.org/CodeSystem/observation-category",
                "code": "laboratory"
              }
            ]
          }
        ],
        "code": {
          "coding": [
            {
              "code": "38483-4",
              "system": "http://loinc.org",
              "display": "Creatinine [Mass/volume] in Blood"
            }
          ],
          "text": "Creatinine [Mass/volume] in Blood"
        },
        "valueQuantity": {
          "system": "http://unitsofmeasure.org",
          "value": 1.7,
          "unit": "mg/dL",
          "code": "mg/dL"
        },
        "referenceRange": [
          {
            "low": {
              "value": 0.6,
              "code": "mg/dL",
              "system": "http://unitsofmeasure.org"
            }
          },
          {
            "high": {
              "value": 1.1,
              "code": "mg/dL",
              "system": "http://unitsofmeasure.org"
            }
          }
        ],
        "interpretation": [
          {
            "coding": [
              {
                "code": "H",
                "system": "http://terminology.hl7.org/CodeSystem/v3-ObservationInterpretation",
                "display": "High"
              }
            ]
          }
        ],
        "text": {
          "status": "generated",
          "div": "<div xmlns=\"http://www.w3.org/1999/xhtml\"><table class=\"hl7__eu__lab__report\"><tr><th>Test</th><th>11-Feb-2019</th><th>Reference&#xA0;Range</th><th>Unit</th></tr><tr><td>Creatinine [Mass/volume] in Blood</td><td>1.7</td><td>0.6 - 1.1</td><td>H</td><td>mg/dL</td></tr></table></div>"
        },
        "status": "final",
        "subject": {
          "reference": "urn:uuid:a85b6bcd-8c81-4314-a317-67fd5a68d942",
          "display": "Pauline Grenier"
        },
        "effectiveDateTime": "2019-02-11T11:54:46Z",
        "specimen": {
          "reference": "urn:uuid:b5f89f6b-7192-436a-a578-b473c2c593ed"
        }
      }
    },
    {
      "fullUrl": "urn:uuid:a0082937-2c58-43e4-9274-6a8913195a18",
      "resource": {
        "resourceType": "Observation",
        "id": "a0082937-2c58-43e4-9274-6a8913195a18",
        "meta": {
          "profile": [
            "http://hl7.eu/fhir/laboratory/StructureDefinition/Observation-resultslab-eu-lab"
          ]
        },
        "performer": [
          {
            "display": "The Central European Lab"
          }
        ],
        "category": [
          {
            "coding": [
              {
                "system": "http://terminology.hl7.org/CodeSystem/observation-category",
                "code": "laboratory"
              }
            ]
          }
        ],
        "code": {
          "coding": [
            {
              "code": "49765-1",
              "system": "http://loinc.org",
              "display": "Calcium [Mass/volume] in Blood"
            }
          ],
          "text": "Calcium [Mass/volume] in Blood"
        },
        "valueQuantity": {
          "system": "http://unitsofmeasure.org",
          "value": 8.9,
          "unit": "mg/dL",
          "code": "mg/dL"
        },
        "referenceRange": [
          {
            "low": {
              "value": 8.5,
              "code": "mg/dL",
              "system": "http://unitsofmeasure.org"
            }
          },
          {
            "high": {
              "value": 10.5,
              "code": "mg/dL",
              "system": "http://unitsofmeasure.org"
            }
          }
        ],
        "text": {
          "status": "generated",
          "div": "<div xmlns=\"http://www.w3.org/1999/xhtml\"><table class=\"hl7__eu__lab__report\"><tr><th>Test</th><th>11-Feb-2019</th><th>Reference&#xA0;Range</th><th>Unit</th></tr><tr><td>Calcium [Mass/volume] in Blood</td><td>8.9</td><td>8.5 - 10.5</td><td></td><td>mg/dL</td></tr></table></div>"
        },
        "status": "final",
        "subject": {
          "reference": "urn:uuid:a85b6bcd-8c81-4314-a317-67fd5a68d942",
          "display": "Pauline Grenier"
        },
        "effectiveDateTime": "2019-02-11T11:54:46Z",
        "specimen": {
          "reference": "urn:uuid:b5f89f6b-7192-436a-a578-b473c2c593ed"
        }
      }
    },
    {
      "fullUrl": "urn:uuid:c4040448-4040-4f1e-86b5-2f9ec7a730a5",
      "resource": {
        "resourceType": "Observation",
        "id": "c4040448-4040-4f1e-86b5-2f9ec7a730a5",
        "meta": {
          "profile": [
            "http://hl7.eu/fhir/laboratory/StructureDefinition/Observation-resultslab-eu-lab"
          ]
        },
        "performer": [
          {
            "display": "The Central European Lab"
          }
        ],
        "category": [
          {
            "coding": [
              {
                "system": "http://terminology.hl7.org/CodeSystem/observation-category",
                "code": "laboratory"
              }
            ]
          }
        ],
        "code": {
          "coding": [
            {
              "code": "2947-0",
              "system": "http://loinc.org",
              "display": "Sodium [Moles/volume] in Blood"
            }
          ],
          "text": "Sodium [Moles/volume] in Blood"
        },
        "valueQuantity": {
          "system": "http://unitsofmeasure.org",
          "value": 137,
          "unit": "mmol/L",
          "code": "mmol/L"
        },
        "referenceRange": [
          {
            "low": {
              "value": 135,
              "code": "mmol/L",
              "system": "http://unitsofmeasure.org"
            }
          },
          {
            "high": {
              "value": 145,
              "code": "mmol/L",
              "system": "http://unitsofmeasure.org"
            }
          }
        ],
        "text": {
          "status": "generated",
          "div": "<div xmlns=\"http://www.w3.org/1999/xhtml\"><table class=\"hl7__eu__lab__report\"><tr><th>Test</th><th>11-Feb-2019</th><th>Reference&#xA0;Range</th><th>Unit</th></tr><tr><td>Sodium [Moles/volume] in Blood</td><td>137.0</td><td>135 - 145</td><td></td><td>mmol/L</td></tr></table></div>"
        },
        "status": "final",
        "subject": {
          "reference": "urn:uuid:a85b6bcd-8c81-4314-a317-67fd5a68d942",
          "display": "Pauline Grenier"
        },
        "effectiveDateTime": "2019-02-11T11:54:46Z",
        "specimen": {
          "reference": "urn:uuid:b5f89f6b-7192-436a-a578-b473c2c593ed"
        }
      }
    },
    {
      "fullUrl": "urn:uuid:6696aad4-cfb2-4587-a646-4fab51297a00",
      "resource": {
        "resourceType": "Observation",
        "id": "6696aad4-cfb2-4587-a646-4fab51297a00",
        "meta": {
          "profile": [
            "http://hl7.eu/fhir/laboratory/StructureDefinition/Observation-resultslab-eu-lab"
          ]
        },
        "performer": [
          {
            "display": "The Central European Lab"
          }
        ],
        "category": [
          {
            "coding": [
              {
                "system": "http://terminology.hl7.org/CodeSystem/observation-category",
                "code": "laboratory"
              }
            ]
          }
        ],
        "code": {
          "coding": [
            {
              "code": "6298-4",
              "system": "http://loinc.org",
              "display": "Potassium [Moles/volume] in Blood"
            }
          ],
          "text": "Potassium [Moles/volume] in Blood"
        },
        "valueQuantity": {
          "system": "http://unitsofmeasure.org",
          "value": 3.7,
          "unit": "mmol/L",
          "code": "mmol/L"
        },
        "referenceRange": [
          {
            "low": {
              "value": 3.5,
              "code": "mmol/L",
              "system": "http://unitsofmeasure.org"
            }
          },
          {
            "high": {
              "value": 5.3,
              "code": "mmol/L",
              "system": "http://unitsofmeasure.org"
            }
          }
        ],
        "text": {
          "status": "generated",
          "div": "<div xmlns=\"http://www.w3.org/1999/xhtml\"><table class=\"hl7__eu__lab__report\"><tr><th>Test</th><th>11-Feb-2019</th><th>Reference&#xA0;Range</th><th>Unit</th></tr><tr><td>Potassium [Moles/volume] in Blood</td><td>3.7</td><td>3.5 - 5.3</td><td></td><td>mmol/L</td></tr></table></div>"
        },
        "status": "final",
        "subject": {
          "reference": "urn:uuid:a85b6bcd-8c81-4314-a317-67fd5a68d942",
          "display": "Pauline Grenier"
        },
        "effectiveDateTime": "2019-02-11T11:54:46Z",
        "specimen": {
          "reference": "urn:uuid:b5f89f6b-7192-436a-a578-b473c2c593ed"
        }
      }
    },
    {
      "fullUrl": "urn:uuid:ec77f15b-485c-4103-ac72-725103790f87",
      "resource": {
        "resourceType": "Observation",
        "id": "ec77f15b-485c-4103-ac72-725103790f87",
        "meta": {
          "profile": [
            "http://hl7.eu/fhir/laboratory/StructureDefinition/Observation-resultslab-eu-lab"
          ]
        },
        "performer": [
          {
            "display": "The Central European Lab"
          }
        ],
        "category": [
          {
            "coding": [
              {
                "system": "http://terminology.hl7.org/CodeSystem/observation-category",
                "code": "laboratory"
              }
            ]
          }
        ],
        "code": {
          "coding": [
            {
              "code": "2069-3",
              "system": "http://loinc.org",
              "display": "Chloride [Moles/volume] in Blood"
            }
          ],
          "text": "Chloride [Moles/volume] in Blood"
        },
        "valueQuantity": {
          "system": "http://unitsofmeasure.org",
          "value": 102.8,
          "unit": "mmol/L",
          "code": "mmol/L"
        },
        "referenceRange": [
          {
            "low": {
              "value": 98,
              "code": "mmol/L",
              "system": "http://unitsofmeasure.org"
            }
          },
          {
            "high": {
              "value": 114,
              "code": "mmol/L",
              "system": "http://unitsofmeasure.org"
            }
          }
        ],
        "text": {
          "status": "generated",
          "div": "<div xmlns=\"http://www.w3.org/1999/xhtml\"><table class=\"hl7__eu__lab__report\"><tr><th>Test</th><th>11-Feb-2019</th><th>Reference&#xA0;Range</th><th>Unit</th></tr><tr><td>Chloride [Moles/volume] in Blood</td><td>102.8</td><td>98 - 114</td><td></td><td>mmol/L</td></tr></table></div>"
        },
        "status": "final",
        "subject": {
          "reference": "urn:uuid:a85b6bcd-8c81-4314-a317-67fd5a68d942",
          "display": "Pauline Grenier"
        },
        "effectiveDateTime": "2019-02-11T11:54:46Z",
        "specimen": {
          "reference": "urn:uuid:b5f89f6b-7192-436a-a578-b473c2c593ed"
        }
      }
    },
    {
      "fullUrl": "urn:uuid:791fa523-097c-4fd0-8b8c-099d948acb0b",
      "resource": {
        "resourceType": "Observation",
        "id": "791fa523-097c-4fd0-8b8c-099d948acb0b",
        "meta": {
          "profile": [
            "http://hl7.eu/fhir/laboratory/StructureDefinition/Observation-resultslab-eu-lab"
          ]
        },
        "performer": [
          {
            "display": "The Central European Lab"
          }
        ],
        "category": [
          {
            "coding": [
              {
                "system": "http://terminology.hl7.org/CodeSystem/observation-category",
                "code": "laboratory"
              }
            ]
          }
        ],
        "code": {
          "coding": [
            {
              "code": "20565-8",
              "system": "http://loinc.org",
              "display": "Carbon dioxide, total [Moles/volume] in Blood"
            }
          ],
          "text": "Carbon dioxide, total [Moles/volume] in Blood"
        },
        "valueQuantity": {
          "system": "http://unitsofmeasure.org",
          "value": 21.2,
          "unit": "mmol/L",
          "code": "mmol/L"
        },
        "referenceRange": [
          {
            "low": {
              "value": 22,
              "code": "mmol/L",
              "system": "http://unitsofmeasure.org"
            }
          },
          {
            "high": {
              "value": 29,
              "code": "mmol/L",
              "system": "http://unitsofmeasure.org"
            }
          }
        ],
        "interpretation": [
          {
            "coding": [
              {
                "code": "L",
                "system": "http://terminology.hl7.org/CodeSystem/v3-ObservationInterpretation",
                "display": "Low"
              }
            ]
          }
        ],
        "text": {
          "status": "generated",
          "div": "<div xmlns=\"http://www.w3.org/1999/xhtml\"><table class=\"hl7__eu__lab__report\"><tr><th>Test</th><th>11-Feb-2019</th><th>Reference&#xA0;Range</th><th>Unit</th></tr><tr><td>Carbon dioxide, total [Moles/volume] in Blood</td><td>21.2</td><td>22 - 29</td><td>L</td><td>mmol/L</td></tr></table></div>"
        },
        "status": "final",
        "subject": {
          "reference": "urn:uuid:a85b6bcd-8c81-4314-a317-67fd5a68d942",
          "display": "Pauline Grenier"
        },
        "effectiveDateTime": "2019-02-11T11:54:46Z",
        "specimen": {
          "reference": "urn:uuid:b5f89f6b-7192-436a-a578-b473c2c593ed"
        }
      }
    },
    {
      "fullUrl": "urn:uuid:3bbbc991-cd8f-4d14-9327-134c0778f871",
      "resource": {
        "resourceType": "Observation",
        "id": "3bbbc991-cd8f-4d14-9327-134c0778f871",
        "meta": {
          "profile": [
            "http://hl7.eu/fhir/laboratory/StructureDefinition/Observation-resultslab-eu-lab"
          ]
        },
        "performer": [
          {
            "display": "The Central European Lab"
          }
        ],
        "category": [
          {
            "coding": [
              {
                "system": "http://terminology.hl7.org/CodeSystem/observation-category",
                "code": "laboratory"
              }
            ]
          }
        ],
        "code": {
          "coding": [
            {
              "code": "6690-2",
              "system": "http://loinc.org",
              "display": "Leukocytes [#/volume] in Blood by Automated count"
            }
          ],
          "text": "Leukocytes [#/volume] in Blood by Automated count"
        },
        "valueQuantity": {
          "system": "http://unitsofmeasure.org",
          "value": 8.1,
          "unit": "10*3/uL",
          "code": "10*3/uL"
        },
        "referenceRange": [
          {
            "low": {
              "value": 3.4,
              "code": "10*3/uL",
              "system": "http://unitsofmeasure.org"
            }
          },
          {
            "high": {
              "value": 10.6,
              "code": "10*3/uL",
              "system": "http://unitsofmeasure.org"
            }
          }
        ],
        "text": {
          "status": "generated",
          "div": "<div xmlns=\"http://www.w3.org/1999/xhtml\"><table class=\"hl7__eu__lab__report\"><tr><th>Test</th><th>11-Feb-2019</th><th>Reference&#xA0;Range</th><th>Unit</th></tr><tr><td>Leukocytes [#/volume] in Blood by Automated count</td><td>8.1</td><td>3.4 - 10.6</td><td></td><td>10*3/uL</td></tr></table></div>"
        },
        "status": "final",
        "subject": {
          "reference": "urn:uuid:a85b6bcd-8c81-4314-a317-67fd5a68d942",
          "display": "Pauline Grenier"
        },
        "effectiveDateTime": "2019-02-11T11:54:46Z",
        "specimen": {
          "reference": "urn:uuid:b5f89f6b-7192-436a-a578-b473c2c593ed"
        }
      }
    },
    {
      "fullUrl": "urn:uuid:4d3d9c14-cffa-4a3a-92a8-f485dcd517ec",
      "resource": {
        "resourceType": "Observation",
        "id": "4d3d9c14-cffa-4a3a-92a8-f485dcd517ec",
        "meta": {
          "profile": [
            "http://hl7.eu/fhir/laboratory/StructureDefinition/Observation-resultslab-eu-lab"
          ]
        },
        "performer": [
          {
            "display": "The Central European Lab"
          }
        ],
        "category": [
          {
            "coding": [
              {
                "system": "http://terminology.hl7.org/CodeSystem/observation-category",
                "code": "laboratory"
              }
            ]
          }
        ],
        "code": {
          "coding": [
            {
              "code": "789-8",
              "system": "http://loinc.org",
              "display": "Erythrocytes [#/volume] in Blood by Automated count"
            }
          ],
          "text": "Erythrocytes [#/volume] in Blood by Automated count"
        },
        "valueQuantity": {
          "system": "http://unitsofmeasure.org",
          "value": 4.1,
          "unit": "10*6/uL",
          "code": "10*6/uL"
        },
        "referenceRange": [
          {
            "low": {
              "value": 4.2,
              "code": "10*6/uL",
              "system": "http://unitsofmeasure.org"
            }
          },
          {
            "high": {
              "value": 5.2,
              "code": "10*6/uL",
              "system": "http://unitsofmeasure.org"
            }
          }
        ],
        "interpretation": [
          {
            "coding": [
              {
                "code": "L",
                "system": "http://terminology.hl7.org/CodeSystem/v3-ObservationInterpretation",
                "display": "Low"
              }
            ]
          }
        ],
        "text": {
          "status": "generated",
          "div": "<div xmlns=\"http://www.w3.org/1999/xhtml\"><table class=\"hl7__eu__lab__report\"><tr><th>Test</th><th>11-Feb-2019</th><th>Reference&#xA0;Range</th><th>Unit</th></tr><tr><td>Erythrocytes [#/volume] in Blood by Automated count</td><td>4.1</td><td>4.2 - 5.2</td><td>L</td><td>10*6/uL</td></tr></table></div>"
        },
        "status": "final",
        "subject": {
          "reference": "urn:uuid:a85b6bcd-8c81-4314-a317-67fd5a68d942",
          "display": "Pauline Grenier"
        },
        "effectiveDateTime": "2019-02-11T11:54:46Z",
        "specimen": {
          "reference": "urn:uuid:b5f89f6b-7192-436a-a578-b473c2c593ed"
        }
      }
    },
    {
      "fullUrl": "urn:uuid:1169e123-681e-4be6-ba13-f494e0359f67",
      "resource": {
        "resourceType": "Observation",
        "id": "1169e123-681e-4be6-ba13-f494e0359f67",
        "meta": {
          "profile": [
            "http://hl7.eu/fhir/laboratory/StructureDefinition/Observation-resultslab-eu-lab"
          ]
        },
        "performer": [
          {
            "display": "The Central European Lab"
          }
        ],
        "category": [
          {
            "coding": [
              {
                "system": "http://terminology.hl7.org/CodeSystem/observation-category",
                "code": "laboratory"
              }
            ]
          }
        ],
        "code": {
          "coding": [
            {
              "code": "718-7",
              "system": "http://loinc.org",
              "display": "Hemoglobin [Mass/volume] in Blood"
            }
          ],
          "text": "Hemoglobin [Mass/volume] in Blood"
        },
        "valueQuantity": {
          "system": "http://unitsofmeasure.org",
          "value": 14.1,
          "unit": "g/dL",
          "code": "g/dL"
        },
        "referenceRange": [
          {
            "low": {
              "value": 12,
              "code": "g/dL",
              "system": "http://unitsofmeasure.org"
            }
          },
          {
            "high": {
              "value": 16,
              "code": "g/dL",
              "system": "http://unitsofmeasure.org"
            }
          }
        ],
        "text": {
          "status": "generated",
          "div": "<div xmlns=\"http://www.w3.org/1999/xhtml\"><table class=\"hl7__eu__lab__report\"><tr><th>Test</th><th>11-Feb-2019</th><th>Reference&#xA0;Range</th><th>Unit</th></tr><tr><td>Hemoglobin [Mass/volume] in Blood</td><td>14.1</td><td>12 - 16</td><td></td><td>g/dL</td></tr></table></div>"
        },
        "status": "final",
        "subject": {
          "reference": "urn:uuid:a85b6bcd-8c81-4314-a317-67fd5a68d942",
          "display": "Pauline Grenier"
        },
        "effectiveDateTime": "2019-02-11T11:54:46Z",
        "specimen": {
          "reference": "urn:uuid:b5f89f6b-7192-436a-a578-b473c2c593ed"
        }
      }
    },
    {
      "fullUrl": "urn:uuid:fbe30351-fe1b-4cab-b274-e1cd3482a551",
      "resource": {
        "resourceType": "Observation",
        "id": "fbe30351-fe1b-4cab-b274-e1cd3482a551",
        "meta": {
          "profile": [
            "http://hl7.eu/fhir/laboratory/StructureDefinition/Observation-resultslab-eu-lab"
          ]
        },
        "performer": [
          {
            "display": "The Central European Lab"
          }
        ],
        "category": [
          {
            "coding": [
              {
                "system": "http://terminology.hl7.org/CodeSystem/observation-category",
                "code": "laboratory"
              }
            ]
          }
        ],
        "code": {
          "coding": [
            {
              "code": "4544-3",
              "system": "http://loinc.org",
              "display": "Hematocrit [Volume Fraction] of Blood by Automated count"
            }
          ],
          "text": "Hematocrit [Volume Fraction] of Blood by Automated count"
        },
        "valueQuantity": {
          "system": "http://unitsofmeasure.org",
          "value": 45,
          "unit": "%",
          "code": "%"
        },
        "referenceRange": [
          {
            "low": {
              "value": 37,
              "code": "%",
              "system": "http://unitsofmeasure.org"
            }
          },
          {
            "high": {
              "value": 46,
              "code": "%",
              "system": "http://unitsofmeasure.org"
            }
          }
        ],
        "text": {
          "status": "generated",
          "div": "<div xmlns=\"http://www.w3.org/1999/xhtml\"><table class=\"hl7__eu__lab__report\"><tr><th>Test</th><th>11-Feb-2019</th><th>Reference&#xA0;Range</th><th>Unit</th></tr><tr><td>Hematocrit [Volume Fraction] of Blood by Automated count</td><td>45.0</td><td>37 - 46</td><td></td><td>%</td></tr></table></div>"
        },
        "status": "final",
        "subject": {
          "reference": "urn:uuid:a85b6bcd-8c81-4314-a317-67fd5a68d942",
          "display": "Pauline Grenier"
        },
        "effectiveDateTime": "2019-02-11T11:54:46Z",
        "specimen": {
          "reference": "urn:uuid:b5f89f6b-7192-436a-a578-b473c2c593ed"
        }
      }
    },
    {
      "fullUrl": "urn:uuid:fa7a7919-1da2-45ba-8a35-b17fd01ada4f",
      "resource": {
        "resourceType": "Observation",
        "id": "fa7a7919-1da2-45ba-8a35-b17fd01ada4f",
        "meta": {
          "profile": [
            "http://hl7.eu/fhir/laboratory/StructureDefinition/Observation-resultslab-eu-lab"
          ]
        },
        "performer": [
          {
            "display": "The Central European Lab"
          }
        ],
        "category": [
          {
            "coding": [
              {
                "system": "http://terminology.hl7.org/CodeSystem/observation-category",
                "code": "laboratory"
              }
            ]
          }
        ],
        "code": {
          "coding": [
            {
              "code": "787-2",
              "system": "http://loinc.org",
              "display": "MCV [Entitic volume] by Automated count"
            }
          ],
          "text": "MCV [Entitic volume] by Automated count"
        },
        "valueQuantity": {
          "system": "http://unitsofmeasure.org",
          "value": 91.6,
          "unit": "fL",
          "code": "fL"
        },
        "referenceRange": [
          {
            "low": {
              "value": 80,
              "code": "fL",
              "system": "http://unitsofmeasure.org"
            }
          },
          {
            "high": {
              "value": 105,
              "code": "fL",
              "system": "http://unitsofmeasure.org"
            }
          }
        ],
        "text": {
          "status": "generated",
          "div": "<div xmlns=\"http://www.w3.org/1999/xhtml\"><table class=\"hl7__eu__lab__report\"><tr><th>Test</th><th>11-Feb-2019</th><th>Reference&#xA0;Range</th><th>Unit</th></tr><tr><td>MCV [Entitic volume] by Automated count</td><td>91.6</td><td>80 - 105</td><td></td><td>fL</td></tr></table></div>"
        },
        "status": "final",
        "subject": {
          "reference": "urn:uuid:a85b6bcd-8c81-4314-a317-67fd5a68d942",
          "display": "Pauline Grenier"
        },
        "effectiveDateTime": "2019-02-11T11:54:46Z",
        "specimen": {
          "reference": "urn:uuid:b5f89f6b-7192-436a-a578-b473c2c593ed"
        }
      }
    },
    {
      "fullUrl": "urn:uuid:faaaa4f2-b93e-4b0d-827e-ed9e41da157b",
      "resource": {
        "resourceType": "Observation",
        "id": "faaaa4f2-b93e-4b0d-827e-ed9e41da157b",
        "meta": {
          "profile": [
            "http://hl7.eu/fhir/laboratory/StructureDefinition/Observation-resultslab-eu-lab"
          ]
        },
        "performer": [
          {
            "display": "The Central European Lab"
          }
        ],
        "category": [
          {
            "coding": [
              {
                "system": "http://terminology.hl7.org/CodeSystem/observation-category",
                "code": "laboratory"
              }
            ]
          }
        ],
        "code": {
          "coding": [
            {
              "code": "785-6",
              "system": "http://loinc.org",
              "display": "MCH [Entitic mass] by Automated count"
            }
          ],
          "text": "MCH [Entitic mass] by Automated count"
        },
        "valueQuantity": {
          "system": "http://unitsofmeasure.org",
          "value": 29,
          "unit": "pg",
          "code": "pg"
        },
        "referenceRange": [
          {
            "low": {
              "value": 27,
              "code": "pg",
              "system": "http://unitsofmeasure.org"
            }
          },
          {
            "high": {
              "value": 34,
              "code": "pg",
              "system": "http://unitsofmeasure.org"
            }
          }
        ],
        "text": {
          "status": "generated",
          "div": "<div xmlns=\"http://www.w3.org/1999/xhtml\"><table class=\"hl7__eu__lab__report\"><tr><th>Test</th><th>11-Feb-2019</th><th>Reference&#xA0;Range</th><th>Unit</th></tr><tr><td>MCH [Entitic mass] by Automated count</td><td>29.0</td><td>27 - 34</td><td></td><td>pg</td></tr></table></div>"
        },
        "status": "final",
        "subject": {
          "reference": "urn:uuid:a85b6bcd-8c81-4314-a317-67fd5a68d942",
          "display": "Pauline Grenier"
        },
        "effectiveDateTime": "2019-02-11T11:54:46Z",
        "specimen": {
          "reference": "urn:uuid:b5f89f6b-7192-436a-a578-b473c2c593ed"
        }
      }
    },
    {
      "fullUrl": "urn:uuid:99ce5ad5-18d0-4724-ba61-f3d22c4bcf9a",
      "resource": {
        "resourceType": "Observation",
        "id": "99ce5ad5-18d0-4724-ba61-f3d22c4bcf9a",
        "meta": {
          "profile": [
            "http://hl7.eu/fhir/laboratory/StructureDefinition/Observation-resultslab-eu-lab"
          ]
        },
        "performer": [
          {
            "display": "The Central European Lab"
          }
        ],
        "category": [
          {
            "coding": [
              {
                "system": "http://terminology.hl7.org/CodeSystem/observation-category",
                "code": "laboratory"
              }
            ]
          }
        ],
        "code": {
          "coding": [
            {
              "code": "786-4",
              "system": "http://loinc.org",
              "display": "MCHC [Mass/volume] by Automated count"
            }
          ],
          "text": "MCHC [Mass/volume] by Automated count"
        },
        "valueQuantity": {
          "system": "http://unitsofmeasure.org",
          "value": 35,
          "unit": "g/dL",
          "code": "g/dL"
        },
        "referenceRange": [
          {
            "low": {
              "value": 31,
              "code": "g/dL",
              "system": "http://unitsofmeasure.org"
            }
          },
          {
            "high": {
              "value": 35,
              "code": "g/dL",
              "system": "http://unitsofmeasure.org"
            }
          }
        ],
        "text": {
          "status": "generated",
          "div": "<div xmlns=\"http://www.w3.org/1999/xhtml\"><table class=\"hl7__eu__lab__report\"><tr><th>Test</th><th>11-Feb-2019</th><th>Reference&#xA0;Range</th><th>Unit</th></tr><tr><td>MCHC [Mass/volume] by Automated count</td><td>35.0</td><td>31 - 35</td><td></td><td>g/dL</td></tr></table></div>"
        },
        "status": "final",
        "subject": {
          "reference": "urn:uuid:a85b6bcd-8c81-4314-a317-67fd5a68d942",
          "display": "Pauline Grenier"
        },
        "effectiveDateTime": "2019-02-11T11:54:46Z",
        "specimen": {
          "reference": "urn:uuid:b5f89f6b-7192-436a-a578-b473c2c593ed"
        }
      }
    },
    {
      "fullUrl": "urn:uuid:a900c6e1-5fb2-49f5-97c0-3a4942b53b6b",
      "resource": {
        "resourceType": "Observation",
        "id": "a900c6e1-5fb2-49f5-97c0-3a4942b53b6b",
        "meta": {
          "profile": [
            "http://hl7.eu/fhir/laboratory/StructureDefinition/Observation-resultslab-eu-lab"
          ]
        },
        "performer": [
          {
            "display": "The Central European Lab"
          }
        ],
        "category": [
          {
            "coding": [
              {
                "system": "http://terminology.hl7.org/CodeSystem/observation-category",
                "code": "laboratory"
              }
            ]
          }
        ],
        "code": {
          "coding": [
            {
              "code": "21000-5",
              "system": "http://loinc.org",
              "display": "Erythrocyte distribution width [Entitic volume] by Automated count"
            }
          ],
          "text": "Erythrocyte distribution width [Entitic volume] by Automated count"
        },
        "valueQuantity": {
          "system": "http://unitsofmeasure.org",
          "value": 40.1,
          "unit": "fL",
          "code": "fL"
        },
        "referenceRange": [
          {
            "low": {
              "value": 36,
              "code": "fL",
              "system": "http://unitsofmeasure.org"
            }
          },
          {
            "high": {
              "value": 46,
              "code": "fL",
              "system": "http://unitsofmeasure.org"
            }
          }
        ],
        "text": {
          "status": "generated",
          "div": "<div xmlns=\"http://www.w3.org/1999/xhtml\"><table class=\"hl7__eu__lab__report\"><tr><th>Test</th><th>11-Feb-2019</th><th>Reference&#xA0;Range</th><th>Unit</th></tr><tr><td>Erythrocyte distribution width [Entitic volume] by Automated count</td><td>40.1</td><td>36 - 46</td><td></td><td>fL</td></tr></table></div>"
        },
        "status": "final",
        "subject": {
          "reference": "urn:uuid:a85b6bcd-8c81-4314-a317-67fd5a68d942",
          "display": "Pauline Grenier"
        },
        "effectiveDateTime": "2019-02-11T11:54:46Z",
        "specimen": {
          "reference": "urn:uuid:b5f89f6b-7192-436a-a578-b473c2c593ed"
        }
      }
    },
    {
      "fullUrl": "urn:uuid:726519c0-42bc-4caa-a76b-25ced4d08bab",
      "resource": {
        "resourceType": "Observation",
        "id": "726519c0-42bc-4caa-a76b-25ced4d08bab",
        "meta": {
          "profile": [
            "http://hl7.eu/fhir/laboratory/StructureDefinition/Observation-resultslab-eu-lab"
          ]
        },
        "performer": [
          {
            "display": "The Central European Lab"
          }
        ],
        "category": [
          {
            "coding": [
              {
                "system": "http://terminology.hl7.org/CodeSystem/observation-category",
                "code": "laboratory"
              }
            ]
          }
        ],
        "code": {
          "coding": [
            {
              "code": "777-3",
              "system": "http://loinc.org",
              "display": "Platelets [#/volume] in Blood by Automated count"
            }
          ],
          "text": "Platelets [#/volume] in Blood by Automated count"
        },
        "valueQuantity": {
          "system": "http://unitsofmeasure.org",
          "value": 369.4,
          "unit": "10*3/uL",
          "code": "10*3/uL"
        },
        "referenceRange": [
          {
            "low": {
              "value": 150,
              "code": "10*3/uL",
              "system": "http://unitsofmeasure.org"
            }
          },
          {
            "high": {
              "value": 415,
              "code": "10*3/uL",
              "system": "http://unitsofmeasure.org"
            }
          }
        ],
        "text": {
          "status": "generated",
          "div": "<div xmlns=\"http://www.w3.org/1999/xhtml\"><table class=\"hl7__eu__lab__report\"><tr><th>Test</th><th>11-Feb-2019</th><th>Reference&#xA0;Range</th><th>Unit</th></tr><tr><td>Platelets [#/volume] in Blood by Automated count</td><td>369.4</td><td>150 - 415</td><td></td><td>10*3/uL</td></tr></table></div>"
        },
        "status": "final",
        "subject": {
          "reference": "urn:uuid:a85b6bcd-8c81-4314-a317-67fd5a68d942",
          "display": "Pauline Grenier"
        },
        "effectiveDateTime": "2019-02-11T11:54:46Z",
        "specimen": {
          "reference": "urn:uuid:b5f89f6b-7192-436a-a578-b473c2c593ed"
        }
      }
    },
    {
      "fullUrl": "urn:uuid:16a3ce5b-5fcc-4b7e-87b9-1f9a0293def0",
      "resource": {
        "resourceType": "Observation",
        "id": "16a3ce5b-5fcc-4b7e-87b9-1f9a0293def0",
        "meta": {
          "profile": [
            "http://hl7.eu/fhir/laboratory/StructureDefinition/Observation-resultslab-eu-lab"
          ]
        },
        "performer": [
          {
            "display": "The Central European Lab"
          }
        ],
        "category": [
          {
            "coding": [
              {
                "system": "http://terminology.hl7.org/CodeSystem/observation-category",
                "code": "laboratory"
              }
            ]
          }
        ],
        "code": {
          "coding": [
            {
              "code": "32207-3",
              "system": "http://loinc.org",
              "display": "Platelet distribution width [Entitic volume] in Blood by Automated count"
            }
          ],
          "text": "Platelet distribution width [Entitic volume] in Blood by Automated count"
        },
        "valueQuantity": {
          "system": "http://unitsofmeasure.org",
          "value": 441.4,
          "unit": "fL",
          "code": "fL"
        },
        "referenceRange": [
          {
            "low": {
              "value": 11.6,
              "code": "fL",
              "system": "http://unitsofmeasure.org"
            }
          },
          {
            "high": {
              "value": 17.4,
              "code": "fL",
              "system": "http://unitsofmeasure.org"
            }
          }
        ],
        "interpretation": [
          {
            "coding": [
              {
                "code": "H",
                "system": "http://terminology.hl7.org/CodeSystem/v3-ObservationInterpretation",
                "display": "High"
              }
            ]
          }
        ],
        "text": {
          "status": "generated",
          "div": "<div xmlns=\"http://www.w3.org/1999/xhtml\"><table class=\"hl7__eu__lab__report\"><tr><th>Test</th><th>11-Feb-2019</th><th>Reference&#xA0;Range</th><th>Unit</th></tr><tr><td>Platelet distribution width [Entitic volume] in Blood by Automated count</td><td>441.4</td><td>11.6 - 17.4</td><td>H</td><td>fL</td></tr></table></div>"
        },
        "status": "final",
        "subject": {
          "reference": "urn:uuid:a85b6bcd-8c81-4314-a317-67fd5a68d942",
          "display": "Pauline Grenier"
        },
        "effectiveDateTime": "2019-02-11T11:54:46Z",
        "specimen": {
          "reference": "urn:uuid:b5f89f6b-7192-436a-a578-b473c2c593ed"
        }
      }
    },
    {
      "fullUrl": "urn:uuid:3e56f40b-4ad6-45c9-b8d6-7b8702fef4ec",
      "resource": {
        "resourceType": "Observation",
        "id": "3e56f40b-4ad6-45c9-b8d6-7b8702fef4ec",
        "meta": {
          "profile": [
            "http://hl7.eu/fhir/laboratory/StructureDefinition/Observation-resultslab-eu-lab"
          ]
        },
        "performer": [
          {
            "display": "The Central European Lab"
          }
        ],
        "category": [
          {
            "coding": [
              {
                "system": "http://terminology.hl7.org/CodeSystem/observation-category",
                "code": "laboratory"
              }
            ]
          }
        ],
        "code": {
          "coding": [
            {
              "code": "32623-1",
              "system": "http://loinc.org",
              "display": "Platelet mean volume [Entitic volume] in Blood by Automated count"
            }
          ],
          "text": "Platelet mean volume [Entitic volume] in Blood by Automated count"
        },
        "valueQuantity": {
          "system": "http://unitsofmeasure.org",
          "value": 10.3,
          "unit": "fL",
          "code": "fL"
        },
        "referenceRange": [
          {
            "low": {
              "value": 7.2,
              "code": "fL",
              "system": "http://unitsofmeasure.org"
            }
          },
          {
            "high": {
              "value": 13.8,
              "code": "fL",
              "system": "http://unitsofmeasure.org"
            }
          }
        ],
        "text": {
          "status": "generated",
          "div": "<div xmlns=\"http://www.w3.org/1999/xhtml\"><table class=\"hl7__eu__lab__report\"><tr><th>Test</th><th>11-Feb-2019</th><th>Reference&#xA0;Range</th><th>Unit</th></tr><tr><td>Platelet mean volume [Entitic volume] in Blood by Automated count</td><td>10.3</td><td>7.2 - 13.8</td><td></td><td>fL</td></tr></table></div>"
        },
        "status": "final",
        "subject": {
          "reference": "urn:uuid:a85b6bcd-8c81-4314-a317-67fd5a68d942",
          "display": "Pauline Grenier"
        },
        "effectiveDateTime": "2019-02-11T11:54:46Z",
        "specimen": {
          "reference": "urn:uuid:b5f89f6b-7192-436a-a578-b473c2c593ed"
        }
      }
    },
    {
      "fullUrl": "urn:uuid:6f386fe3-ef04-42a6-af38-42df5ad5e7a2",
      "resource": {
        "resourceType": "Device",
        "id": "6f386fe3-ef04-42a6-af38-42df5ad5e7a2",
        "deviceName": [
          {
            "name": "SYNDERAI Synthetic Generator",
            "type": "manufacturer-name"
          }
        ],
        "version": [
          {
            "value": "5.0"
          }
        ],
        "text": {
          "status": "generated",
          "div": "<div xmlns=\"http://www.w3.org/1999/xhtml\">SYNDERAI Synthetic Generator v5.0</div>"
        },
        "status": "active\"",
        "distinctIdentifier": "synderai-generator-50",
        "manufacturer": "SYNDERAI Project"
      }
    },
    {
      "fullUrl": "urn:uuid:dc349ca4-262f-4bdd-823d-16046d02052f",
      "resource": {
        "resourceType": "Provenance",
        "id": "dc349ca4-262f-4bdd-823d-16046d02052f",
        "target": [
          {
            "reference": "Patient/a85b6bcd-8c81-4314-a317-67fd5a68d942"
          },
          {
            "reference": "Bundle/359a6448-5e17-4b6d-84f1-e679487d32e5"
          },
          {
            "reference": "Composition/4fd17e0a-f315-4da0-970b-4bd791131cc6"
          },
          {
            "reference": "PractitionerRole/1f5f7847-8a16-4027-bc8d-7cc85ae72213"
          },
          {
            "reference": "Practitioner/359f4b48-02f4-4920-bbbf-39c18e721448"
          },
          {
            "reference": "PractitionerRole/bbadafed-9388-46f4-a2b6-f530a7990e41"
          },
          {
            "reference": "Organization/119fdf65-eead-45d8-817b-6e9f8a6b366b"
          }
        ],
        "activity": {
          "text": "Synthetic Example Data Generation"
        },
        "policy": [
          "https://synderai.net/synderai-synthetic-data-policy"
        ],
        "agent": [
          {
            "type": {
              "text": "author"
            },
            "who": {
              "reference": "Device/6f386fe3-ef04-42a6-af38-42df5ad5e7a2"
            }
          }
        ],
        "reason": [
          {
            "text": "Interoperability Testing and Training (non-clinical use)"
          }
        ],
        "text": {
          "status": "generated",
          "div": "<div xmlns=\"http://www.w3.org/1999/xhtml\">Provenance for SYNDERAI Synthetic Example Data Resource</div>"
        },
        "recorded": "2019-02-11T12:54:46Z"
      }
    },
    {
      "fullUrl": "urn:uuid:1f5f7847-8a16-4027-bc8d-7cc85ae72213",
      "resource": {
        "resourceType": "PractitionerRole",
        "id": "1f5f7847-8a16-4027-bc8d-7cc85ae72213",
        "meta": {
          "profile": [
            "http://hl7.eu/fhir/base/StructureDefinition/practitionerRole-eu"
          ]
        },
        "text": {
          "status": "generated",
          "div": "<div xmlns=\"http://www.w3.org/1999/xhtml\">Laboratory Role Id: 1f5f7847-8a16-4027-bc8d-7cc85ae72213</div>"
        },
        "practitioner": {
          "reference": "urn:uuid:359f4b48-02f4-4920-bbbf-39c18e721448"
        }
      }
    },
    {
      "fullUrl": "urn:uuid:359f4b48-02f4-4920-bbbf-39c18e721448",
      "resource": {
        "resourceType": "Practitioner",
        "id": "359f4b48-02f4-4920-bbbf-39c18e721448",
        "meta": {
          "profile": [
            "http://hl7.eu/fhir/base/StructureDefinition/practitioner-eu"
          ]
        },
        "identifier": [
          {
            "assigner": {
              "display": "HL7 Europe"
            },
            "system": "urn:oid:2.16.840.1.113883.2.51.999",
            "value": "588d681e-4f05-4a00-b573-9e258096f06c"
          }
        ],
        "name": [
          {
            "prefix": [
              "dr"
            ],
            "given": [
              "Ex"
            ],
            "family": "Ample"
          }
        ],
        "address": [
          {
            "line": [
              "Laboratoire Central Européenne",
              "Boulevard du Jardin Botanique 32"
            ],
            "postalCode": "1000",
            "city": "Brussels",
            "country": "Belgium"
          }
        ],
        "text": {
          "status": "generated",
          "div": "<div xmlns=\"http://www.w3.org/1999/xhtml\">Laboratory: Laboratoire Central Européenne, 1000 Brussels, Belgium</div>"
        }
      }
    }
  ],
  "type": "document",
  "timestamp": "2019-02-11T12:54:46Z"
}
