{
  "resourceType": "Bundle",
  "id": "d4301e80-ad28-4a15-b826-eabe82a072b8",
  "meta": {
    "profile": [
      "http://hl7.eu/fhir/laboratory/StructureDefinition/Bundle-eu-lab"
    ]
  },
  "identifier": {
    "assigner": {
      "display": "HL7 Europe"
    },
    "system": "urn:oid:2.16.840.1.113883.2.51.999",
    "value": "5f0eb39d-6811-48f1-a40d-38aeda1cfc07"
  },
  "entry": [
    {
      "fullUrl": "urn:uuid:4ad62162-12ac-41ef-b0a7-d50f2a400ec8",
      "resource": {
        "resourceType": "Composition",
        "id": "4ad62162-12ac-41ef-b0a7-d50f2a400ec8",
        "meta": {
          "profile": [
            "http://hl7.eu/fhir/laboratory/StructureDefinition/Composition-eu-lab"
          ]
        },
        "identifier": {
          "assigner": {
            "display": "HL7 Europe"
          },
          "system": "urn:oid:2.16.840.1.113883.2.51.999",
          "value": "daab486e-a618-4863-be3d-ef650d402bb2"
        },
        "author": [
          {
            "reference": "urn:uuid:e923ec20-2ada-4e6f-b4a5-2d2d3ccaaa9b"
          }
        ],
        "category": [
          {
            "coding": [
              {
                "code": "26436-6",
                "system": "http://loinc.org",
                "display": "Laboratory studies (set)"
              }
            ]
          }
        ],
        "type": {
          "coding": [
            {
              "code": "11502-2",
              "system": "http://loinc.org",
              "display": "Laboratory report"
            }
          ],
          "text": "Laboratory Report"
        },
        "section": [
          {
            "code": {
              "coding": [
                {
                  "code": "26436-6",
                  "system": "http://loinc.org",
                  "display": "Laboratory studies (set)"
                }
              ],
              "text": "Laboratory studies"
            },
            "section": [
              {
                "code": {
                  "coding": [
                    {
                      "code": "$18719-5",
                      "system": "http://loinc.org",
                      "display": "Chemistry studies (set)"
                    }
                  ],
                  "text": "Chemistry"
                },
                "entry": [
                  {
                    "reference": "urn:uuid:52432868-d184-427f-bbe4-eb031aa07b25"
                  },
                  {
                    "reference": "urn:uuid:19d0970b-0929-4f17-b84b-88addda9599f"
                  },
                  {
                    "reference": "urn:uuid:86f43303-f8db-45a2-9598-f3e47d08a4ae"
                  },
                  {
                    "reference": "urn:uuid:405048cc-9b9f-417b-a774-adae4621517a"
                  },
                  {
                    "reference": "urn:uuid:572a0a02-b10e-4317-842c-530205f11b67"
                  },
                  {
                    "reference": "urn:uuid:141eeb11-19a8-445f-9bab-fc97c7517485"
                  },
                  {
                    "reference": "urn:uuid:7b288762-b5f2-45f7-bf66-5df124484f63"
                  },
                  {
                    "reference": "urn:uuid:e6219f52-fb37-48c5-a66c-a49642ec839c"
                  },
                  {
                    "reference": "urn:uuid:a3379d81-f8bc-46b9-87c3-fb8ab2012103"
                  },
                  {
                    "reference": "urn:uuid:9ff52896-6504-4a52-961f-500654a02572"
                  },
                  {
                    "reference": "urn:uuid:36152804-1632-4ef8-acf3-62fce9b8695d"
                  },
                  {
                    "reference": "urn:uuid:bdf22bdf-6ab4-4c53-b092-dc95072c0ce2"
                  },
                  {
                    "reference": "urn:uuid:c42bc0df-391f-4dd2-8001-88830afe184d"
                  },
                  {
                    "reference": "urn:uuid:534afe8c-129f-4b37-bbb1-3ec3b4d5d81b"
                  },
                  {
                    "reference": "urn:uuid:5972d4c8-8da5-4f70-8a23-893b17a15037"
                  },
                  {
                    "reference": "urn:uuid:81c9e28b-a9e2-4efd-975e-c70e52d72ebe"
                  },
                  {
                    "reference": "urn:uuid:1edc91f5-b2c0-4c89-8580-378ceb3888cd"
                  },
                  {
                    "reference": "urn:uuid:c594d588-33c3-42ed-8075-829e84f8e771"
                  }
                ],
                "text": {
                  "status": "generated",
                  "div": "<div xmlns=\"http://www.w3.org/1999/xhtml\"><h3>Chemistry</h3><table class=\"hl7__eu__lab__report\"><thead><tr><th>Test</th><th>28-JUL-2022</th><th>Reference&#xA0;Range</th><th>Unit</th></tr></thead><tbody><tr><td>Glucose [Mass/volume] in Serum or Plasma</td><td>99.7</td><td>70 - 139</td><td>mg/dL</td></tr><tr><td>Urea nitrogen [Mass/volume] in Serum or Plasma</td><td>11.5</td><td>7 - 20</td><td>mg/dL</td></tr><tr><td>Creatinine [Mass/volume] in Serum or Plasma</td><td><strong>1.9 H</strong></td><td>0.6 - 1.1</td><td>mg/dL</td></tr><tr><td>Calcium [Mass/volume] in Serum or Plasma</td><td>9.3</td><td>8.5 - 10.4</td><td>mg/dL</td></tr><tr><td>Sodium [Moles/volume] in Serum or Plasma</td><td>142.8</td><td>135 - 145</td><td>mmol/L</td></tr><tr><td>Potassium [Moles/volume] in Serum or Plasma</td><td>4.0</td><td>3.5 - 5.1</td><td>mmol/L</td></tr><tr><td>Chloride [Moles/volume] in Serum or Plasma</td><td>103.5</td><td>98 - 110</td><td>mmol/L</td></tr><tr><td>Carbon dioxide, total [Moles/volume] in Serum or Plasma</td><td>28.6</td><td>22 - 32</td><td>mmol/L</td></tr><tr><td>Ketones [Presence] in Urine by Test strip</td><td>Urine ketone test = +</td><td></td><td></td></tr><tr><td>Hemoglobin A1c/Hemoglobin.total in Blood</td><td><strong>2.8 L</strong></td><td>4 - 6</td><td>%</td></tr><tr><td>Glucose [Mass/volume] in Blood</td><td>99.7</td><td>70 - 100</td><td>mg/dL</td></tr><tr><td>Urea nitrogen [Mass/volume] in Blood</td><td>11.5</td><td>7 - 20</td><td>mg/dL</td></tr><tr><td>Creatinine [Mass/volume] in Blood</td><td><strong>1.6 H</strong></td><td>0.6 - 1.3</td><td>mg/dL</td></tr><tr><td>Calcium [Mass/volume] in Blood</td><td>9.3</td><td>8.6 - 10.4</td><td>mg/dL</td></tr><tr><td>Sodium [Moles/volume] in Blood</td><td>142.8</td><td>135 - 145</td><td>mmol/L</td></tr><tr><td>Potassium [Moles/volume] in Blood</td><td>4.0</td><td>3.5 - 5.1</td><td>mmol/L</td></tr><tr><td>Chloride [Moles/volume] in Blood</td><td>103.5</td><td>98 - 110</td><td>mmol/L</td></tr><tr><td>Carbon dioxide, total [Moles/volume] in Blood</td><td>28.6</td><td>22 - 29</td><td>mmol/L</td></tr></tbody></table></div>"
                },
                "title": "Chemistry"
              },
              {
                "code": {
                  "coding": [
                    {
                      "code": "$18729-4",
                      "system": "http://loinc.org",
                      "display": "Urinalysis studies (set)"
                    }
                  ],
                  "text": "Urinalysis"
                },
                "entry": [
                  {
                    "reference": "urn:uuid:3e760036-0bc7-4285-877f-64f5aaa4b8e5"
                  },
                  {
                    "reference": "urn:uuid:07f4bcfc-baa1-47ed-a588-98a7a15de274"
                  },
                  {
                    "reference": "urn:uuid:b97a0070-d8a0-409d-978c-6bfc490cb843"
                  },
                  {
                    "reference": "urn:uuid:e10203d4-6bad-4aa7-a5d1-8ed7ec4c57ad"
                  },
                  {
                    "reference": "urn:uuid:cdad3a2a-4402-486f-88c5-3e09e3535332"
                  },
                  {
                    "reference": "urn:uuid:314fea5e-18b0-414c-86e9-6244cb8e04e4"
                  },
                  {
                    "reference": "urn:uuid:0d082faa-186f-464f-aae8-e227444c48d6"
                  },
                  {
                    "reference": "urn:uuid:9e2d9e99-3093-4b8e-b4f1-e847fde37621"
                  },
                  {
                    "reference": "urn:uuid:7e078f98-b439-42ca-8faf-80f47eea72c9"
                  },
                  {
                    "reference": "urn:uuid:4bc69e13-696e-4b2e-bda0-4cb9418761a6"
                  },
                  {
                    "reference": "urn:uuid:82657d46-60fe-4001-84ea-f27741fce668"
                  },
                  {
                    "reference": "urn:uuid:f8cd8d4c-58aa-4817-830d-baf64075bf20"
                  }
                ],
                "text": {
                  "status": "generated",
                  "div": "<div xmlns=\"http://www.w3.org/1999/xhtml\"><h3>Urinalysis</h3><table class=\"hl7__eu__lab__report\"><thead><tr><th>Test</th><th>28-JUL-2022</th><th>Reference&#xA0;Range</th><th>Unit</th></tr></thead><tbody><tr><td>Glucose [Mass/volume] in Urine by Test strip</td><td><strong>1.2 H</strong></td><td>0 - 0</td><td>mg/dL</td></tr><tr><td>Glucose [Presence] in Urine by Test strip</td><td>++</td><td></td><td></td></tr><tr><td>Bilirubin.total [Mass/volume] in Urine by Test strip</td><td>1.0</td><td>0 - 1.6</td><td>mg/dL</td></tr><tr><td>Bilirubin.total [Presence] in Urine by Test strip</td><td>Finding of bilirubin in urine</td><td></td><td></td></tr><tr><td>Ketones [Mass/volume] in Urine by Test strip</td><td><strong>18.6 H</strong></td><td>0 - 0.5</td><td>mg/dL</td></tr><tr><td>Specific gravity of Urine by Test strip</td><td><strong>1.0 L</strong></td><td>1.005 - 1.03</td><td>{nominal}</td></tr><tr><td>pH of Urine by Test strip</td><td>5.5</td><td>4.5 - 7.5</td><td>pH</td></tr><tr><td>Protein [Mass/volume] in Urine by Test strip</td><td><strong>184.7 H</strong></td><td>0 - 15</td><td>mg/dL</td></tr><tr><td>Protein [Presence] in Urine by Test strip</td><td>Urine protein test = ++</td><td></td><td></td></tr><tr><td>Nitrite [Presence] in Urine by Test strip</td><td>Urine nitrite negative</td><td></td><td></td></tr><tr><td>Hemoglobin [Presence] in Urine by Test strip</td><td>Urine blood test = negative</td><td></td><td></td></tr><tr><td>Leukocyte esterase [Presence] in Urine by Test strip</td><td>Urine leukocyte test negative</td><td></td><td></td></tr></tbody></table></div>"
                },
                "title": "Urinalysis"
              },
              {
                "code": {
                  "coding": [
                    {
                      "code": "$LP7846-1",
                      "system": "http://loinc.org",
                      "display": "Specimen information"
                    }
                  ],
                  "text": "Specimen information"
                },
                "entry": [
                  {
                    "reference": "urn:uuid:e34a0ffe-d815-4279-84fb-b8aad2623b56"
                  },
                  {
                    "reference": "urn:uuid:f54ee49b-6f42-4a9a-b2e5-fedaf5f1a4b0"
                  },
                  {
                    "reference": "urn:uuid:33d4031f-dc7d-4bc6-a3a7-e45c7490e691"
                  },
                  {
                    "reference": "urn:uuid:321e8cc3-c9de-4849-9c61-130586fb9b58"
                  }
                ],
                "text": {
                  "status": "generated",
                  "div": "<div xmlns=\"http://www.w3.org/1999/xhtml\"><h3>Specimen information</h3><table class=\"hl7__eu__lab__report\"><thead><tr><th>Test</th><th>28-JUL-2022</th><th>Specimen</th><th></th></tr></thead><tbody><tr><td>Appearance of Urine</td><td>Cloudy urine</td><td>Urine</td><td></td></tr><tr><td>Odor of Urine</td><td>Urine smell ammoniacal</td><td>Urine</td><td></td></tr><tr><td>Clarity of Urine</td><td>Translucent</td><td>Urine</td><td></td></tr><tr><td>Color of Urine</td><td>Brown color</td><td>Urine</td><td></td></tr></tbody></table></div>"
                },
                "title": "Specimen information"
              }
            ],
            "title": "Laboratory Report"
          },
          {
            "text": {
              "status": "generated",
              "div": "<div xmlns=\"http://www.w3.org/1999/xhtml\"><h3>Annotation</h3><table class=\"hl7__eu__lab__report\"><tr><th>Conclusion and Recommendations based on this report and previous findings known to us</th></tr><tr><td>The patient shows elevated creatinine, significant proteinuria, glycosuria, and ketonuria, with low urine specific gravity and brown, cloudy urine. These findings suggest impaired renal function, possible nephrotic syndrome or diabetic ketoacidosis, though HbA1c is unexpectedly low. No evidence of urinary tract infection. Further clinical correlation and nephrology evaluation are recommended.</td></tr></table></div>"
            },
            "code": {
              "coding": [
                {
                  "system": "http://loinc.org",
                  "code": "48767-8",
                  "display": "Annotation comment"
                }
              ]
            },
            "title": "Annotation comment"
          }
        ],
        "status": "final",
        "subject": {
          "reference": "urn:uuid:b29a14ef-98f6-4165-b83f-0a47eab2b375",
          "display": "Molly Jenkins"
        },
        "date": "2022-07-28T16:42:11Z",
        "title": "Laboratory Report",
        "confidentiality": "N"
      }
    },
    {
      "fullUrl": "urn:uuid:f0adab8d-d667-4048-b740-cc2ba7e5332e",
      "resource": {
        "resourceType": "DiagnosticReport",
        "id": "f0adab8d-d667-4048-b740-cc2ba7e5332e",
        "meta": {
          "profile": [
            "http://hl7.eu/fhir/laboratory/StructureDefinition/DiagnosticReport-eu-lab"
          ]
        },
        "identifier": [
          {
            "assigner": {
              "display": "HL7 Europe"
            },
            "system": "urn:oid:2.16.840.1.113883.2.51.999",
            "value": "69a1dd31-5f2b-42ad-aea1-9f2ddcf02e85"
          }
        ],
        "extension": [
          {
            "url": "http://hl7.org/fhir/5.0/StructureDefinition/extension-DiagnosticReport.composition",
            "valueReference": {
              "reference": "urn:uuid:daab486e-a618-4863-be3d-ef650d402bb2"
            }
          }
        ],
        "category": [
          {
            "coding": [
              {
                "code": "26436-6",
                "system": "http://loinc.org",
                "display": "Laboratory studies (set)"
              }
            ]
          }
        ],
        "specimen": [
          {
            "reference": "urn:uuid:95afe494-e45c-49cd-90ce-4693263782d7"
          },
          {
            "reference": "urn:uuid:8e41d3d4-d375-42fd-bba3-18c33211dd05"
          },
          {
            "reference": "urn:uuid:7a45f17a-fe0a-4528-93e0-42f0a773fe89"
          }
        ],
        "result": [
          {
            "reference": "urn:uuid:52432868-d184-427f-bbe4-eb031aa07b25"
          },
          {
            "reference": "urn:uuid:19d0970b-0929-4f17-b84b-88addda9599f"
          },
          {
            "reference": "urn:uuid:86f43303-f8db-45a2-9598-f3e47d08a4ae"
          },
          {
            "reference": "urn:uuid:405048cc-9b9f-417b-a774-adae4621517a"
          },
          {
            "reference": "urn:uuid:572a0a02-b10e-4317-842c-530205f11b67"
          },
          {
            "reference": "urn:uuid:141eeb11-19a8-445f-9bab-fc97c7517485"
          },
          {
            "reference": "urn:uuid:7b288762-b5f2-45f7-bf66-5df124484f63"
          },
          {
            "reference": "urn:uuid:e6219f52-fb37-48c5-a66c-a49642ec839c"
          },
          {
            "reference": "urn:uuid:e34a0ffe-d815-4279-84fb-b8aad2623b56"
          },
          {
            "reference": "urn:uuid:f54ee49b-6f42-4a9a-b2e5-fedaf5f1a4b0"
          },
          {
            "reference": "urn:uuid:33d4031f-dc7d-4bc6-a3a7-e45c7490e691"
          },
          {
            "reference": "urn:uuid:321e8cc3-c9de-4849-9c61-130586fb9b58"
          },
          {
            "reference": "urn:uuid:3e760036-0bc7-4285-877f-64f5aaa4b8e5"
          },
          {
            "reference": "urn:uuid:07f4bcfc-baa1-47ed-a588-98a7a15de274"
          },
          {
            "reference": "urn:uuid:b97a0070-d8a0-409d-978c-6bfc490cb843"
          },
          {
            "reference": "urn:uuid:e10203d4-6bad-4aa7-a5d1-8ed7ec4c57ad"
          },
          {
            "reference": "urn:uuid:cdad3a2a-4402-486f-88c5-3e09e3535332"
          },
          {
            "reference": "urn:uuid:a3379d81-f8bc-46b9-87c3-fb8ab2012103"
          },
          {
            "reference": "urn:uuid:314fea5e-18b0-414c-86e9-6244cb8e04e4"
          },
          {
            "reference": "urn:uuid:0d082faa-186f-464f-aae8-e227444c48d6"
          },
          {
            "reference": "urn:uuid:9e2d9e99-3093-4b8e-b4f1-e847fde37621"
          },
          {
            "reference": "urn:uuid:7e078f98-b439-42ca-8faf-80f47eea72c9"
          },
          {
            "reference": "urn:uuid:4bc69e13-696e-4b2e-bda0-4cb9418761a6"
          },
          {
            "reference": "urn:uuid:82657d46-60fe-4001-84ea-f27741fce668"
          },
          {
            "reference": "urn:uuid:f8cd8d4c-58aa-4817-830d-baf64075bf20"
          },
          {
            "reference": "urn:uuid:9ff52896-6504-4a52-961f-500654a02572"
          },
          {
            "reference": "urn:uuid:36152804-1632-4ef8-acf3-62fce9b8695d"
          },
          {
            "reference": "urn:uuid:bdf22bdf-6ab4-4c53-b092-dc95072c0ce2"
          },
          {
            "reference": "urn:uuid:c42bc0df-391f-4dd2-8001-88830afe184d"
          },
          {
            "reference": "urn:uuid:534afe8c-129f-4b37-bbb1-3ec3b4d5d81b"
          },
          {
            "reference": "urn:uuid:5972d4c8-8da5-4f70-8a23-893b17a15037"
          },
          {
            "reference": "urn:uuid:81c9e28b-a9e2-4efd-975e-c70e52d72ebe"
          },
          {
            "reference": "urn:uuid:1edc91f5-b2c0-4c89-8580-378ceb3888cd"
          },
          {
            "reference": "urn:uuid:c594d588-33c3-42ed-8075-829e84f8e771"
          }
        ],
        "status": "registered",
        "code": {
          "coding": [
            {
              "code": "11502-2",
              "system": "http://loinc.org",
              "display": "Laboratory report"
            }
          ]
        },
        "subject": {
          "reference": "urn:uuid:b29a14ef-98f6-4165-b83f-0a47eab2b375",
          "display": "Molly Jenkins"
        }
      }
    },
    {
      "fullUrl": "urn:uuid:b29a14ef-98f6-4165-b83f-0a47eab2b375",
      "resource": {
        "resourceType": "Patient",
        "id": "b29a14ef-98f6-4165-b83f-0a47eab2b375",
        "meta": {
          "security": [
            {
              "system": "http://terminology.hl7.org/CodeSystem/v3-ActReason",
              "code": "HTEST"
            },
            {
              "system": "http://terminology.hl7.org/CodeSystem/v3-ActReason",
              "code": "TRAIN"
            }
          ],
          "tag": [
            {
              "system": "https://synderai.net/fhir/CodeSystem/tags",
              "code": "synthetic",
              "display": "SYNDERAI Synthetic data"
            }
          ],
          "profile": [
            "http://hl7.eu/fhir/base/StructureDefinition/patient-eu-core"
          ]
        },
        "identifier": [
          {
            "type": {
              "coding": [
                {
                  "code": "PT",
                  "system": "http://terminology.hl7.org/CodeSystem/v2-0203"
                }
              ]
            },
            "system": "http://ec.europa.eu/identifier/eci",
            "value": "7634-012682-0"
          },
          {
            "type": {
              "coding": [
                {
                  "code": "MR",
                  "system": "http://terminology.hl7.org/CodeSystem/v2-0203"
                }
              ]
            },
            "system": "http://local.setting.eu/identifier",
            "value": "9934a8eb-b6e1-34e1-edf5-57a0262d1bea"
          }
        ],
        "name": [
          {
            "family": "Jenkins"
          },
          {
            "given": [
              "Molly"
            ]
          },
          {
            "text": "Molly Jenkins"
          }
        ],
        "address": [
          {
            "line": [
              "98 Ali field"
            ],
            "use": "home",
            "type": "physical",
            "postalCode": "AB42",
            "city": "Port Jennamouth",
            "country": "United Kingdom"
          }
        ],
        "telecom": [
          {
            "system": "phone",
            "value": "(0118) 496 0334"
          }
        ],
        "extension": [
          {
            "url": "http://hl7.org/fhir/StructureDefinition/patient-nationality",
            "valueCodeableConcept": {
              "coding": [
                {
                  "code": "GB",
                  "system": "http://hl7.org/fhir/ValueSet/country"
                }
              ]
            }
          }
        ],
        "text": {
          "status": "generated",
          "div": "<div xmlns=\"http://www.w3.org/1999/xhtml\"><table class=\"hl7__ips\"><tr><td>Molly Jenkins</td><td>female</td><td>14-Aug-1967</td></tr></table></div>"
        },
        "gender": "female",
        "birthDate": "1967-08-14"
      }
    },
    {
      "fullUrl": "urn:uuid:a28d283f-06d0-49f8-a39f-ad70da5104da",
      "resource": {
        "resourceType": "ServiceRequest",
        "id": "a28d283f-06d0-49f8-a39f-ad70da5104da",
        "meta": {
          "profile": [
            "http://hl7.eu/fhir/laboratory/StructureDefinition/ServiceRequest-eu-lab"
          ]
        },
        "identifier": [
          {
            "system": "http://example.org",
            "value": "fd8d0ae8-4e80-41a6-980a-9d27b683ea62"
          }
        ],
        "specimen": [
          {
            "reference": "urn:uuid:95afe494-e45c-49cd-90ce-4693263782d7"
          },
          {
            "reference": "urn:uuid:8e41d3d4-d375-42fd-bba3-18c33211dd05"
          },
          {
            "reference": "urn:uuid:7a45f17a-fe0a-4528-93e0-42f0a773fe89"
          }
        ],
        "reasonCode": [
          {
            "coding": [
              {
                "code": "431856006",
                "system": "http://snomed.info/sct",
                "display": "Chronic kidney disease stage 2"
              }
            ]
          },
          {
            "coding": [
              {
                "code": "90781000119102",
                "system": "http://snomed.info/sct",
                "display": "Microalbuminuria due to type 2 diabetes mellitus"
              }
            ]
          },
          {
            "coding": [
              {
                "code": "127013003",
                "system": "http://snomed.info/sct",
                "display": "Disorder of kidney due to diabetes mellitus"
              }
            ]
          },
          {
            "coding": [
              {
                "code": "431855005",
                "system": "http://snomed.info/sct",
                "display": "Chronic kidney disease stage 1"
              }
            ]
          },
          {
            "coding": [
              {
                "code": "15777000",
                "system": "http://snomed.info/sct",
                "display": "Prediabetes"
              }
            ]
          },
          {
            "coding": [
              {
                "code": "59621000",
                "system": "http://snomed.info/sct",
                "display": "Essential hypertension"
              }
            ]
          },
          {
            "coding": [
              {
                "code": "53827007",
                "system": "http://snomed.info/sct",
                "display": "Excessive salivation"
              }
            ]
          },
          {
            "coding": [
              {
                "code": "64859006",
                "system": "http://snomed.info/sct",
                "display": "Osteoporosis"
              }
            ]
          },
          {
            "coding": [
              {
                "code": "128188000",
                "system": "http://snomed.info/sct",
                "display": "Cerebral palsy"
              }
            ]
          },
          {
            "coding": [
              {
                "code": "235595009",
                "system": "http://snomed.info/sct",
                "display": "Gastroesophageal reflux disease"
              }
            ]
          }
        ],
        "status": "active",
        "intent": "order",
        "code": {
          "coding": [
            {
              "code": "108252007",
              "system": "http://snomed.info/sct",
              "display": "Laboratory procedure"
            }
          ]
        },
        "subject": {
          "reference": "urn:uuid:b29a14ef-98f6-4165-b83f-0a47eab2b375",
          "display": "Molly Jenkins"
        },
        "requester": {
          "reference": "urn:uuid:fa3834e0-2a05-4c55-a573-eeeb7759a06c"
        }
      }
    },
    {
      "fullUrl": "urn:uuid:fa3834e0-2a05-4c55-a573-eeeb7759a06c",
      "resource": {
        "resourceType": "PractitionerRole",
        "id": "fa3834e0-2a05-4c55-a573-eeeb7759a06c",
        "meta": {
          "profile": [
            "http://hl7.eu/fhir/base/StructureDefinition/practitionerRole-eu"
          ]
        },
        "text": {
          "status": "generated",
          "div": "<div xmlns=\"http://www.w3.org/1999/xhtml\">Provider Role Id: fa3834e0-2a05-4c55-a573-eeeb7759a06c</div>"
        },
        "organization": {
          "reference": "urn:uuid:f6be2243-a030-45dc-b17c-86bc163d992d"
        }
      }
    },
    {
      "fullUrl": "urn:uuid:f6be2243-a030-45dc-b17c-86bc163d992d",
      "resource": {
        "resourceType": "Organization",
        "id": "f6be2243-a030-45dc-b17c-86bc163d992d",
        "meta": {
          "profile": [
            "http://hl7.eu/fhir/base/StructureDefinition/organization-eu"
          ]
        },
        "identifier": [
          {
            "assigner": {
              "display": "HL7 Europe"
            },
            "system": "urn:oid:2.16.840.1.113883.2.51.999",
            "value": "62406699-c504-46cd-ac21-f09729b8a2e9"
          }
        ],
        "address": [
          {
            "city": "Aberdeen",
            "postalCode": "AB11 6",
            "country": "United Kingdom"
          }
        ],
        "text": {
          "status": "generated",
          "div": "<div xmlns=\"http://www.w3.org/1999/xhtml\">Provider Organization: Aberdeen Community Health and Care Village</div>"
        },
        "name": "Aberdeen Community Health and Care Village"
      }
    },
    {
      "fullUrl": "urn:uuid:95afe494-e45c-49cd-90ce-4693263782d7",
      "resource": {
        "resourceType": "Specimen",
        "id": "95afe494-e45c-49cd-90ce-4693263782d7",
        "meta": {
          "profile": [
            "http://hl7.eu/fhir/laboratory/StructureDefinition/Specimen-eu-lab"
          ]
        },
        "collection": {
          "collectedDateTime": "2022-07-28"
        },
        "text": {
          "status": "generated",
          "div": "<div xmlns=\"http://www.w3.org/1999/xhtml\"><table class=\"hl7__eu__lab__report\"><tr><th>Specimen</th><th>Collection Date</th></tr><tr><td>Acellular blood (serum or plasma) specimen</td><td><span class=\"nb\">28-Jul-2022</span></td></tr></table></div>"
        },
        "type": {
          "coding": [
            {
              "code": "122592007",
              "system": "http://snomed.info/sct",
              "display": "Acellular blood (serum or plasma) specimen"
            }
          ]
        }
      }
    },
    {
      "fullUrl": "urn:uuid:8e41d3d4-d375-42fd-bba3-18c33211dd05",
      "resource": {
        "resourceType": "Specimen",
        "id": "8e41d3d4-d375-42fd-bba3-18c33211dd05",
        "meta": {
          "profile": [
            "http://hl7.eu/fhir/laboratory/StructureDefinition/Specimen-eu-lab"
          ]
        },
        "collection": {
          "collectedDateTime": "2022-07-28"
        },
        "text": {
          "status": "generated",
          "div": "<div xmlns=\"http://www.w3.org/1999/xhtml\"><table class=\"hl7__eu__lab__report\"><tr><th>Specimen</th><th>Collection Date</th></tr><tr><td>Urine specimen</td><td><span class=\"nb\">28-Jul-2022</span></td></tr></table></div>"
        },
        "type": {
          "coding": [
            {
              "code": "122575003",
              "system": "http://snomed.info/sct",
              "display": "Urine specimen"
            }
          ]
        }
      }
    },
    {
      "fullUrl": "urn:uuid:7a45f17a-fe0a-4528-93e0-42f0a773fe89",
      "resource": {
        "resourceType": "Specimen",
        "id": "7a45f17a-fe0a-4528-93e0-42f0a773fe89",
        "meta": {
          "profile": [
            "http://hl7.eu/fhir/laboratory/StructureDefinition/Specimen-eu-lab"
          ]
        },
        "collection": {
          "collectedDateTime": "2022-07-28"
        },
        "text": {
          "status": "generated",
          "div": "<div xmlns=\"http://www.w3.org/1999/xhtml\"><table class=\"hl7__eu__lab__report\"><tr><th>Specimen</th><th>Collection Date</th></tr><tr><td>Whole blood specimen (specimen)</td><td><span class=\"nb\">28-Jul-2022</span></td></tr></table></div>"
        },
        "type": {
          "coding": [
            {
              "code": "258580003",
              "system": "http://snomed.info/sct",
              "display": "Whole blood specimen (specimen)"
            }
          ]
        }
      }
    },
    {
      "fullUrl": "urn:uuid:52432868-d184-427f-bbe4-eb031aa07b25",
      "resource": {
        "resourceType": "Observation",
        "id": "52432868-d184-427f-bbe4-eb031aa07b25",
        "meta": {
          "profile": [
            "http://hl7.eu/fhir/laboratory/StructureDefinition/Observation-resultslab-eu-lab"
          ]
        },
        "performer": [
          {
            "display": "The Central European Lab"
          }
        ],
        "category": [
          {
            "coding": [
              {
                "system": "http://terminology.hl7.org/CodeSystem/observation-category",
                "code": "laboratory"
              }
            ]
          }
        ],
        "code": {
          "coding": [
            {
              "code": "2345-7",
              "system": "http://loinc.org",
              "display": "Glucose [Mass/volume] in Serum or Plasma"
            }
          ],
          "text": "Glucose [Mass/volume] in Serum or Plasma"
        },
        "valueQuantity": {
          "system": "http://unitsofmeasure.org",
          "value": 99.7,
          "unit": "mg/dL",
          "code": "mg/dL"
        },
        "referenceRange": [
          {
            "low": {
              "value": 70,
              "code": "mg/dL",
              "system": "http://unitsofmeasure.org"
            }
          },
          {
            "high": {
              "value": 139,
              "code": "mg/dL",
              "system": "http://unitsofmeasure.org"
            }
          }
        ],
        "text": {
          "status": "generated",
          "div": "<div xmlns=\"http://www.w3.org/1999/xhtml\"><table class=\"hl7__eu__lab__report\"><tr><th>Test</th><th>28-Jul-2022</th><th>Reference&#xA0;Range</th><th>Unit</th></tr><tr><td>Glucose [Mass/volume] in Serum or Plasma</td><td>99.7</td><td>70 - 139</td><td></td><td>mg/dL</td></tr></table></div>"
        },
        "status": "final",
        "subject": {
          "reference": "urn:uuid:b29a14ef-98f6-4165-b83f-0a47eab2b375",
          "display": "Molly Jenkins"
        },
        "effectiveDateTime": "2022-07-28T14:42:11Z",
        "specimen": {
          "reference": "urn:uuid:95afe494-e45c-49cd-90ce-4693263782d7"
        }
      }
    },
    {
      "fullUrl": "urn:uuid:19d0970b-0929-4f17-b84b-88addda9599f",
      "resource": {
        "resourceType": "Observation",
        "id": "19d0970b-0929-4f17-b84b-88addda9599f",
        "meta": {
          "profile": [
            "http://hl7.eu/fhir/laboratory/StructureDefinition/Observation-resultslab-eu-lab"
          ]
        },
        "performer": [
          {
            "display": "The Central European Lab"
          }
        ],
        "category": [
          {
            "coding": [
              {
                "system": "http://terminology.hl7.org/CodeSystem/observation-category",
                "code": "laboratory"
              }
            ]
          }
        ],
        "code": {
          "coding": [
            {
              "code": "3094-0",
              "system": "http://loinc.org",
              "display": "Urea nitrogen [Mass/volume] in Serum or Plasma"
            }
          ],
          "text": "Urea nitrogen [Mass/volume] in Serum or Plasma"
        },
        "valueQuantity": {
          "system": "http://unitsofmeasure.org",
          "value": 11.5,
          "unit": "mg/dL",
          "code": "mg/dL"
        },
        "referenceRange": [
          {
            "low": {
              "value": 7,
              "code": "mg/dL",
              "system": "http://unitsofmeasure.org"
            }
          },
          {
            "high": {
              "value": 20,
              "code": "mg/dL",
              "system": "http://unitsofmeasure.org"
            }
          }
        ],
        "text": {
          "status": "generated",
          "div": "<div xmlns=\"http://www.w3.org/1999/xhtml\"><table class=\"hl7__eu__lab__report\"><tr><th>Test</th><th>28-Jul-2022</th><th>Reference&#xA0;Range</th><th>Unit</th></tr><tr><td>Urea nitrogen [Mass/volume] in Serum or Plasma</td><td>11.5</td><td>7 - 20</td><td></td><td>mg/dL</td></tr></table></div>"
        },
        "status": "final",
        "subject": {
          "reference": "urn:uuid:b29a14ef-98f6-4165-b83f-0a47eab2b375",
          "display": "Molly Jenkins"
        },
        "effectiveDateTime": "2022-07-28T14:42:11Z",
        "specimen": {
          "reference": "urn:uuid:95afe494-e45c-49cd-90ce-4693263782d7"
        }
      }
    },
    {
      "fullUrl": "urn:uuid:86f43303-f8db-45a2-9598-f3e47d08a4ae",
      "resource": {
        "resourceType": "Observation",
        "id": "86f43303-f8db-45a2-9598-f3e47d08a4ae",
        "meta": {
          "profile": [
            "http://hl7.eu/fhir/laboratory/StructureDefinition/Observation-resultslab-eu-lab"
          ]
        },
        "performer": [
          {
            "display": "The Central European Lab"
          }
        ],
        "category": [
          {
            "coding": [
              {
                "system": "http://terminology.hl7.org/CodeSystem/observation-category",
                "code": "laboratory"
              }
            ]
          }
        ],
        "code": {
          "coding": [
            {
              "code": "2160-0",
              "system": "http://loinc.org",
              "display": "Creatinine [Mass/volume] in Serum or Plasma"
            }
          ],
          "text": "Creatinine [Mass/volume] in Serum or Plasma"
        },
        "valueQuantity": {
          "system": "http://unitsofmeasure.org",
          "value": 1.9,
          "unit": "mg/dL",
          "code": "mg/dL"
        },
        "referenceRange": [
          {
            "low": {
              "value": 0.6,
              "code": "mg/dL",
              "system": "http://unitsofmeasure.org"
            }
          },
          {
            "high": {
              "value": 1.1,
              "code": "mg/dL",
              "system": "http://unitsofmeasure.org"
            }
          }
        ],
        "interpretation": [
          {
            "coding": [
              {
                "code": "H",
                "system": "http://terminology.hl7.org/CodeSystem/v3-ObservationInterpretation",
                "display": "High"
              }
            ]
          }
        ],
        "text": {
          "status": "generated",
          "div": "<div xmlns=\"http://www.w3.org/1999/xhtml\"><table class=\"hl7__eu__lab__report\"><tr><th>Test</th><th>28-Jul-2022</th><th>Reference&#xA0;Range</th><th>Unit</th></tr><tr><td>Creatinine [Mass/volume] in Serum or Plasma</td><td>1.9</td><td>0.6 - 1.1</td><td>H</td><td>mg/dL</td></tr></table></div>"
        },
        "status": "final",
        "subject": {
          "reference": "urn:uuid:b29a14ef-98f6-4165-b83f-0a47eab2b375",
          "display": "Molly Jenkins"
        },
        "effectiveDateTime": "2022-07-28T14:42:11Z",
        "specimen": {
          "reference": "urn:uuid:95afe494-e45c-49cd-90ce-4693263782d7"
        }
      }
    },
    {
      "fullUrl": "urn:uuid:405048cc-9b9f-417b-a774-adae4621517a",
      "resource": {
        "resourceType": "Observation",
        "id": "405048cc-9b9f-417b-a774-adae4621517a",
        "meta": {
          "profile": [
            "http://hl7.eu/fhir/laboratory/StructureDefinition/Observation-resultslab-eu-lab"
          ]
        },
        "performer": [
          {
            "display": "The Central European Lab"
          }
        ],
        "category": [
          {
            "coding": [
              {
                "system": "http://terminology.hl7.org/CodeSystem/observation-category",
                "code": "laboratory"
              }
            ]
          }
        ],
        "code": {
          "coding": [
            {
              "code": "17861-6",
              "system": "http://loinc.org",
              "display": "Calcium [Mass/volume] in Serum or Plasma"
            }
          ],
          "text": "Calcium [Mass/volume] in Serum or Plasma"
        },
        "valueQuantity": {
          "system": "http://unitsofmeasure.org",
          "value": 9.3,
          "unit": "mg/dL",
          "code": "mg/dL"
        },
        "referenceRange": [
          {
            "low": {
              "value": 8.5,
              "code": "mg/dL",
              "system": "http://unitsofmeasure.org"
            }
          },
          {
            "high": {
              "value": 10.4,
              "code": "mg/dL",
              "system": "http://unitsofmeasure.org"
            }
          }
        ],
        "text": {
          "status": "generated",
          "div": "<div xmlns=\"http://www.w3.org/1999/xhtml\"><table class=\"hl7__eu__lab__report\"><tr><th>Test</th><th>28-Jul-2022</th><th>Reference&#xA0;Range</th><th>Unit</th></tr><tr><td>Calcium [Mass/volume] in Serum or Plasma</td><td>9.3</td><td>8.5 - 10.4</td><td></td><td>mg/dL</td></tr></table></div>"
        },
        "status": "final",
        "subject": {
          "reference": "urn:uuid:b29a14ef-98f6-4165-b83f-0a47eab2b375",
          "display": "Molly Jenkins"
        },
        "effectiveDateTime": "2022-07-28T14:42:11Z",
        "specimen": {
          "reference": "urn:uuid:95afe494-e45c-49cd-90ce-4693263782d7"
        }
      }
    },
    {
      "fullUrl": "urn:uuid:572a0a02-b10e-4317-842c-530205f11b67",
      "resource": {
        "resourceType": "Observation",
        "id": "572a0a02-b10e-4317-842c-530205f11b67",
        "meta": {
          "profile": [
            "http://hl7.eu/fhir/laboratory/StructureDefinition/Observation-resultslab-eu-lab"
          ]
        },
        "performer": [
          {
            "display": "The Central European Lab"
          }
        ],
        "category": [
          {
            "coding": [
              {
                "system": "http://terminology.hl7.org/CodeSystem/observation-category",
                "code": "laboratory"
              }
            ]
          }
        ],
        "code": {
          "coding": [
            {
              "code": "2951-2",
              "system": "http://loinc.org",
              "display": "Sodium [Moles/volume] in Serum or Plasma"
            }
          ],
          "text": "Sodium [Moles/volume] in Serum or Plasma"
        },
        "valueQuantity": {
          "system": "http://unitsofmeasure.org",
          "value": 142.8,
          "unit": "mmol/L",
          "code": "mmol/L"
        },
        "referenceRange": [
          {
            "low": {
              "value": 135,
              "code": "mmol/L",
              "system": "http://unitsofmeasure.org"
            }
          },
          {
            "high": {
              "value": 145,
              "code": "mmol/L",
              "system": "http://unitsofmeasure.org"
            }
          }
        ],
        "text": {
          "status": "generated",
          "div": "<div xmlns=\"http://www.w3.org/1999/xhtml\"><table class=\"hl7__eu__lab__report\"><tr><th>Test</th><th>28-Jul-2022</th><th>Reference&#xA0;Range</th><th>Unit</th></tr><tr><td>Sodium [Moles/volume] in Serum or Plasma</td><td>142.8</td><td>135 - 145</td><td></td><td>mmol/L</td></tr></table></div>"
        },
        "status": "final",
        "subject": {
          "reference": "urn:uuid:b29a14ef-98f6-4165-b83f-0a47eab2b375",
          "display": "Molly Jenkins"
        },
        "effectiveDateTime": "2022-07-28T14:42:11Z",
        "specimen": {
          "reference": "urn:uuid:95afe494-e45c-49cd-90ce-4693263782d7"
        }
      }
    },
    {
      "fullUrl": "urn:uuid:141eeb11-19a8-445f-9bab-fc97c7517485",
      "resource": {
        "resourceType": "Observation",
        "id": "141eeb11-19a8-445f-9bab-fc97c7517485",
        "meta": {
          "profile": [
            "http://hl7.eu/fhir/laboratory/StructureDefinition/Observation-resultslab-eu-lab"
          ]
        },
        "performer": [
          {
            "display": "The Central European Lab"
          }
        ],
        "category": [
          {
            "coding": [
              {
                "system": "http://terminology.hl7.org/CodeSystem/observation-category",
                "code": "laboratory"
              }
            ]
          }
        ],
        "code": {
          "coding": [
            {
              "code": "2823-3",
              "system": "http://loinc.org",
              "display": "Potassium [Moles/volume] in Serum or Plasma"
            }
          ],
          "text": "Potassium [Moles/volume] in Serum or Plasma"
        },
        "valueQuantity": {
          "system": "http://unitsofmeasure.org",
          "value": 4,
          "unit": "mmol/L",
          "code": "mmol/L"
        },
        "referenceRange": [
          {
            "low": {
              "value": 3.5,
              "code": "mmol/L",
              "system": "http://unitsofmeasure.org"
            }
          },
          {
            "high": {
              "value": 5.1,
              "code": "mmol/L",
              "system": "http://unitsofmeasure.org"
            }
          }
        ],
        "text": {
          "status": "generated",
          "div": "<div xmlns=\"http://www.w3.org/1999/xhtml\"><table class=\"hl7__eu__lab__report\"><tr><th>Test</th><th>28-Jul-2022</th><th>Reference&#xA0;Range</th><th>Unit</th></tr><tr><td>Potassium [Moles/volume] in Serum or Plasma</td><td>4.0</td><td>3.5 - 5.1</td><td></td><td>mmol/L</td></tr></table></div>"
        },
        "status": "final",
        "subject": {
          "reference": "urn:uuid:b29a14ef-98f6-4165-b83f-0a47eab2b375",
          "display": "Molly Jenkins"
        },
        "effectiveDateTime": "2022-07-28T14:42:11Z",
        "specimen": {
          "reference": "urn:uuid:95afe494-e45c-49cd-90ce-4693263782d7"
        }
      }
    },
    {
      "fullUrl": "urn:uuid:7b288762-b5f2-45f7-bf66-5df124484f63",
      "resource": {
        "resourceType": "Observation",
        "id": "7b288762-b5f2-45f7-bf66-5df124484f63",
        "meta": {
          "profile": [
            "http://hl7.eu/fhir/laboratory/StructureDefinition/Observation-resultslab-eu-lab"
          ]
        },
        "performer": [
          {
            "display": "The Central European Lab"
          }
        ],
        "category": [
          {
            "coding": [
              {
                "system": "http://terminology.hl7.org/CodeSystem/observation-category",
                "code": "laboratory"
              }
            ]
          }
        ],
        "code": {
          "coding": [
            {
              "code": "2075-0",
              "system": "http://loinc.org",
              "display": "Chloride [Moles/volume] in Serum or Plasma"
            }
          ],
          "text": "Chloride [Moles/volume] in Serum or Plasma"
        },
        "valueQuantity": {
          "system": "http://unitsofmeasure.org",
          "value": 103.5,
          "unit": "mmol/L",
          "code": "mmol/L"
        },
        "referenceRange": [
          {
            "low": {
              "value": 98,
              "code": "mmol/L",
              "system": "http://unitsofmeasure.org"
            }
          },
          {
            "high": {
              "value": 110,
              "code": "mmol/L",
              "system": "http://unitsofmeasure.org"
            }
          }
        ],
        "text": {
          "status": "generated",
          "div": "<div xmlns=\"http://www.w3.org/1999/xhtml\"><table class=\"hl7__eu__lab__report\"><tr><th>Test</th><th>28-Jul-2022</th><th>Reference&#xA0;Range</th><th>Unit</th></tr><tr><td>Chloride [Moles/volume] in Serum or Plasma</td><td>103.5</td><td>98 - 110</td><td></td><td>mmol/L</td></tr></table></div>"
        },
        "status": "final",
        "subject": {
          "reference": "urn:uuid:b29a14ef-98f6-4165-b83f-0a47eab2b375",
          "display": "Molly Jenkins"
        },
        "effectiveDateTime": "2022-07-28T14:42:11Z",
        "specimen": {
          "reference": "urn:uuid:95afe494-e45c-49cd-90ce-4693263782d7"
        }
      }
    },
    {
      "fullUrl": "urn:uuid:e6219f52-fb37-48c5-a66c-a49642ec839c",
      "resource": {
        "resourceType": "Observation",
        "id": "e6219f52-fb37-48c5-a66c-a49642ec839c",
        "meta": {
          "profile": [
            "http://hl7.eu/fhir/laboratory/StructureDefinition/Observation-resultslab-eu-lab"
          ]
        },
        "performer": [
          {
            "display": "The Central European Lab"
          }
        ],
        "category": [
          {
            "coding": [
              {
                "system": "http://terminology.hl7.org/CodeSystem/observation-category",
                "code": "laboratory"
              }
            ]
          }
        ],
        "code": {
          "coding": [
            {
              "code": "2028-9",
              "system": "http://loinc.org",
              "display": "Carbon dioxide, total [Moles/volume] in Serum or Plasma"
            }
          ],
          "text": "Carbon dioxide, total [Moles/volume] in Serum or Plasma"
        },
        "valueQuantity": {
          "system": "http://unitsofmeasure.org",
          "value": 28.6,
          "unit": "mmol/L",
          "code": "mmol/L"
        },
        "referenceRange": [
          {
            "low": {
              "value": 22,
              "code": "mmol/L",
              "system": "http://unitsofmeasure.org"
            }
          },
          {
            "high": {
              "value": 32,
              "code": "mmol/L",
              "system": "http://unitsofmeasure.org"
            }
          }
        ],
        "text": {
          "status": "generated",
          "div": "<div xmlns=\"http://www.w3.org/1999/xhtml\"><table class=\"hl7__eu__lab__report\"><tr><th>Test</th><th>28-Jul-2022</th><th>Reference&#xA0;Range</th><th>Unit</th></tr><tr><td>Carbon dioxide, total [Moles/volume] in Serum or Plasma</td><td>28.6</td><td>22 - 32</td><td></td><td>mmol/L</td></tr></table></div>"
        },
        "status": "final",
        "subject": {
          "reference": "urn:uuid:b29a14ef-98f6-4165-b83f-0a47eab2b375",
          "display": "Molly Jenkins"
        },
        "effectiveDateTime": "2022-07-28T14:42:11Z",
        "specimen": {
          "reference": "urn:uuid:95afe494-e45c-49cd-90ce-4693263782d7"
        }
      }
    },
    {
      "fullUrl": "urn:uuid:e34a0ffe-d815-4279-84fb-b8aad2623b56",
      "resource": {
        "resourceType": "Observation",
        "id": "e34a0ffe-d815-4279-84fb-b8aad2623b56",
        "meta": {
          "profile": [
            "http://hl7.eu/fhir/laboratory/StructureDefinition/Observation-resultslab-eu-lab"
          ]
        },
        "performer": [
          {
            "display": "The Central European Lab"
          }
        ],
        "category": [
          {
            "coding": [
              {
                "system": "http://terminology.hl7.org/CodeSystem/observation-category",
                "code": "laboratory"
              }
            ]
          }
        ],
        "code": {
          "coding": [
            {
              "code": "5767-9",
              "system": "http://loinc.org",
              "display": "Appearance of Urine"
            }
          ],
          "text": "Appearance of Urine"
        },
        "text": {
          "status": "generated",
          "div": "<div xmlns=\"http://www.w3.org/1999/xhtml\"><table class=\"hl7__eu__lab__report\"><tr><th>Test</th><th>28-Jul-2022</th><th>Reference&#xA0;Range</th><th>Unit</th></tr><tr><td>Appearance of Urine</td></tr></table></div>"
        },
        "status": "final",
        "subject": {
          "reference": "urn:uuid:b29a14ef-98f6-4165-b83f-0a47eab2b375",
          "display": "Molly Jenkins"
        },
        "effectiveDateTime": "2022-07-28T14:42:11Z",
        "specimen": {
          "reference": "urn:uuid:8e41d3d4-d375-42fd-bba3-18c33211dd05"
        }
      }
    },
    {
      "fullUrl": "urn:uuid:f54ee49b-6f42-4a9a-b2e5-fedaf5f1a4b0",
      "resource": {
        "resourceType": "Observation",
        "id": "f54ee49b-6f42-4a9a-b2e5-fedaf5f1a4b0",
        "meta": {
          "profile": [
            "http://hl7.eu/fhir/laboratory/StructureDefinition/Observation-resultslab-eu-lab"
          ]
        },
        "performer": [
          {
            "display": "The Central European Lab"
          }
        ],
        "category": [
          {
            "coding": [
              {
                "system": "http://terminology.hl7.org/CodeSystem/observation-category",
                "code": "laboratory"
              }
            ]
          }
        ],
        "code": {
          "coding": [
            {
              "code": "34533-0",
              "system": "http://loinc.org",
              "display": "Odor of Urine"
            }
          ],
          "text": "Odor of Urine"
        },
        "text": {
          "status": "generated",
          "div": "<div xmlns=\"http://www.w3.org/1999/xhtml\"><table class=\"hl7__eu__lab__report\"><tr><th>Test</th><th>28-Jul-2022</th><th>Reference&#xA0;Range</th><th>Unit</th></tr><tr><td>Odor of Urine</td></tr></table></div>"
        },
        "status": "final",
        "subject": {
          "reference": "urn:uuid:b29a14ef-98f6-4165-b83f-0a47eab2b375",
          "display": "Molly Jenkins"
        },
        "effectiveDateTime": "2022-07-28T14:42:11Z",
        "specimen": {
          "reference": "urn:uuid:8e41d3d4-d375-42fd-bba3-18c33211dd05"
        }
      }
    },
    {
      "fullUrl": "urn:uuid:33d4031f-dc7d-4bc6-a3a7-e45c7490e691",
      "resource": {
        "resourceType": "Observation",
        "id": "33d4031f-dc7d-4bc6-a3a7-e45c7490e691",
        "meta": {
          "profile": [
            "http://hl7.eu/fhir/laboratory/StructureDefinition/Observation-resultslab-eu-lab"
          ]
        },
        "performer": [
          {
            "display": "The Central European Lab"
          }
        ],
        "category": [
          {
            "coding": [
              {
                "system": "http://terminology.hl7.org/CodeSystem/observation-category",
                "code": "laboratory"
              }
            ]
          }
        ],
        "code": {
          "coding": [
            {
              "code": "32167-9",
              "system": "http://loinc.org",
              "display": "Clarity of Urine"
            }
          ],
          "text": "Clarity of Urine"
        },
        "text": {
          "status": "generated",
          "div": "<div xmlns=\"http://www.w3.org/1999/xhtml\"><table class=\"hl7__eu__lab__report\"><tr><th>Test</th><th>28-Jul-2022</th><th>Reference&#xA0;Range</th><th>Unit</th></tr><tr><td>Clarity of Urine</td></tr></table></div>"
        },
        "status": "final",
        "subject": {
          "reference": "urn:uuid:b29a14ef-98f6-4165-b83f-0a47eab2b375",
          "display": "Molly Jenkins"
        },
        "effectiveDateTime": "2022-07-28T14:42:11Z",
        "specimen": {
          "reference": "urn:uuid:8e41d3d4-d375-42fd-bba3-18c33211dd05"
        }
      }
    },
    {
      "fullUrl": "urn:uuid:321e8cc3-c9de-4849-9c61-130586fb9b58",
      "resource": {
        "resourceType": "Observation",
        "id": "321e8cc3-c9de-4849-9c61-130586fb9b58",
        "meta": {
          "profile": [
            "http://hl7.eu/fhir/laboratory/StructureDefinition/Observation-resultslab-eu-lab"
          ]
        },
        "performer": [
          {
            "display": "The Central European Lab"
          }
        ],
        "category": [
          {
            "coding": [
              {
                "system": "http://terminology.hl7.org/CodeSystem/observation-category",
                "code": "laboratory"
              }
            ]
          }
        ],
        "code": {
          "coding": [
            {
              "code": "5778-6",
              "system": "http://loinc.org",
              "display": "Color of Urine"
            }
          ],
          "text": "Color of Urine"
        },
        "text": {
          "status": "generated",
          "div": "<div xmlns=\"http://www.w3.org/1999/xhtml\"><table class=\"hl7__eu__lab__report\"><tr><th>Test</th><th>28-Jul-2022</th><th>Reference&#xA0;Range</th><th>Unit</th></tr><tr><td>Color of Urine</td></tr></table></div>"
        },
        "status": "final",
        "subject": {
          "reference": "urn:uuid:b29a14ef-98f6-4165-b83f-0a47eab2b375",
          "display": "Molly Jenkins"
        },
        "effectiveDateTime": "2022-07-28T14:42:11Z",
        "specimen": {
          "reference": "urn:uuid:8e41d3d4-d375-42fd-bba3-18c33211dd05"
        }
      }
    },
    {
      "fullUrl": "urn:uuid:3e760036-0bc7-4285-877f-64f5aaa4b8e5",
      "resource": {
        "resourceType": "Observation",
        "id": "3e760036-0bc7-4285-877f-64f5aaa4b8e5",
        "meta": {
          "profile": [
            "http://hl7.eu/fhir/laboratory/StructureDefinition/Observation-resultslab-eu-lab"
          ]
        },
        "performer": [
          {
            "display": "The Central European Lab"
          }
        ],
        "category": [
          {
            "coding": [
              {
                "system": "http://terminology.hl7.org/CodeSystem/observation-category",
                "code": "laboratory"
              }
            ]
          }
        ],
        "code": {
          "coding": [
            {
              "code": "5792-7",
              "system": "http://loinc.org",
              "display": "Glucose [Mass/volume] in Urine by Test strip"
            }
          ],
          "text": "Glucose [Mass/volume] in Urine by Test strip"
        },
        "valueQuantity": {
          "system": "http://unitsofmeasure.org",
          "value": 1.2,
          "unit": "mg/dL",
          "code": "mg/dL"
        },
        "referenceRange": [
          {
            "low": {
              "value": 0,
              "code": "mg/dL",
              "system": "http://unitsofmeasure.org"
            }
          },
          {
            "high": {
              "value": 0,
              "code": "mg/dL",
              "system": "http://unitsofmeasure.org"
            }
          }
        ],
        "interpretation": [
          {
            "coding": [
              {
                "code": "H",
                "system": "http://terminology.hl7.org/CodeSystem/v3-ObservationInterpretation",
                "display": "High"
              }
            ]
          }
        ],
        "text": {
          "status": "generated",
          "div": "<div xmlns=\"http://www.w3.org/1999/xhtml\"><table class=\"hl7__eu__lab__report\"><tr><th>Test</th><th>28-Jul-2022</th><th>Reference&#xA0;Range</th><th>Unit</th></tr><tr><td>Glucose [Mass/volume] in Urine by Test strip</td><td>1.2</td><td>0 - 0</td><td>H</td><td>mg/dL</td></tr></table></div>"
        },
        "status": "final",
        "subject": {
          "reference": "urn:uuid:b29a14ef-98f6-4165-b83f-0a47eab2b375",
          "display": "Molly Jenkins"
        },
        "effectiveDateTime": "2022-07-28T14:42:11Z",
        "specimen": {
          "reference": "urn:uuid:8e41d3d4-d375-42fd-bba3-18c33211dd05"
        }
      }
    },
    {
      "fullUrl": "urn:uuid:07f4bcfc-baa1-47ed-a588-98a7a15de274",
      "resource": {
        "resourceType": "Observation",
        "id": "07f4bcfc-baa1-47ed-a588-98a7a15de274",
        "meta": {
          "profile": [
            "http://hl7.eu/fhir/laboratory/StructureDefinition/Observation-resultslab-eu-lab"
          ]
        },
        "performer": [
          {
            "display": "The Central European Lab"
          }
        ],
        "category": [
          {
            "coding": [
              {
                "system": "http://terminology.hl7.org/CodeSystem/observation-category",
                "code": "laboratory"
              }
            ]
          }
        ],
        "code": {
          "coding": [
            {
              "code": "25428-4",
              "system": "http://loinc.org",
              "display": "Glucose [Presence] in Urine by Test strip"
            }
          ],
          "text": "Glucose [Presence] in Urine by Test strip"
        },
        "text": {
          "status": "generated",
          "div": "<div xmlns=\"http://www.w3.org/1999/xhtml\"><table class=\"hl7__eu__lab__report\"><tr><th>Test</th><th>28-Jul-2022</th><th>Reference&#xA0;Range</th><th>Unit</th></tr><tr><td>Glucose [Presence] in Urine by Test strip</td></tr></table></div>"
        },
        "status": "final",
        "subject": {
          "reference": "urn:uuid:b29a14ef-98f6-4165-b83f-0a47eab2b375",
          "display": "Molly Jenkins"
        },
        "effectiveDateTime": "2022-07-28T14:42:11Z",
        "specimen": {
          "reference": "urn:uuid:8e41d3d4-d375-42fd-bba3-18c33211dd05"
        }
      }
    },
    {
      "fullUrl": "urn:uuid:b97a0070-d8a0-409d-978c-6bfc490cb843",
      "resource": {
        "resourceType": "Observation",
        "id": "b97a0070-d8a0-409d-978c-6bfc490cb843",
        "meta": {
          "profile": [
            "http://hl7.eu/fhir/laboratory/StructureDefinition/Observation-resultslab-eu-lab"
          ]
        },
        "performer": [
          {
            "display": "The Central European Lab"
          }
        ],
        "category": [
          {
            "coding": [
              {
                "system": "http://terminology.hl7.org/CodeSystem/observation-category",
                "code": "laboratory"
              }
            ]
          }
        ],
        "code": {
          "coding": [
            {
              "code": "20505-4",
              "system": "http://loinc.org",
              "display": "Bilirubin.total [Mass/volume] in Urine by Test strip"
            }
          ],
          "text": "Bilirubin.total [Mass/volume] in Urine by Test strip"
        },
        "valueQuantity": {
          "system": "http://unitsofmeasure.org",
          "value": 1,
          "unit": "mg/dL",
          "code": "mg/dL"
        },
        "referenceRange": [
          {
            "low": {
              "value": 0,
              "code": "mg/dL",
              "system": "http://unitsofmeasure.org"
            }
          },
          {
            "high": {
              "value": 1.6,
              "code": "mg/dL",
              "system": "http://unitsofmeasure.org"
            }
          }
        ],
        "text": {
          "status": "generated",
          "div": "<div xmlns=\"http://www.w3.org/1999/xhtml\"><table class=\"hl7__eu__lab__report\"><tr><th>Test</th><th>28-Jul-2022</th><th>Reference&#xA0;Range</th><th>Unit</th></tr><tr><td>Bilirubin.total [Mass/volume] in Urine by Test strip</td><td>1.0</td><td>0 - 1.6</td><td></td><td>mg/dL</td></tr></table></div>"
        },
        "status": "final",
        "subject": {
          "reference": "urn:uuid:b29a14ef-98f6-4165-b83f-0a47eab2b375",
          "display": "Molly Jenkins"
        },
        "effectiveDateTime": "2022-07-28T14:42:11Z",
        "specimen": {
          "reference": "urn:uuid:8e41d3d4-d375-42fd-bba3-18c33211dd05"
        }
      }
    },
    {
      "fullUrl": "urn:uuid:e10203d4-6bad-4aa7-a5d1-8ed7ec4c57ad",
      "resource": {
        "resourceType": "Observation",
        "id": "e10203d4-6bad-4aa7-a5d1-8ed7ec4c57ad",
        "meta": {
          "profile": [
            "http://hl7.eu/fhir/laboratory/StructureDefinition/Observation-resultslab-eu-lab"
          ]
        },
        "performer": [
          {
            "display": "The Central European Lab"
          }
        ],
        "category": [
          {
            "coding": [
              {
                "system": "http://terminology.hl7.org/CodeSystem/observation-category",
                "code": "laboratory"
              }
            ]
          }
        ],
        "code": {
          "coding": [
            {
              "code": "5770-3",
              "system": "http://loinc.org",
              "display": "Bilirubin.total [Presence] in Urine by Test strip"
            }
          ],
          "text": "Bilirubin.total [Presence] in Urine by Test strip"
        },
        "text": {
          "status": "generated",
          "div": "<div xmlns=\"http://www.w3.org/1999/xhtml\"><table class=\"hl7__eu__lab__report\"><tr><th>Test</th><th>28-Jul-2022</th><th>Reference&#xA0;Range</th><th>Unit</th></tr><tr><td>Bilirubin.total [Presence] in Urine by Test strip</td></tr></table></div>"
        },
        "status": "final",
        "subject": {
          "reference": "urn:uuid:b29a14ef-98f6-4165-b83f-0a47eab2b375",
          "display": "Molly Jenkins"
        },
        "effectiveDateTime": "2022-07-28T14:42:11Z",
        "specimen": {
          "reference": "urn:uuid:8e41d3d4-d375-42fd-bba3-18c33211dd05"
        }
      }
    },
    {
      "fullUrl": "urn:uuid:cdad3a2a-4402-486f-88c5-3e09e3535332",
      "resource": {
        "resourceType": "Observation",
        "id": "cdad3a2a-4402-486f-88c5-3e09e3535332",
        "meta": {
          "profile": [
            "http://hl7.eu/fhir/laboratory/StructureDefinition/Observation-resultslab-eu-lab"
          ]
        },
        "performer": [
          {
            "display": "The Central European Lab"
          }
        ],
        "category": [
          {
            "coding": [
              {
                "system": "http://terminology.hl7.org/CodeSystem/observation-category",
                "code": "laboratory"
              }
            ]
          }
        ],
        "code": {
          "coding": [
            {
              "code": "5797-6",
              "system": "http://loinc.org",
              "display": "Ketones [Mass/volume] in Urine by Test strip"
            }
          ],
          "text": "Ketones [Mass/volume] in Urine by Test strip"
        },
        "valueQuantity": {
          "system": "http://unitsofmeasure.org",
          "value": 18.6,
          "unit": "mg/dL",
          "code": "mg/dL"
        },
        "referenceRange": [
          {
            "low": {
              "value": 0,
              "code": "mg/dL",
              "system": "http://unitsofmeasure.org"
            }
          },
          {
            "high": {
              "value": 0.5,
              "code": "mg/dL",
              "system": "http://unitsofmeasure.org"
            }
          }
        ],
        "interpretation": [
          {
            "coding": [
              {
                "code": "H",
                "system": "http://terminology.hl7.org/CodeSystem/v3-ObservationInterpretation",
                "display": "High"
              }
            ]
          }
        ],
        "text": {
          "status": "generated",
          "div": "<div xmlns=\"http://www.w3.org/1999/xhtml\"><table class=\"hl7__eu__lab__report\"><tr><th>Test</th><th>28-Jul-2022</th><th>Reference&#xA0;Range</th><th>Unit</th></tr><tr><td>Ketones [Mass/volume] in Urine by Test strip</td><td>18.6</td><td>0 - 0.5</td><td>H</td><td>mg/dL</td></tr></table></div>"
        },
        "status": "final",
        "subject": {
          "reference": "urn:uuid:b29a14ef-98f6-4165-b83f-0a47eab2b375",
          "display": "Molly Jenkins"
        },
        "effectiveDateTime": "2022-07-28T14:42:11Z",
        "specimen": {
          "reference": "urn:uuid:8e41d3d4-d375-42fd-bba3-18c33211dd05"
        }
      }
    },
    {
      "fullUrl": "urn:uuid:a3379d81-f8bc-46b9-87c3-fb8ab2012103",
      "resource": {
        "resourceType": "Observation",
        "id": "a3379d81-f8bc-46b9-87c3-fb8ab2012103",
        "meta": {
          "profile": [
            "http://hl7.eu/fhir/laboratory/StructureDefinition/Observation-resultslab-eu-lab"
          ]
        },
        "performer": [
          {
            "display": "The Central European Lab"
          }
        ],
        "category": [
          {
            "coding": [
              {
                "system": "http://terminology.hl7.org/CodeSystem/observation-category",
                "code": "laboratory"
              }
            ]
          }
        ],
        "code": {
          "coding": [
            {
              "code": "2514-8",
              "system": "http://loinc.org",
              "display": "Ketones [Presence] in Urine by Test strip"
            }
          ],
          "text": "Ketones [Presence] in Urine by Test strip"
        },
        "text": {
          "status": "generated",
          "div": "<div xmlns=\"http://www.w3.org/1999/xhtml\"><table class=\"hl7__eu__lab__report\"><tr><th>Test</th><th>28-Jul-2022</th><th>Reference&#xA0;Range</th><th>Unit</th></tr><tr><td>Ketones [Presence] in Urine by Test strip</td></tr></table></div>"
        },
        "status": "final",
        "subject": {
          "reference": "urn:uuid:b29a14ef-98f6-4165-b83f-0a47eab2b375",
          "display": "Molly Jenkins"
        },
        "effectiveDateTime": "2022-07-28T14:42:11Z",
        "specimen": {
          "reference": "urn:uuid:8e41d3d4-d375-42fd-bba3-18c33211dd05"
        }
      }
    },
    {
      "fullUrl": "urn:uuid:314fea5e-18b0-414c-86e9-6244cb8e04e4",
      "resource": {
        "resourceType": "Observation",
        "id": "314fea5e-18b0-414c-86e9-6244cb8e04e4",
        "meta": {
          "profile": [
            "http://hl7.eu/fhir/laboratory/StructureDefinition/Observation-resultslab-eu-lab"
          ]
        },
        "performer": [
          {
            "display": "The Central European Lab"
          }
        ],
        "category": [
          {
            "coding": [
              {
                "system": "http://terminology.hl7.org/CodeSystem/observation-category",
                "code": "laboratory"
              }
            ]
          }
        ],
        "code": {
          "coding": [
            {
              "code": "5811-5",
              "system": "http://loinc.org",
              "display": "Specific gravity of Urine by Test strip"
            }
          ],
          "text": "Specific gravity of Urine by Test strip"
        },
        "valueQuantity": {
          "system": "http://unitsofmeasure.org",
          "value": 1,
          "unit": "{nominal}",
          "code": "{nominal}"
        },
        "referenceRange": [
          {
            "low": {
              "value": 1.005,
              "code": "g/mL",
              "system": "http://unitsofmeasure.org"
            }
          },
          {
            "high": {
              "value": 1.03,
              "code": "g/mL",
              "system": "http://unitsofmeasure.org"
            }
          }
        ],
        "interpretation": [
          {
            "coding": [
              {
                "code": "L",
                "system": "http://terminology.hl7.org/CodeSystem/v3-ObservationInterpretation",
                "display": "Low"
              }
            ]
          }
        ],
        "text": {
          "status": "generated",
          "div": "<div xmlns=\"http://www.w3.org/1999/xhtml\"><table class=\"hl7__eu__lab__report\"><tr><th>Test</th><th>28-Jul-2022</th><th>Reference&#xA0;Range</th><th>Unit</th></tr><tr><td>Specific gravity of Urine by Test strip</td><td>1.0</td><td>1.005 - 1.03</td><td>L</td><td>{nominal}</td></tr></table></div>"
        },
        "status": "final",
        "subject": {
          "reference": "urn:uuid:b29a14ef-98f6-4165-b83f-0a47eab2b375",
          "display": "Molly Jenkins"
        },
        "effectiveDateTime": "2022-07-28T14:42:11Z",
        "specimen": {
          "reference": "urn:uuid:8e41d3d4-d375-42fd-bba3-18c33211dd05"
        }
      }
    },
    {
      "fullUrl": "urn:uuid:0d082faa-186f-464f-aae8-e227444c48d6",
      "resource": {
        "resourceType": "Observation",
        "id": "0d082faa-186f-464f-aae8-e227444c48d6",
        "meta": {
          "profile": [
            "http://hl7.eu/fhir/laboratory/StructureDefinition/Observation-resultslab-eu-lab"
          ]
        },
        "performer": [
          {
            "display": "The Central European Lab"
          }
        ],
        "category": [
          {
            "coding": [
              {
                "system": "http://terminology.hl7.org/CodeSystem/observation-category",
                "code": "laboratory"
              }
            ]
          }
        ],
        "code": {
          "coding": [
            {
              "code": "5803-2",
              "system": "http://loinc.org",
              "display": "pH of Urine by Test strip"
            }
          ],
          "text": "pH of Urine by Test strip"
        },
        "valueQuantity": {
          "system": "http://unitsofmeasure.org",
          "value": 5.5,
          "unit": "pH",
          "code": "pH"
        },
        "referenceRange": [
          {
            "low": {
              "value": 4.5,
              "code": "pH",
              "system": "http://unitsofmeasure.org"
            }
          },
          {
            "high": {
              "value": 7.5,
              "code": "pH",
              "system": "http://unitsofmeasure.org"
            }
          }
        ],
        "text": {
          "status": "generated",
          "div": "<div xmlns=\"http://www.w3.org/1999/xhtml\"><table class=\"hl7__eu__lab__report\"><tr><th>Test</th><th>28-Jul-2022</th><th>Reference&#xA0;Range</th><th>Unit</th></tr><tr><td>pH of Urine by Test strip</td><td>5.5</td><td>4.5 - 7.5</td><td></td><td>pH</td></tr></table></div>"
        },
        "status": "final",
        "subject": {
          "reference": "urn:uuid:b29a14ef-98f6-4165-b83f-0a47eab2b375",
          "display": "Molly Jenkins"
        },
        "effectiveDateTime": "2022-07-28T14:42:11Z",
        "specimen": {
          "reference": "urn:uuid:8e41d3d4-d375-42fd-bba3-18c33211dd05"
        }
      }
    },
    {
      "fullUrl": "urn:uuid:9e2d9e99-3093-4b8e-b4f1-e847fde37621",
      "resource": {
        "resourceType": "Observation",
        "id": "9e2d9e99-3093-4b8e-b4f1-e847fde37621",
        "meta": {
          "profile": [
            "http://hl7.eu/fhir/laboratory/StructureDefinition/Observation-resultslab-eu-lab"
          ]
        },
        "performer": [
          {
            "display": "The Central European Lab"
          }
        ],
        "category": [
          {
            "coding": [
              {
                "system": "http://terminology.hl7.org/CodeSystem/observation-category",
                "code": "laboratory"
              }
            ]
          }
        ],
        "code": {
          "coding": [
            {
              "code": "5804-0",
              "system": "http://loinc.org",
              "display": "Protein [Mass/volume] in Urine by Test strip"
            }
          ],
          "text": "Protein [Mass/volume] in Urine by Test strip"
        },
        "valueQuantity": {
          "system": "http://unitsofmeasure.org",
          "value": 184.7,
          "unit": "mg/dL",
          "code": "mg/dL"
        },
        "referenceRange": [
          {
            "low": {
              "value": 0,
              "code": "mg/dL",
              "system": "http://unitsofmeasure.org"
            }
          },
          {
            "high": {
              "value": 15,
              "code": "mg/dL",
              "system": "http://unitsofmeasure.org"
            }
          }
        ],
        "interpretation": [
          {
            "coding": [
              {
                "code": "H",
                "system": "http://terminology.hl7.org/CodeSystem/v3-ObservationInterpretation",
                "display": "High"
              }
            ]
          }
        ],
        "text": {
          "status": "generated",
          "div": "<div xmlns=\"http://www.w3.org/1999/xhtml\"><table class=\"hl7__eu__lab__report\"><tr><th>Test</th><th>28-Jul-2022</th><th>Reference&#xA0;Range</th><th>Unit</th></tr><tr><td>Protein [Mass/volume] in Urine by Test strip</td><td>184.7</td><td>0 - 15</td><td>H</td><td>mg/dL</td></tr></table></div>"
        },
        "status": "final",
        "subject": {
          "reference": "urn:uuid:b29a14ef-98f6-4165-b83f-0a47eab2b375",
          "display": "Molly Jenkins"
        },
        "effectiveDateTime": "2022-07-28T14:42:11Z",
        "specimen": {
          "reference": "urn:uuid:8e41d3d4-d375-42fd-bba3-18c33211dd05"
        }
      }
    },
    {
      "fullUrl": "urn:uuid:7e078f98-b439-42ca-8faf-80f47eea72c9",
      "resource": {
        "resourceType": "Observation",
        "id": "7e078f98-b439-42ca-8faf-80f47eea72c9",
        "meta": {
          "profile": [
            "http://hl7.eu/fhir/laboratory/StructureDefinition/Observation-resultslab-eu-lab"
          ]
        },
        "performer": [
          {
            "display": "The Central European Lab"
          }
        ],
        "category": [
          {
            "coding": [
              {
                "system": "http://terminology.hl7.org/CodeSystem/observation-category",
                "code": "laboratory"
              }
            ]
          }
        ],
        "code": {
          "coding": [
            {
              "code": "20454-5",
              "system": "http://loinc.org",
              "display": "Protein [Presence] in Urine by Test strip"
            }
          ],
          "text": "Protein [Presence] in Urine by Test strip"
        },
        "text": {
          "status": "generated",
          "div": "<div xmlns=\"http://www.w3.org/1999/xhtml\"><table class=\"hl7__eu__lab__report\"><tr><th>Test</th><th>28-Jul-2022</th><th>Reference&#xA0;Range</th><th>Unit</th></tr><tr><td>Protein [Presence] in Urine by Test strip</td></tr></table></div>"
        },
        "status": "final",
        "subject": {
          "reference": "urn:uuid:b29a14ef-98f6-4165-b83f-0a47eab2b375",
          "display": "Molly Jenkins"
        },
        "effectiveDateTime": "2022-07-28T14:42:11Z",
        "specimen": {
          "reference": "urn:uuid:8e41d3d4-d375-42fd-bba3-18c33211dd05"
        }
      }
    },
    {
      "fullUrl": "urn:uuid:4bc69e13-696e-4b2e-bda0-4cb9418761a6",
      "resource": {
        "resourceType": "Observation",
        "id": "4bc69e13-696e-4b2e-bda0-4cb9418761a6",
        "meta": {
          "profile": [
            "http://hl7.eu/fhir/laboratory/StructureDefinition/Observation-resultslab-eu-lab"
          ]
        },
        "performer": [
          {
            "display": "The Central European Lab"
          }
        ],
        "category": [
          {
            "coding": [
              {
                "system": "http://terminology.hl7.org/CodeSystem/observation-category",
                "code": "laboratory"
              }
            ]
          }
        ],
        "code": {
          "coding": [
            {
              "code": "5802-4",
              "system": "http://loinc.org",
              "display": "Nitrite [Presence] in Urine by Test strip"
            }
          ],
          "text": "Nitrite [Presence] in Urine by Test strip"
        },
        "text": {
          "status": "generated",
          "div": "<div xmlns=\"http://www.w3.org/1999/xhtml\"><table class=\"hl7__eu__lab__report\"><tr><th>Test</th><th>28-Jul-2022</th><th>Reference&#xA0;Range</th><th>Unit</th></tr><tr><td>Nitrite [Presence] in Urine by Test strip</td></tr></table></div>"
        },
        "status": "final",
        "subject": {
          "reference": "urn:uuid:b29a14ef-98f6-4165-b83f-0a47eab2b375",
          "display": "Molly Jenkins"
        },
        "effectiveDateTime": "2022-07-28T14:42:11Z",
        "specimen": {
          "reference": "urn:uuid:8e41d3d4-d375-42fd-bba3-18c33211dd05"
        }
      }
    },
    {
      "fullUrl": "urn:uuid:82657d46-60fe-4001-84ea-f27741fce668",
      "resource": {
        "resourceType": "Observation",
        "id": "82657d46-60fe-4001-84ea-f27741fce668",
        "meta": {
          "profile": [
            "http://hl7.eu/fhir/laboratory/StructureDefinition/Observation-resultslab-eu-lab"
          ]
        },
        "performer": [
          {
            "display": "The Central European Lab"
          }
        ],
        "category": [
          {
            "coding": [
              {
                "system": "http://terminology.hl7.org/CodeSystem/observation-category",
                "code": "laboratory"
              }
            ]
          }
        ],
        "code": {
          "coding": [
            {
              "code": "5794-3",
              "system": "http://loinc.org",
              "display": "Hemoglobin [Presence] in Urine by Test strip"
            }
          ],
          "text": "Hemoglobin [Presence] in Urine by Test strip"
        },
        "text": {
          "status": "generated",
          "div": "<div xmlns=\"http://www.w3.org/1999/xhtml\"><table class=\"hl7__eu__lab__report\"><tr><th>Test</th><th>28-Jul-2022</th><th>Reference&#xA0;Range</th><th>Unit</th></tr><tr><td>Hemoglobin [Presence] in Urine by Test strip</td></tr></table></div>"
        },
        "status": "final",
        "subject": {
          "reference": "urn:uuid:b29a14ef-98f6-4165-b83f-0a47eab2b375",
          "display": "Molly Jenkins"
        },
        "effectiveDateTime": "2022-07-28T14:42:11Z",
        "specimen": {
          "reference": "urn:uuid:8e41d3d4-d375-42fd-bba3-18c33211dd05"
        }
      }
    },
    {
      "fullUrl": "urn:uuid:f8cd8d4c-58aa-4817-830d-baf64075bf20",
      "resource": {
        "resourceType": "Observation",
        "id": "f8cd8d4c-58aa-4817-830d-baf64075bf20",
        "meta": {
          "profile": [
            "http://hl7.eu/fhir/laboratory/StructureDefinition/Observation-resultslab-eu-lab"
          ]
        },
        "performer": [
          {
            "display": "The Central European Lab"
          }
        ],
        "category": [
          {
            "coding": [
              {
                "system": "http://terminology.hl7.org/CodeSystem/observation-category",
                "code": "laboratory"
              }
            ]
          }
        ],
        "code": {
          "coding": [
            {
              "code": "5799-2",
              "system": "http://loinc.org",
              "display": "Leukocyte esterase [Presence] in Urine by Test strip"
            }
          ],
          "text": "Leukocyte esterase [Presence] in Urine by Test strip"
        },
        "text": {
          "status": "generated",
          "div": "<div xmlns=\"http://www.w3.org/1999/xhtml\"><table class=\"hl7__eu__lab__report\"><tr><th>Test</th><th>28-Jul-2022</th><th>Reference&#xA0;Range</th><th>Unit</th></tr><tr><td>Leukocyte esterase [Presence] in Urine by Test strip</td></tr></table></div>"
        },
        "status": "final",
        "subject": {
          "reference": "urn:uuid:b29a14ef-98f6-4165-b83f-0a47eab2b375",
          "display": "Molly Jenkins"
        },
        "effectiveDateTime": "2022-07-28T14:42:11Z",
        "specimen": {
          "reference": "urn:uuid:8e41d3d4-d375-42fd-bba3-18c33211dd05"
        }
      }
    },
    {
      "fullUrl": "urn:uuid:9ff52896-6504-4a52-961f-500654a02572",
      "resource": {
        "resourceType": "Observation",
        "id": "9ff52896-6504-4a52-961f-500654a02572",
        "meta": {
          "profile": [
            "http://hl7.eu/fhir/laboratory/StructureDefinition/Observation-resultslab-eu-lab"
          ]
        },
        "performer": [
          {
            "display": "The Central European Lab"
          }
        ],
        "category": [
          {
            "coding": [
              {
                "system": "http://terminology.hl7.org/CodeSystem/observation-category",
                "code": "laboratory"
              }
            ]
          }
        ],
        "code": {
          "coding": [
            {
              "code": "4548-4",
              "system": "http://loinc.org",
              "display": "Hemoglobin A1c/Hemoglobin.total in Blood"
            }
          ],
          "text": "Hemoglobin A1c/Hemoglobin.total in Blood"
        },
        "valueQuantity": {
          "system": "http://unitsofmeasure.org",
          "value": 2.8,
          "unit": "%",
          "code": "%"
        },
        "referenceRange": [
          {
            "low": {
              "value": 4,
              "code": "%",
              "system": "http://unitsofmeasure.org"
            }
          },
          {
            "high": {
              "value": 6,
              "code": "%",
              "system": "http://unitsofmeasure.org"
            }
          }
        ],
        "interpretation": [
          {
            "coding": [
              {
                "code": "L",
                "system": "http://terminology.hl7.org/CodeSystem/v3-ObservationInterpretation",
                "display": "Low"
              }
            ]
          }
        ],
        "text": {
          "status": "generated",
          "div": "<div xmlns=\"http://www.w3.org/1999/xhtml\"><table class=\"hl7__eu__lab__report\"><tr><th>Test</th><th>28-Jul-2022</th><th>Reference&#xA0;Range</th><th>Unit</th></tr><tr><td>Hemoglobin A1c/Hemoglobin.total in Blood</td><td>2.8</td><td>4 - 6</td><td>L</td><td>%</td></tr></table></div>"
        },
        "status": "final",
        "subject": {
          "reference": "urn:uuid:b29a14ef-98f6-4165-b83f-0a47eab2b375",
          "display": "Molly Jenkins"
        },
        "effectiveDateTime": "2022-07-28T14:42:11Z",
        "specimen": {
          "reference": "urn:uuid:7a45f17a-fe0a-4528-93e0-42f0a773fe89"
        }
      }
    },
    {
      "fullUrl": "urn:uuid:36152804-1632-4ef8-acf3-62fce9b8695d",
      "resource": {
        "resourceType": "Observation",
        "id": "36152804-1632-4ef8-acf3-62fce9b8695d",
        "meta": {
          "profile": [
            "http://hl7.eu/fhir/laboratory/StructureDefinition/Observation-resultslab-eu-lab"
          ]
        },
        "performer": [
          {
            "display": "The Central European Lab"
          }
        ],
        "category": [
          {
            "coding": [
              {
                "system": "http://terminology.hl7.org/CodeSystem/observation-category",
                "code": "laboratory"
              }
            ]
          }
        ],
        "code": {
          "coding": [
            {
              "code": "2339-0",
              "system": "http://loinc.org",
              "display": "Glucose [Mass/volume] in Blood"
            }
          ],
          "text": "Glucose [Mass/volume] in Blood"
        },
        "valueQuantity": {
          "system": "http://unitsofmeasure.org",
          "value": 99.7,
          "unit": "mg/dL",
          "code": "mg/dL"
        },
        "referenceRange": [
          {
            "low": {
              "value": 70,
              "code": "mg/dL",
              "system": "http://unitsofmeasure.org"
            }
          },
          {
            "high": {
              "value": 100,
              "code": "mg/dL",
              "system": "http://unitsofmeasure.org"
            }
          }
        ],
        "text": {
          "status": "generated",
          "div": "<div xmlns=\"http://www.w3.org/1999/xhtml\"><table class=\"hl7__eu__lab__report\"><tr><th>Test</th><th>28-Jul-2022</th><th>Reference&#xA0;Range</th><th>Unit</th></tr><tr><td>Glucose [Mass/volume] in Blood</td><td>99.7</td><td>70 - 100</td><td></td><td>mg/dL</td></tr></table></div>"
        },
        "status": "final",
        "subject": {
          "reference": "urn:uuid:b29a14ef-98f6-4165-b83f-0a47eab2b375",
          "display": "Molly Jenkins"
        },
        "effectiveDateTime": "2022-07-28T14:42:11Z",
        "specimen": {
          "reference": "urn:uuid:7a45f17a-fe0a-4528-93e0-42f0a773fe89"
        }
      }
    },
    {
      "fullUrl": "urn:uuid:bdf22bdf-6ab4-4c53-b092-dc95072c0ce2",
      "resource": {
        "resourceType": "Observation",
        "id": "bdf22bdf-6ab4-4c53-b092-dc95072c0ce2",
        "meta": {
          "profile": [
            "http://hl7.eu/fhir/laboratory/StructureDefinition/Observation-resultslab-eu-lab"
          ]
        },
        "performer": [
          {
            "display": "The Central European Lab"
          }
        ],
        "category": [
          {
            "coding": [
              {
                "system": "http://terminology.hl7.org/CodeSystem/observation-category",
                "code": "laboratory"
              }
            ]
          }
        ],
        "code": {
          "coding": [
            {
              "code": "6299-2",
              "system": "http://loinc.org",
              "display": "Urea nitrogen [Mass/volume] in Blood"
            }
          ],
          "text": "Urea nitrogen [Mass/volume] in Blood"
        },
        "valueQuantity": {
          "system": "http://unitsofmeasure.org",
          "value": 11.5,
          "unit": "mg/dL",
          "code": "mg/dL"
        },
        "referenceRange": [
          {
            "low": {
              "value": 7,
              "code": "mg/dL",
              "system": "http://unitsofmeasure.org"
            }
          },
          {
            "high": {
              "value": 20,
              "code": "mg/dL",
              "system": "http://unitsofmeasure.org"
            }
          }
        ],
        "text": {
          "status": "generated",
          "div": "<div xmlns=\"http://www.w3.org/1999/xhtml\"><table class=\"hl7__eu__lab__report\"><tr><th>Test</th><th>28-Jul-2022</th><th>Reference&#xA0;Range</th><th>Unit</th></tr><tr><td>Urea nitrogen [Mass/volume] in Blood</td><td>11.5</td><td>7 - 20</td><td></td><td>mg/dL</td></tr></table></div>"
        },
        "status": "final",
        "subject": {
          "reference": "urn:uuid:b29a14ef-98f6-4165-b83f-0a47eab2b375",
          "display": "Molly Jenkins"
        },
        "effectiveDateTime": "2022-07-28T14:42:11Z",
        "specimen": {
          "reference": "urn:uuid:7a45f17a-fe0a-4528-93e0-42f0a773fe89"
        }
      }
    },
    {
      "fullUrl": "urn:uuid:c42bc0df-391f-4dd2-8001-88830afe184d",
      "resource": {
        "resourceType": "Observation",
        "id": "c42bc0df-391f-4dd2-8001-88830afe184d",
        "meta": {
          "profile": [
            "http://hl7.eu/fhir/laboratory/StructureDefinition/Observation-resultslab-eu-lab"
          ]
        },
        "performer": [
          {
            "display": "The Central European Lab"
          }
        ],
        "category": [
          {
            "coding": [
              {
                "system": "http://terminology.hl7.org/CodeSystem/observation-category",
                "code": "laboratory"
              }
            ]
          }
        ],
        "code": {
          "coding": [
            {
              "code": "38483-4",
              "system": "http://loinc.org",
              "display": "Creatinine [Mass/volume] in Blood"
            }
          ],
          "text": "Creatinine [Mass/volume] in Blood"
        },
        "valueQuantity": {
          "system": "http://unitsofmeasure.org",
          "value": 1.6,
          "unit": "mg/dL",
          "code": "mg/dL"
        },
        "referenceRange": [
          {
            "low": {
              "value": 0.6,
              "code": "mg/dL",
              "system": "http://unitsofmeasure.org"
            }
          },
          {
            "high": {
              "value": 1.3,
              "code": "mg/dL",
              "system": "http://unitsofmeasure.org"
            }
          }
        ],
        "interpretation": [
          {
            "coding": [
              {
                "code": "H",
                "system": "http://terminology.hl7.org/CodeSystem/v3-ObservationInterpretation",
                "display": "High"
              }
            ]
          }
        ],
        "text": {
          "status": "generated",
          "div": "<div xmlns=\"http://www.w3.org/1999/xhtml\"><table class=\"hl7__eu__lab__report\"><tr><th>Test</th><th>28-Jul-2022</th><th>Reference&#xA0;Range</th><th>Unit</th></tr><tr><td>Creatinine [Mass/volume] in Blood</td><td>1.6</td><td>0.6 - 1.3</td><td>H</td><td>mg/dL</td></tr></table></div>"
        },
        "status": "final",
        "subject": {
          "reference": "urn:uuid:b29a14ef-98f6-4165-b83f-0a47eab2b375",
          "display": "Molly Jenkins"
        },
        "effectiveDateTime": "2022-07-28T14:42:11Z",
        "specimen": {
          "reference": "urn:uuid:7a45f17a-fe0a-4528-93e0-42f0a773fe89"
        }
      }
    },
    {
      "fullUrl": "urn:uuid:534afe8c-129f-4b37-bbb1-3ec3b4d5d81b",
      "resource": {
        "resourceType": "Observation",
        "id": "534afe8c-129f-4b37-bbb1-3ec3b4d5d81b",
        "meta": {
          "profile": [
            "http://hl7.eu/fhir/laboratory/StructureDefinition/Observation-resultslab-eu-lab"
          ]
        },
        "performer": [
          {
            "display": "The Central European Lab"
          }
        ],
        "category": [
          {
            "coding": [
              {
                "system": "http://terminology.hl7.org/CodeSystem/observation-category",
                "code": "laboratory"
              }
            ]
          }
        ],
        "code": {
          "coding": [
            {
              "code": "49765-1",
              "system": "http://loinc.org",
              "display": "Calcium [Mass/volume] in Blood"
            }
          ],
          "text": "Calcium [Mass/volume] in Blood"
        },
        "valueQuantity": {
          "system": "http://unitsofmeasure.org",
          "value": 9.3,
          "unit": "mg/dL",
          "code": "mg/dL"
        },
        "referenceRange": [
          {
            "low": {
              "value": 8.6,
              "code": "mg/dL",
              "system": "http://unitsofmeasure.org"
            }
          },
          {
            "high": {
              "value": 10.4,
              "code": "mg/dL",
              "system": "http://unitsofmeasure.org"
            }
          }
        ],
        "text": {
          "status": "generated",
          "div": "<div xmlns=\"http://www.w3.org/1999/xhtml\"><table class=\"hl7__eu__lab__report\"><tr><th>Test</th><th>28-Jul-2022</th><th>Reference&#xA0;Range</th><th>Unit</th></tr><tr><td>Calcium [Mass/volume] in Blood</td><td>9.3</td><td>8.6 - 10.4</td><td></td><td>mg/dL</td></tr></table></div>"
        },
        "status": "final",
        "subject": {
          "reference": "urn:uuid:b29a14ef-98f6-4165-b83f-0a47eab2b375",
          "display": "Molly Jenkins"
        },
        "effectiveDateTime": "2022-07-28T14:42:11Z",
        "specimen": {
          "reference": "urn:uuid:7a45f17a-fe0a-4528-93e0-42f0a773fe89"
        }
      }
    },
    {
      "fullUrl": "urn:uuid:5972d4c8-8da5-4f70-8a23-893b17a15037",
      "resource": {
        "resourceType": "Observation",
        "id": "5972d4c8-8da5-4f70-8a23-893b17a15037",
        "meta": {
          "profile": [
            "http://hl7.eu/fhir/laboratory/StructureDefinition/Observation-resultslab-eu-lab"
          ]
        },
        "performer": [
          {
            "display": "The Central European Lab"
          }
        ],
        "category": [
          {
            "coding": [
              {
                "system": "http://terminology.hl7.org/CodeSystem/observation-category",
                "code": "laboratory"
              }
            ]
          }
        ],
        "code": {
          "coding": [
            {
              "code": "2947-0",
              "system": "http://loinc.org",
              "display": "Sodium [Moles/volume] in Blood"
            }
          ],
          "text": "Sodium [Moles/volume] in Blood"
        },
        "valueQuantity": {
          "system": "http://unitsofmeasure.org",
          "value": 142.8,
          "unit": "mmol/L",
          "code": "mmol/L"
        },
        "referenceRange": [
          {
            "low": {
              "value": 135,
              "code": "mmol/L",
              "system": "http://unitsofmeasure.org"
            }
          },
          {
            "high": {
              "value": 145,
              "code": "mmol/L",
              "system": "http://unitsofmeasure.org"
            }
          }
        ],
        "text": {
          "status": "generated",
          "div": "<div xmlns=\"http://www.w3.org/1999/xhtml\"><table class=\"hl7__eu__lab__report\"><tr><th>Test</th><th>28-Jul-2022</th><th>Reference&#xA0;Range</th><th>Unit</th></tr><tr><td>Sodium [Moles/volume] in Blood</td><td>142.8</td><td>135 - 145</td><td></td><td>mmol/L</td></tr></table></div>"
        },
        "status": "final",
        "subject": {
          "reference": "urn:uuid:b29a14ef-98f6-4165-b83f-0a47eab2b375",
          "display": "Molly Jenkins"
        },
        "effectiveDateTime": "2022-07-28T14:42:11Z",
        "specimen": {
          "reference": "urn:uuid:7a45f17a-fe0a-4528-93e0-42f0a773fe89"
        }
      }
    },
    {
      "fullUrl": "urn:uuid:81c9e28b-a9e2-4efd-975e-c70e52d72ebe",
      "resource": {
        "resourceType": "Observation",
        "id": "81c9e28b-a9e2-4efd-975e-c70e52d72ebe",
        "meta": {
          "profile": [
            "http://hl7.eu/fhir/laboratory/StructureDefinition/Observation-resultslab-eu-lab"
          ]
        },
        "performer": [
          {
            "display": "The Central European Lab"
          }
        ],
        "category": [
          {
            "coding": [
              {
                "system": "http://terminology.hl7.org/CodeSystem/observation-category",
                "code": "laboratory"
              }
            ]
          }
        ],
        "code": {
          "coding": [
            {
              "code": "6298-4",
              "system": "http://loinc.org",
              "display": "Potassium [Moles/volume] in Blood"
            }
          ],
          "text": "Potassium [Moles/volume] in Blood"
        },
        "valueQuantity": {
          "system": "http://unitsofmeasure.org",
          "value": 4,
          "unit": "mmol/L",
          "code": "mmol/L"
        },
        "referenceRange": [
          {
            "low": {
              "value": 3.5,
              "code": "mmol/L",
              "system": "http://unitsofmeasure.org"
            }
          },
          {
            "high": {
              "value": 5.1,
              "code": "mmol/L",
              "system": "http://unitsofmeasure.org"
            }
          }
        ],
        "text": {
          "status": "generated",
          "div": "<div xmlns=\"http://www.w3.org/1999/xhtml\"><table class=\"hl7__eu__lab__report\"><tr><th>Test</th><th>28-Jul-2022</th><th>Reference&#xA0;Range</th><th>Unit</th></tr><tr><td>Potassium [Moles/volume] in Blood</td><td>4.0</td><td>3.5 - 5.1</td><td></td><td>mmol/L</td></tr></table></div>"
        },
        "status": "final",
        "subject": {
          "reference": "urn:uuid:b29a14ef-98f6-4165-b83f-0a47eab2b375",
          "display": "Molly Jenkins"
        },
        "effectiveDateTime": "2022-07-28T14:42:11Z",
        "specimen": {
          "reference": "urn:uuid:7a45f17a-fe0a-4528-93e0-42f0a773fe89"
        }
      }
    },
    {
      "fullUrl": "urn:uuid:1edc91f5-b2c0-4c89-8580-378ceb3888cd",
      "resource": {
        "resourceType": "Observation",
        "id": "1edc91f5-b2c0-4c89-8580-378ceb3888cd",
        "meta": {
          "profile": [
            "http://hl7.eu/fhir/laboratory/StructureDefinition/Observation-resultslab-eu-lab"
          ]
        },
        "performer": [
          {
            "display": "The Central European Lab"
          }
        ],
        "category": [
          {
            "coding": [
              {
                "system": "http://terminology.hl7.org/CodeSystem/observation-category",
                "code": "laboratory"
              }
            ]
          }
        ],
        "code": {
          "coding": [
            {
              "code": "2069-3",
              "system": "http://loinc.org",
              "display": "Chloride [Moles/volume] in Blood"
            }
          ],
          "text": "Chloride [Moles/volume] in Blood"
        },
        "valueQuantity": {
          "system": "http://unitsofmeasure.org",
          "value": 103.5,
          "unit": "mmol/L",
          "code": "mmol/L"
        },
        "referenceRange": [
          {
            "low": {
              "value": 98,
              "code": "mmol/L",
              "system": "http://unitsofmeasure.org"
            }
          },
          {
            "high": {
              "value": 110,
              "code": "mmol/L",
              "system": "http://unitsofmeasure.org"
            }
          }
        ],
        "text": {
          "status": "generated",
          "div": "<div xmlns=\"http://www.w3.org/1999/xhtml\"><table class=\"hl7__eu__lab__report\"><tr><th>Test</th><th>28-Jul-2022</th><th>Reference&#xA0;Range</th><th>Unit</th></tr><tr><td>Chloride [Moles/volume] in Blood</td><td>103.5</td><td>98 - 110</td><td></td><td>mmol/L</td></tr></table></div>"
        },
        "status": "final",
        "subject": {
          "reference": "urn:uuid:b29a14ef-98f6-4165-b83f-0a47eab2b375",
          "display": "Molly Jenkins"
        },
        "effectiveDateTime": "2022-07-28T14:42:11Z",
        "specimen": {
          "reference": "urn:uuid:7a45f17a-fe0a-4528-93e0-42f0a773fe89"
        }
      }
    },
    {
      "fullUrl": "urn:uuid:c594d588-33c3-42ed-8075-829e84f8e771",
      "resource": {
        "resourceType": "Observation",
        "id": "c594d588-33c3-42ed-8075-829e84f8e771",
        "meta": {
          "profile": [
            "http://hl7.eu/fhir/laboratory/StructureDefinition/Observation-resultslab-eu-lab"
          ]
        },
        "performer": [
          {
            "display": "The Central European Lab"
          }
        ],
        "category": [
          {
            "coding": [
              {
                "system": "http://terminology.hl7.org/CodeSystem/observation-category",
                "code": "laboratory"
              }
            ]
          }
        ],
        "code": {
          "coding": [
            {
              "code": "20565-8",
              "system": "http://loinc.org",
              "display": "Carbon dioxide, total [Moles/volume] in Blood"
            }
          ],
          "text": "Carbon dioxide, total [Moles/volume] in Blood"
        },
        "valueQuantity": {
          "system": "http://unitsofmeasure.org",
          "value": 28.6,
          "unit": "mmol/L",
          "code": "mmol/L"
        },
        "referenceRange": [
          {
            "low": {
              "value": 22,
              "code": "mmol/L",
              "system": "http://unitsofmeasure.org"
            }
          },
          {
            "high": {
              "value": 29,
              "code": "mmol/L",
              "system": "http://unitsofmeasure.org"
            }
          }
        ],
        "text": {
          "status": "generated",
          "div": "<div xmlns=\"http://www.w3.org/1999/xhtml\"><table class=\"hl7__eu__lab__report\"><tr><th>Test</th><th>28-Jul-2022</th><th>Reference&#xA0;Range</th><th>Unit</th></tr><tr><td>Carbon dioxide, total [Moles/volume] in Blood</td><td>28.6</td><td>22 - 29</td><td></td><td>mmol/L</td></tr></table></div>"
        },
        "status": "final",
        "subject": {
          "reference": "urn:uuid:b29a14ef-98f6-4165-b83f-0a47eab2b375",
          "display": "Molly Jenkins"
        },
        "effectiveDateTime": "2022-07-28T14:42:11Z",
        "specimen": {
          "reference": "urn:uuid:7a45f17a-fe0a-4528-93e0-42f0a773fe89"
        }
      }
    },
    {
      "fullUrl": "urn:uuid:73c44b69-783d-4d77-aae4-e1fff2263883",
      "resource": {
        "resourceType": "Device",
        "id": "73c44b69-783d-4d77-aae4-e1fff2263883",
        "deviceName": [
          {
            "name": "SYNDERAI Synthetic Generator",
            "type": "manufacturer-name"
          }
        ],
        "version": [
          {
            "value": "5.0"
          }
        ],
        "text": {
          "status": "generated",
          "div": "<div xmlns=\"http://www.w3.org/1999/xhtml\">SYNDERAI Synthetic Generator v5.0</div>"
        },
        "status": "active\"",
        "distinctIdentifier": "synderai-generator-50",
        "manufacturer": "SYNDERAI Project"
      }
    },
    {
      "fullUrl": "urn:uuid:00b1feb7-c10e-4481-b0cc-05794b95f8d1",
      "resource": {
        "resourceType": "Provenance",
        "id": "00b1feb7-c10e-4481-b0cc-05794b95f8d1",
        "target": [
          {
            "reference": "Patient/b29a14ef-98f6-4165-b83f-0a47eab2b375"
          },
          {
            "reference": "Bundle/d4301e80-ad28-4a15-b826-eabe82a072b8"
          },
          {
            "reference": "Composition/4ad62162-12ac-41ef-b0a7-d50f2a400ec8"
          },
          {
            "reference": "PractitionerRole/e923ec20-2ada-4e6f-b4a5-2d2d3ccaaa9b"
          },
          {
            "reference": "Practitioner/d3b9e284-c802-46a0-8ca8-ab46411eb1e0"
          },
          {
            "reference": "PractitionerRole/fa3834e0-2a05-4c55-a573-eeeb7759a06c"
          },
          {
            "reference": "Organization/f6be2243-a030-45dc-b17c-86bc163d992d"
          }
        ],
        "activity": {
          "text": "Synthetic Example Data Generation"
        },
        "policy": [
          "https://synderai.net/synderai-synthetic-data-policy"
        ],
        "agent": [
          {
            "type": {
              "text": "author"
            },
            "who": {
              "reference": "Device/73c44b69-783d-4d77-aae4-e1fff2263883"
            }
          }
        ],
        "reason": [
          {
            "text": "Interoperability Testing and Training (non-clinical use)"
          }
        ],
        "text": {
          "status": "generated",
          "div": "<div xmlns=\"http://www.w3.org/1999/xhtml\">Provenance for SYNDERAI Synthetic Example Data Resource</div>"
        },
        "recorded": "2022-07-28T16:42:11Z"
      }
    },
    {
      "fullUrl": "urn:uuid:e923ec20-2ada-4e6f-b4a5-2d2d3ccaaa9b",
      "resource": {
        "resourceType": "PractitionerRole",
        "id": "e923ec20-2ada-4e6f-b4a5-2d2d3ccaaa9b",
        "meta": {
          "profile": [
            "http://hl7.eu/fhir/base/StructureDefinition/practitionerRole-eu"
          ]
        },
        "text": {
          "status": "generated",
          "div": "<div xmlns=\"http://www.w3.org/1999/xhtml\">Laboratory Role Id: e923ec20-2ada-4e6f-b4a5-2d2d3ccaaa9b</div>"
        },
        "practitioner": {
          "reference": "urn:uuid:d3b9e284-c802-46a0-8ca8-ab46411eb1e0"
        }
      }
    },
    {
      "fullUrl": "urn:uuid:d3b9e284-c802-46a0-8ca8-ab46411eb1e0",
      "resource": {
        "resourceType": "Practitioner",
        "id": "d3b9e284-c802-46a0-8ca8-ab46411eb1e0",
        "meta": {
          "profile": [
            "http://hl7.eu/fhir/base/StructureDefinition/practitioner-eu"
          ]
        },
        "identifier": [
          {
            "assigner": {
              "display": "HL7 Europe"
            },
            "system": "urn:oid:2.16.840.1.113883.2.51.999",
            "value": "11609f14-bf79-4326-ba27-948292cb123f"
          }
        ],
        "name": [
          {
            "prefix": [
              "dr"
            ],
            "given": [
              "Ex"
            ],
            "family": "Ample"
          }
        ],
        "address": [
          {
            "line": [
              "Laboratoire Central Europenne",
              "Boulevard du Jardin Botanique 32"
            ],
            "postalCode": "1000",
            "city": "Brussels",
            "country": "Belgium"
          }
        ],
        "text": {
          "status": "generated",
          "div": "<div xmlns=\"http://www.w3.org/1999/xhtml\">Laboratory: Laboratoire Central Europenne, 1000 Brussels, Belgium</div>"
        }
      }
    }
  ],
  "type": "document",
  "timestamp": "2022-07-28T16:42:11Z"
}
