{
  "resourceType": "Bundle",
  "id": "4216912c-f9be-4619-8a7e-8fbc4c68aa22",
  "meta": {
    "profile": [
      "http://hl7.eu/fhir/laboratory/StructureDefinition/Bundle-eu-lab"
    ]
  },
  "identifier": {
    "assigner": {
      "display": "HL7 Europe"
    },
    "system": "urn:oid:2.16.840.1.113883.2.51.999",
    "value": "8458885f-ec09-45d6-911a-3444dcfd2fb1"
  },
  "entry": [
    {
      "fullUrl": "urn:uuid:89f9deb2-bf6c-4e4d-8e20-de04fd050ca6",
      "resource": {
        "resourceType": "Composition",
        "id": "89f9deb2-bf6c-4e4d-8e20-de04fd050ca6",
        "meta": {
          "profile": [
            "http://hl7.eu/fhir/laboratory/StructureDefinition/Composition-eu-lab"
          ]
        },
        "identifier": {
          "assigner": {
            "display": "HL7 Europe"
          },
          "system": "urn:oid:2.16.840.1.113883.2.51.999",
          "value": "1c7fad36-ba2b-4996-b077-06b1625506e7"
        },
        "author": [
          {
            "reference": "urn:uuid:d0780019-5d01-4820-a9e2-a8896b5a73e4"
          }
        ],
        "category": [
          {
            "coding": [
              {
                "code": "26436-6",
                "system": "http://loinc.org",
                "display": "Laboratory studies (set)"
              }
            ]
          }
        ],
        "type": {
          "coding": [
            {
              "code": "11502-2",
              "system": "http://loinc.org",
              "display": "Laboratory report"
            }
          ],
          "text": "Laboratory Report"
        },
        "section": [
          {
            "code": {
              "coding": [
                {
                  "code": "26436-6",
                  "system": "http://loinc.org",
                  "display": "Laboratory studies (set)"
                }
              ],
              "text": "Laboratory studies"
            },
            "section": [
              {
                "code": {
                  "coding": [
                    {
                      "code": "$18723-7",
                      "system": "http://loinc.org",
                      "display": "Hematology studies (set)"
                    }
                  ],
                  "text": "Hematology"
                },
                "entry": [
                  {
                    "reference": "urn:uuid:b8fef19e-0190-4630-bdf2-5114cef03d1b"
                  },
                  {
                    "reference": "urn:uuid:04017ba4-0b4f-4985-97d6-0e941afb764c"
                  },
                  {
                    "reference": "urn:uuid:3f5d10d2-fe22-42b3-bbbf-346eb2f0112b"
                  },
                  {
                    "reference": "urn:uuid:ad5d5187-9e28-493a-97c7-6f4711ef89fa"
                  },
                  {
                    "reference": "urn:uuid:b0af697b-556a-4f58-a17c-0902f91ddd05"
                  },
                  {
                    "reference": "urn:uuid:413fc8f7-db96-44a3-a160-dc64a3a208bd"
                  },
                  {
                    "reference": "urn:uuid:1d9c47ba-bcec-4f98-bc73-7ade8ff263fc"
                  },
                  {
                    "reference": "urn:uuid:df872f57-f634-4c7a-8bd3-a5d9cb9f3647"
                  },
                  {
                    "reference": "urn:uuid:65bb2bdb-282d-40e0-8531-7647777bb94b"
                  }
                ],
                "text": {
                  "status": "generated",
                  "div": "<div xmlns=\"http://www.w3.org/1999/xhtml\"><h3>Hematology</h3><table class=\"hl7__eu__lab__report\"><thead><tr><th>Test</th><th>19-JUN-2017</th><th>Reference&#xA0;Range</th><th>Unit</th></tr></thead><tbody><tr><td>Leukocytes [#/volume] in Blood by Automated count</td><td>4.9</td><td>4 - 11</td><td>10*3/uL</td></tr><tr><td>Erythrocytes [#/volume] in Blood by Automated count</td><td>4.5</td><td>4.2 - 5.8</td><td>10*6/uL</td></tr><tr><td>Hemoglobin [Mass/volume] in Blood</td><td>16.0</td><td>12 - 16</td><td>g/dL</td></tr><tr><td>Hematocrit [Volume Fraction] of Blood by Automated count</td><td>45.9</td><td>36 - 48</td><td>%</td></tr><tr><td>MCV [Entitic volume] by Automated count</td><td>84.9</td><td>78 - 98</td><td>fL</td></tr><tr><td>MCH [Entitic mass] by Automated count</td><td>32.2</td><td>27 - 34.5</td><td>pg</td></tr><tr><td>MCHC [Mass/volume] by Automated count</td><td>32.9</td><td>31.5 - 35.5</td><td>g/dL</td></tr><tr><td>Erythrocyte distribution width [Ratio] by Automated count</td><td>13.3</td><td>11.5 - 16</td><td>%</td></tr><tr><td>Platelets [#/volume] in Blood by Automated count</td><td>296.5</td><td>150 - 350</td><td>10*3/uL</td></tr></tbody></table></div>"
                },
                "title": "Hematology"
              },
              {
                "code": {
                  "coding": [
                    {
                      "code": "$18719-5",
                      "system": "http://loinc.org",
                      "display": "Chemistry studies (set)"
                    }
                  ],
                  "text": "Chemistry"
                },
                "entry": [
                  {
                    "reference": "urn:uuid:4e120ec7-0935-4f4b-85fc-5c6758c2856a"
                  },
                  {
                    "reference": "urn:uuid:31ea9d75-f1d8-4e91-8f0d-b3b5728febc6"
                  },
                  {
                    "reference": "urn:uuid:80b993bf-a775-4b75-baa5-bcb14db24934"
                  },
                  {
                    "reference": "urn:uuid:798f8cb8-2650-4284-8b0a-1f05b197b2cd"
                  },
                  {
                    "reference": "urn:uuid:a1e02e8c-a368-4361-ac0a-7bb2a7c36311"
                  },
                  {
                    "reference": "urn:uuid:65314fa4-277e-40b9-891c-28284b307ed1"
                  },
                  {
                    "reference": "urn:uuid:0f00b0c2-b1d7-4919-be9d-cf743b256a7f"
                  },
                  {
                    "reference": "urn:uuid:b6337aaf-2596-41bc-8af9-6f21da88f2d0"
                  },
                  {
                    "reference": "urn:uuid:ac6f9ceb-76f2-4705-acfa-89711bb346e9"
                  },
                  {
                    "reference": "urn:uuid:7b9f1901-4b70-4f2c-92e1-a0cd614e9958"
                  },
                  {
                    "reference": "urn:uuid:9e8d19a9-f5f7-44b3-b19a-af65ce975836"
                  },
                  {
                    "reference": "urn:uuid:e98d7d91-b205-49c9-9e43-4d647d9ac50d"
                  },
                  {
                    "reference": "urn:uuid:b8a2427d-9b53-4dc8-a27a-3e8706432c99"
                  },
                  {
                    "reference": "urn:uuid:3e555b2b-9d2d-4eef-ba9b-9974ae853863"
                  },
                  {
                    "reference": "urn:uuid:205ef295-aa84-4802-a8b8-860190c052df"
                  },
                  {
                    "reference": "urn:uuid:229913f2-fa45-4c27-b494-d3405a3b94f9"
                  },
                  {
                    "reference": "urn:uuid:001ca06c-dddc-4bc6-91d9-1b2ecadfeab3"
                  },
                  {
                    "reference": "urn:uuid:0a93ba9e-ef2a-4b92-9226-a5c0d6a6dfe2"
                  },
                  {
                    "reference": "urn:uuid:ca97838e-3ce3-4c51-ac0d-20574608810e"
                  },
                  {
                    "reference": "urn:uuid:03f04fb7-6c4f-4fb4-bfdb-4b5d518a4994"
                  },
                  {
                    "reference": "urn:uuid:a3cbad7c-ffbc-4bb3-b291-bd778bebeadd"
                  },
                  {
                    "reference": "urn:uuid:cbba7c69-51aa-4a59-8b32-64dc61c2ec93"
                  },
                  {
                    "reference": "urn:uuid:3509d7f3-f7d2-4560-8a66-b92cd959a732"
                  },
                  {
                    "reference": "urn:uuid:4b6137f3-26de-4518-a3ff-918cfa67b44c"
                  },
                  {
                    "reference": "urn:uuid:0b9ff3c5-d2fa-413f-a0e0-cf493abde878"
                  }
                ],
                "text": {
                  "status": "generated",
                  "div": "<div xmlns=\"http://www.w3.org/1999/xhtml\"><h3>Chemistry</h3><table class=\"hl7__eu__lab__report\"><thead><tr><th>Test</th><th>19-JUN-2017</th><th>Reference&#xA0;Range</th><th>Unit</th></tr></thead><tbody><tr><td>Glucose [Mass/volume] in Serum or Plasma</td><td>83.3</td><td>70 - 140</td><td>mg/dL</td></tr><tr><td>Urea nitrogen [Mass/volume] in Serum or Plasma</td><td>16.7</td><td>7 - 25</td><td>mg/dL</td></tr><tr><td>Creatinine [Mass/volume] in Serum or Plasma</td><td><strong>2.8 H</strong></td><td>0.6 - 1.1</td><td>mg/dL</td></tr><tr><td>Calcium [Mass/volume] in Serum or Plasma</td><td>10.2</td><td>8.5 - 10.4</td><td>mg/dL</td></tr><tr><td>Sodium [Moles/volume] in Serum or Plasma</td><td>142.6</td><td>135 - 145</td><td>mmol/L</td></tr><tr><td>Potassium [Moles/volume] in Serum or Plasma</td><td>4.0</td><td>3.5 - 5.3</td><td>mmol/L</td></tr><tr><td>Chloride [Moles/volume] in Serum or Plasma</td><td>105.7</td><td>98 - 108</td><td>mmol/L</td></tr><tr><td>Carbon dioxide, total [Moles/volume] in Serum or Plasma</td><td>25.6</td><td>22 - 29</td><td>mmol/L</td></tr><tr><td>Protein [Mass/volume] in Serum or Plasma</td><td>7.1</td><td>6 - 8.3</td><td>g/dL</td></tr><tr><td>Albumin [Mass/volume] in Serum or Plasma</td><td>4.5</td><td>3.5 - 5.5</td><td>g/dL</td></tr><tr><td>Bilirubin.total [Mass/volume] in Serum or Plasma</td><td><strong>11.9 H</strong></td><td>0.3 - 1.2</td><td>mg/dL</td></tr><tr><td>Alkaline phosphatase [Enzymatic activity/volume] in Serum or Plasma</td><td>46.4</td><td>35 - 270</td><td>U/L</td></tr><tr><td>Alanine aminotransferase [Enzymatic activity/volume] in Serum or Plasma</td><td>30.6</td><td>7 - 60</td><td>U/L</td></tr><tr><td>Aspartate aminotransferase [Enzymatic activity/volume] in Serum or Plasma</td><td>38.4</td><td>10 - 40</td><td>U/L</td></tr><tr><td>Magnesium [Mass/volume] in Serum or Plasma</td><td>1.9</td><td>1.6 - 2.3</td><td>mg/dL</td></tr><tr><td>Phosphate [Mass/volume] in Serum or Plasma</td><td>2.8</td><td>2.5 - 4.5</td><td>mg/dL</td></tr><tr><td>pH of Arterial blood</td><td><strong>6.9 L</strong></td><td>7.35 - 7.45</td><td>[pH]</td></tr><tr><td>Carbon dioxide [Partial pressure] in Arterial blood</td><td>42.5</td><td>38 - 48</td><td>mm[Hg]</td></tr><tr><td>Oxygen [Partial pressure] in Arterial blood</td><td>98.8</td><td>75 - 100</td><td>mm[Hg]</td></tr><tr><td>Bicarbonate [Moles/volume] in Arterial blood</td><td>25.4</td><td>22 - 31</td><td>mmol/L</td></tr><tr><td>Oxygen saturation in Arterial blood</td><td><strong>94.0 L</strong></td><td>95 - 100</td><td>%</td></tr><tr><td>Cholesterol [Mass/volume] in Serum or Plasma</td><td>159.4</td><td>125 - 200</td><td>mg/dL</td></tr><tr><td>Triglyceride [Mass/volume] in Serum or Plasma</td><td>126.3</td><td>0 - 150</td><td>mg/dL</td></tr><tr><td>Cholesterol in LDL [Mass/volume] in Serum or Plasma by Direct assay</td><td>79.3</td><td>0 - 130</td><td>mg/dL</td></tr><tr><td>Cholesterol in HDL [Mass/volume] in Serum or Plasma</td><td>54.9</td><td>50 - 100</td><td>mg/dL</td></tr></tbody></table></div>"
                },
                "title": "Chemistry"
              },
              {
                "code": {
                  "coding": [
                    {
                      "code": "$18720-3",
                      "system": "http://loinc.org",
                      "display": "Coagulation studies (set)"
                    }
                  ],
                  "text": "Coagulation"
                },
                "entry": [
                  {
                    "reference": "urn:uuid:4d618119-69d3-4380-b660-6259a50cf913"
                  },
                  {
                    "reference": "urn:uuid:88e19bb3-19d6-4c05-8661-6ffcb5f65d10"
                  },
                  {
                    "reference": "urn:uuid:3d19b7bf-f4f8-45b6-9da1-1c50b9cc63dc"
                  }
                ],
                "text": {
                  "status": "generated",
                  "div": "<div xmlns=\"http://www.w3.org/1999/xhtml\"><h3>Coagulation</h3><table class=\"hl7__eu__lab__report\"><thead><tr><th>Test</th><th>19-JUN-2017</th><th>Reference&#xA0;Range</th><th>Unit</th></tr></thead><tbody><tr><td>Prothrombin time (PT)</td><td>11.3</td><td>11 - 15</td><td>s</td></tr><tr><td>INR in Platelet poor plasma by Coagulation assay</td><td>1.2</td><td>0.9 - 3</td><td>{INR}</td></tr><tr><td>aPTT in Blood by Coagulation assay</td><td>39.6</td><td>25 - 40</td><td>s</td></tr></tbody></table></div>"
                },
                "title": "Coagulation"
              }
            ],
            "title": "Laboratory Report"
          },
          {
            "text": {
              "status": "generated",
              "div": "<div xmlns=\"http://www.w3.org/1999/xhtml\"><h3>Annotation</h3><table class=\"hl7__eu__lab__report\"><tr><th>Conclusion and Recommendations based on this report and previous findings known to us</th></tr><tr><td>Most parameters are within normal limits. However, there is marked hyperbilirubinemia (total bilirubin 11.9 mg/dL) and significantly elevated creatinine (2.8 mg/dL), indicating possible hepatic dysfunction and acute or chronic renal impairment. Critically low arterial pH (6.9) suggests severe acidemia, and oxygen saturation is slightly reduced. These findings are concerning for multi-organ dysfunction and require urgent clinical evaluation and intervention.</td></tr></table></div>"
            },
            "code": {
              "coding": [
                {
                  "system": "http://loinc.org",
                  "code": "48767-8",
                  "display": "Annotation comment"
                }
              ]
            },
            "title": "Annotation comment"
          }
        ],
        "status": "final",
        "subject": {
          "reference": "urn:uuid:0528b881-9bea-4b75-9dc2-8e94cbf3f2b1",
          "display": "Magdolna Balog"
        },
        "date": "2017-06-19T17:32:25Z",
        "title": "Laboratory Report",
        "confidentiality": "N"
      }
    },
    {
      "fullUrl": "urn:uuid:0f6c401b-7b6b-463f-9363-d6310f521622",
      "resource": {
        "resourceType": "DiagnosticReport",
        "id": "0f6c401b-7b6b-463f-9363-d6310f521622",
        "meta": {
          "profile": [
            "http://hl7.eu/fhir/laboratory/StructureDefinition/DiagnosticReport-eu-lab"
          ]
        },
        "identifier": [
          {
            "assigner": {
              "display": "HL7 Europe"
            },
            "system": "urn:oid:2.16.840.1.113883.2.51.999",
            "value": "0afd485c-e388-42f3-b517-12e9fc1116fb"
          }
        ],
        "extension": [
          {
            "url": "http://hl7.org/fhir/5.0/StructureDefinition/extension-DiagnosticReport.composition",
            "valueReference": {
              "reference": "urn:uuid:1c7fad36-ba2b-4996-b077-06b1625506e7"
            }
          }
        ],
        "category": [
          {
            "coding": [
              {
                "code": "26436-6",
                "system": "http://loinc.org",
                "display": "Laboratory studies (set)"
              }
            ]
          }
        ],
        "specimen": [
          {
            "reference": "urn:uuid:a59a597a-63c4-4f3e-a7a3-cd212b1d32ec"
          },
          {
            "reference": "urn:uuid:a59a597a-63c4-4f3e-a7a3-cd212b1d32ec"
          },
          {
            "reference": "urn:uuid:f4a36417-9a65-485e-8de3-88e5454d7fdc"
          },
          {
            "reference": "urn:uuid:4b0dd126-4d8b-476c-8ccf-9afb572e596b"
          },
          {
            "reference": "urn:uuid:ff4a2e18-6ce5-49e7-bd05-2b6216cfcdc9"
          }
        ],
        "result": [
          {
            "reference": "urn:uuid:b8fef19e-0190-4630-bdf2-5114cef03d1b"
          },
          {
            "reference": "urn:uuid:04017ba4-0b4f-4985-97d6-0e941afb764c"
          },
          {
            "reference": "urn:uuid:3f5d10d2-fe22-42b3-bbbf-346eb2f0112b"
          },
          {
            "reference": "urn:uuid:ad5d5187-9e28-493a-97c7-6f4711ef89fa"
          },
          {
            "reference": "urn:uuid:b0af697b-556a-4f58-a17c-0902f91ddd05"
          },
          {
            "reference": "urn:uuid:413fc8f7-db96-44a3-a160-dc64a3a208bd"
          },
          {
            "reference": "urn:uuid:1d9c47ba-bcec-4f98-bc73-7ade8ff263fc"
          },
          {
            "reference": "urn:uuid:df872f57-f634-4c7a-8bd3-a5d9cb9f3647"
          },
          {
            "reference": "urn:uuid:65bb2bdb-282d-40e0-8531-7647777bb94b"
          },
          {
            "reference": "urn:uuid:4e120ec7-0935-4f4b-85fc-5c6758c2856a"
          },
          {
            "reference": "urn:uuid:31ea9d75-f1d8-4e91-8f0d-b3b5728febc6"
          },
          {
            "reference": "urn:uuid:80b993bf-a775-4b75-baa5-bcb14db24934"
          },
          {
            "reference": "urn:uuid:798f8cb8-2650-4284-8b0a-1f05b197b2cd"
          },
          {
            "reference": "urn:uuid:a1e02e8c-a368-4361-ac0a-7bb2a7c36311"
          },
          {
            "reference": "urn:uuid:65314fa4-277e-40b9-891c-28284b307ed1"
          },
          {
            "reference": "urn:uuid:0f00b0c2-b1d7-4919-be9d-cf743b256a7f"
          },
          {
            "reference": "urn:uuid:b6337aaf-2596-41bc-8af9-6f21da88f2d0"
          },
          {
            "reference": "urn:uuid:ac6f9ceb-76f2-4705-acfa-89711bb346e9"
          },
          {
            "reference": "urn:uuid:7b9f1901-4b70-4f2c-92e1-a0cd614e9958"
          },
          {
            "reference": "urn:uuid:9e8d19a9-f5f7-44b3-b19a-af65ce975836"
          },
          {
            "reference": "urn:uuid:e98d7d91-b205-49c9-9e43-4d647d9ac50d"
          },
          {
            "reference": "urn:uuid:b8a2427d-9b53-4dc8-a27a-3e8706432c99"
          },
          {
            "reference": "urn:uuid:3e555b2b-9d2d-4eef-ba9b-9974ae853863"
          },
          {
            "reference": "urn:uuid:205ef295-aa84-4802-a8b8-860190c052df"
          },
          {
            "reference": "urn:uuid:229913f2-fa45-4c27-b494-d3405a3b94f9"
          },
          {
            "reference": "urn:uuid:4d618119-69d3-4380-b660-6259a50cf913"
          },
          {
            "reference": "urn:uuid:88e19bb3-19d6-4c05-8661-6ffcb5f65d10"
          },
          {
            "reference": "urn:uuid:3d19b7bf-f4f8-45b6-9da1-1c50b9cc63dc"
          },
          {
            "reference": "urn:uuid:001ca06c-dddc-4bc6-91d9-1b2ecadfeab3"
          },
          {
            "reference": "urn:uuid:0a93ba9e-ef2a-4b92-9226-a5c0d6a6dfe2"
          },
          {
            "reference": "urn:uuid:ca97838e-3ce3-4c51-ac0d-20574608810e"
          },
          {
            "reference": "urn:uuid:03f04fb7-6c4f-4fb4-bfdb-4b5d518a4994"
          },
          {
            "reference": "urn:uuid:a3cbad7c-ffbc-4bb3-b291-bd778bebeadd"
          },
          {
            "reference": "urn:uuid:cbba7c69-51aa-4a59-8b32-64dc61c2ec93"
          },
          {
            "reference": "urn:uuid:3509d7f3-f7d2-4560-8a66-b92cd959a732"
          },
          {
            "reference": "urn:uuid:4b6137f3-26de-4518-a3ff-918cfa67b44c"
          },
          {
            "reference": "urn:uuid:0b9ff3c5-d2fa-413f-a0e0-cf493abde878"
          }
        ],
        "status": "registered",
        "code": {
          "coding": [
            {
              "code": "11502-2",
              "system": "http://loinc.org",
              "display": "Laboratory report"
            }
          ]
        },
        "subject": {
          "reference": "urn:uuid:0528b881-9bea-4b75-9dc2-8e94cbf3f2b1",
          "display": "Magdolna Balog"
        }
      }
    },
    {
      "fullUrl": "urn:uuid:0528b881-9bea-4b75-9dc2-8e94cbf3f2b1",
      "resource": {
        "resourceType": "Patient",
        "id": "0528b881-9bea-4b75-9dc2-8e94cbf3f2b1",
        "meta": {
          "security": [
            {
              "system": "http://terminology.hl7.org/CodeSystem/v3-ActReason",
              "code": "HTEST"
            },
            {
              "system": "http://terminology.hl7.org/CodeSystem/v3-ActReason",
              "code": "TRAIN"
            }
          ],
          "tag": [
            {
              "system": "https://synderai.net/fhir/CodeSystem/tags",
              "code": "synthetic",
              "display": "SYNDERAI Synthetic data"
            }
          ],
          "profile": [
            "http://hl7.eu/fhir/base/StructureDefinition/patient-eu-core"
          ]
        },
        "identifier": [
          {
            "type": {
              "coding": [
                {
                  "code": "PT",
                  "system": "http://terminology.hl7.org/CodeSystem/v2-0203"
                }
              ]
            },
            "system": "http://ec.europa.eu/identifier/eci",
            "value": "2437-386280-4"
          },
          {
            "type": {
              "coding": [
                {
                  "code": "MR",
                  "system": "http://terminology.hl7.org/CodeSystem/v2-0203"
                }
              ]
            },
            "system": "http://local.setting.eu/identifier",
            "value": "1d8dc8c5-3a85-b1b5-4101-cca776d0be28"
          }
        ],
        "name": [
          {
            "family": "Balog"
          },
          {
            "given": [
              "Magdolna"
            ]
          },
          {
            "text": "Magdolna Balog"
          }
        ],
        "address": [
          {
            "line": [
              "Ady endre utca 160."
            ],
            "use": "home",
            "type": "physical",
            "postalCode": "3989",
            "city": "Némethídfa",
            "country": "Hungary"
          }
        ],
        "telecom": [
          {
            "system": "phone",
            "value": "+36 46 091-2914"
          }
        ],
        "extension": [
          {
            "url": "http://hl7.org/fhir/StructureDefinition/patient-nationality",
            "valueCodeableConcept": {
              "coding": [
                {
                  "code": "HU",
                  "system": "http://hl7.org/fhir/ValueSet/country"
                }
              ]
            }
          }
        ],
        "text": {
          "status": "generated",
          "div": "<div xmlns=\"http://www.w3.org/1999/xhtml\"><table class=\"hl7__ips\"><tr><td>Magdolna Balog</td><td>female</td><td>21-May-1946</td></tr></table></div>"
        },
        "gender": "female",
        "birthDate": "1946-05-21"
      }
    },
    {
      "fullUrl": "urn:uuid:95e140ab-6f6d-44de-bf9d-aa215834900c",
      "resource": {
        "resourceType": "ServiceRequest",
        "id": "95e140ab-6f6d-44de-bf9d-aa215834900c",
        "meta": {
          "profile": [
            "http://hl7.eu/fhir/laboratory/StructureDefinition/ServiceRequest-eu-lab"
          ]
        },
        "identifier": [
          {
            "system": "http://example.org",
            "value": "4aefc6e3-1ffd-40ba-93d5-25c75fadd833"
          }
        ],
        "specimen": [
          {
            "reference": "urn:uuid:a59a597a-63c4-4f3e-a7a3-cd212b1d32ec"
          },
          {
            "reference": "urn:uuid:f4a36417-9a65-485e-8de3-88e5454d7fdc"
          },
          {
            "reference": "urn:uuid:4b0dd126-4d8b-476c-8ccf-9afb572e596b"
          },
          {
            "reference": "urn:uuid:ff4a2e18-6ce5-49e7-bd05-2b6216cfcdc9"
          }
        ],
        "reasonCode": [
          {
            "coding": [
              {
                "code": "26929004",
                "system": "http://snomed.info/sct",
                "display": "Alzheimer&#039;s disease"
              }
            ]
          },
          {
            "coding": [
              {
                "code": "414545008",
                "system": "http://snomed.info/sct",
                "display": "Ischemic heart disease"
              }
            ]
          },
          {
            "coding": [
              {
                "code": "49436004",
                "system": "http://snomed.info/sct",
                "display": "Atrial fibrillation"
              }
            ]
          },
          {
            "coding": [
              {
                "code": "64859006",
                "system": "http://snomed.info/sct",
                "display": "Osteoporosis"
              }
            ]
          },
          {
            "coding": [
              {
                "code": "15777000",
                "system": "http://snomed.info/sct",
                "display": "Prediabetes"
              }
            ]
          },
          {
            "coding": [
              {
                "code": "271737000",
                "system": "http://snomed.info/sct",
                "display": "Anemia"
              }
            ]
          }
        ],
        "status": "active",
        "intent": "order",
        "code": {
          "coding": [
            {
              "code": "108252007",
              "system": "http://snomed.info/sct",
              "display": "Laboratory procedure"
            }
          ]
        },
        "subject": {
          "reference": "urn:uuid:0528b881-9bea-4b75-9dc2-8e94cbf3f2b1",
          "display": "Magdolna Balog"
        },
        "requester": {
          "reference": "urn:uuid:10da4b47-6461-40ea-8473-7a2d2f461d45"
        }
      }
    },
    {
      "fullUrl": "urn:uuid:10da4b47-6461-40ea-8473-7a2d2f461d45",
      "resource": {
        "resourceType": "PractitionerRole",
        "id": "10da4b47-6461-40ea-8473-7a2d2f461d45",
        "meta": {
          "profile": [
            "http://hl7.eu/fhir/base/StructureDefinition/practitionerRole-eu"
          ]
        },
        "text": {
          "status": "generated",
          "div": "<div xmlns=\"http://www.w3.org/1999/xhtml\">Provider Role Id: 10da4b47-6461-40ea-8473-7a2d2f461d45</div>"
        },
        "organization": {
          "reference": "urn:uuid:7abc572c-d489-4ec3-88b4-f3d06f3fe07c"
        }
      }
    },
    {
      "fullUrl": "urn:uuid:7abc572c-d489-4ec3-88b4-f3d06f3fe07c",
      "resource": {
        "resourceType": "Organization",
        "id": "7abc572c-d489-4ec3-88b4-f3d06f3fe07c",
        "meta": {
          "profile": [
            "http://hl7.eu/fhir/base/StructureDefinition/organization-eu"
          ]
        },
        "identifier": [
          {
            "assigner": {
              "display": "HL7 Europe"
            },
            "system": "urn:oid:2.16.840.1.113883.2.51.999",
            "value": "4790bcee-6a78-4b7b-aa86-bb28b8ff0f2c"
          }
        ],
        "address": [
          {
            "line": [
              "Csabai kapu 9-11"
            ],
            "city": "Miskolc",
            "postalCode": "3529",
            "country": "Hungary"
          }
        ],
        "text": {
          "status": "generated",
          "div": "<div xmlns=\"http://www.w3.org/1999/xhtml\">Provider Organization: Semmelweis Ignác Egészségügyi Központ és Egyetemi Oktató Kórház</div>"
        },
        "name": "Semmelweis Ignác Egészségügyi Központ és Egyetemi Oktató Kórház"
      }
    },
    {
      "fullUrl": "urn:uuid:a59a597a-63c4-4f3e-a7a3-cd212b1d32ec",
      "resource": {
        "resourceType": "Specimen",
        "id": "a59a597a-63c4-4f3e-a7a3-cd212b1d32ec",
        "meta": {
          "profile": [
            "http://hl7.eu/fhir/laboratory/StructureDefinition/Specimen-eu-lab"
          ]
        },
        "collection": {
          "collectedDateTime": "2017-06-19"
        },
        "text": {
          "status": "generated",
          "div": "<div xmlns=\"http://www.w3.org/1999/xhtml\"><table class=\"hl7__eu__lab__report\"><tr><th>Specimen</th><th>Collection Date</th></tr><tr><td>Whole blood specimen (specimen)</td><td><span class=\"nb\">19-Jun-2017</span></td></tr></table></div>"
        },
        "type": {
          "coding": [
            {
              "code": "258580003",
              "system": "http://snomed.info/sct",
              "display": "Whole blood specimen (specimen)"
            }
          ]
        }
      }
    },
    {
      "fullUrl": "urn:uuid:a59a597a-63c4-4f3e-a7a3-cd212b1d32ec",
      "resource": {
        "resourceType": "Specimen",
        "id": "a59a597a-63c4-4f3e-a7a3-cd212b1d32ec",
        "meta": {
          "profile": [
            "http://hl7.eu/fhir/laboratory/StructureDefinition/Specimen-eu-lab"
          ]
        },
        "collection": {
          "collectedDateTime": "2017-06-19"
        },
        "text": {
          "status": "generated",
          "div": "<div xmlns=\"http://www.w3.org/1999/xhtml\"><table class=\"hl7__eu__lab__report\"><tr><th>Specimen</th><th>Collection Date</th></tr><tr><td>Whole blood specimen (specimen)</td><td><span class=\"nb\">19-Jun-2017</span></td></tr></table></div>"
        },
        "type": {
          "coding": [
            {
              "code": "258580003",
              "system": "http://snomed.info/sct",
              "display": "Whole blood specimen (specimen)"
            }
          ]
        }
      }
    },
    {
      "fullUrl": "urn:uuid:f4a36417-9a65-485e-8de3-88e5454d7fdc",
      "resource": {
        "resourceType": "Specimen",
        "id": "f4a36417-9a65-485e-8de3-88e5454d7fdc",
        "meta": {
          "profile": [
            "http://hl7.eu/fhir/laboratory/StructureDefinition/Specimen-eu-lab"
          ]
        },
        "collection": {
          "collectedDateTime": "2017-06-19"
        },
        "text": {
          "status": "generated",
          "div": "<div xmlns=\"http://www.w3.org/1999/xhtml\"><table class=\"hl7__eu__lab__report\"><tr><th>Specimen</th><th>Collection Date</th></tr><tr><td>Acellular blood (serum or plasma) specimen</td><td><span class=\"nb\">19-Jun-2017</span></td></tr></table></div>"
        },
        "type": {
          "coding": [
            {
              "code": "122592007",
              "system": "http://snomed.info/sct",
              "display": "Acellular blood (serum or plasma) specimen"
            }
          ]
        }
      }
    },
    {
      "fullUrl": "urn:uuid:4b0dd126-4d8b-476c-8ccf-9afb572e596b",
      "resource": {
        "resourceType": "Specimen",
        "id": "4b0dd126-4d8b-476c-8ccf-9afb572e596b",
        "meta": {
          "profile": [
            "http://hl7.eu/fhir/laboratory/StructureDefinition/Specimen-eu-lab"
          ]
        },
        "collection": {
          "collectedDateTime": "2017-06-19"
        },
        "text": {
          "status": "generated",
          "div": "<div xmlns=\"http://www.w3.org/1999/xhtml\"><table class=\"hl7__eu__lab__report\"><tr><th>Specimen</th><th>Collection Date</th></tr><tr><td>Platelet poor plasma specimen</td><td><span class=\"nb\">19-Jun-2017</span></td></tr></table></div>"
        },
        "type": {
          "coding": [
            {
              "code": "119362004",
              "system": "http://snomed.info/sct",
              "display": "Platelet poor plasma specimen"
            }
          ]
        }
      }
    },
    {
      "fullUrl": "urn:uuid:ff4a2e18-6ce5-49e7-bd05-2b6216cfcdc9",
      "resource": {
        "resourceType": "Specimen",
        "id": "ff4a2e18-6ce5-49e7-bd05-2b6216cfcdc9",
        "meta": {
          "profile": [
            "http://hl7.eu/fhir/laboratory/StructureDefinition/Specimen-eu-lab"
          ]
        },
        "collection": {
          "collectedDateTime": "2017-06-19"
        },
        "text": {
          "status": "generated",
          "div": "<div xmlns=\"http://www.w3.org/1999/xhtml\"><table class=\"hl7__eu__lab__report\"><tr><th>Specimen</th><th>Collection Date</th></tr><tr><td>Arterial blood specimen</td><td><span class=\"nb\">19-Jun-2017</span></td></tr></table></div>"
        },
        "type": {
          "coding": [
            {
              "code": "122552005",
              "system": "http://snomed.info/sct",
              "display": "Arterial blood specimen"
            }
          ]
        }
      }
    },
    {
      "fullUrl": "urn:uuid:b8fef19e-0190-4630-bdf2-5114cef03d1b",
      "resource": {
        "resourceType": "Observation",
        "id": "b8fef19e-0190-4630-bdf2-5114cef03d1b",
        "meta": {
          "profile": [
            "http://hl7.eu/fhir/laboratory/StructureDefinition/Observation-resultslab-eu-lab"
          ]
        },
        "performer": [
          {
            "display": "The Central European Lab"
          }
        ],
        "category": [
          {
            "coding": [
              {
                "system": "http://terminology.hl7.org/CodeSystem/observation-category",
                "code": "laboratory"
              }
            ]
          }
        ],
        "code": {
          "coding": [
            {
              "code": "6690-2",
              "system": "http://loinc.org",
              "display": "Leukocytes [#/volume] in Blood by Automated count"
            }
          ],
          "text": "Leukocytes [#/volume] in Blood by Automated count"
        },
        "valueQuantity": {
          "system": "http://unitsofmeasure.org",
          "value": 4.9,
          "unit": "10*3/uL",
          "code": "10*3/uL"
        },
        "referenceRange": [
          {
            "low": {
              "value": 4,
              "code": "10*3/uL",
              "system": "http://unitsofmeasure.org"
            }
          },
          {
            "high": {
              "value": 11,
              "code": "10*3/uL",
              "system": "http://unitsofmeasure.org"
            }
          }
        ],
        "text": {
          "status": "generated",
          "div": "<div xmlns=\"http://www.w3.org/1999/xhtml\"><table class=\"hl7__eu__lab__report\"><tr><th>Test</th><th>19-Jun-2017</th><th>Reference&#xA0;Range</th><th>Unit</th></tr><tr><td>Leukocytes [#/volume] in Blood by Automated count</td><td>4.9</td><td>4 - 11</td><td></td><td>10*3/uL</td></tr></table></div>"
        },
        "status": "final",
        "subject": {
          "reference": "urn:uuid:0528b881-9bea-4b75-9dc2-8e94cbf3f2b1",
          "display": "Magdolna Balog"
        },
        "effectiveDateTime": "2017-06-19T15:32:25Z",
        "specimen": {
          "reference": "urn:uuid:a59a597a-63c4-4f3e-a7a3-cd212b1d32ec"
        }
      }
    },
    {
      "fullUrl": "urn:uuid:04017ba4-0b4f-4985-97d6-0e941afb764c",
      "resource": {
        "resourceType": "Observation",
        "id": "04017ba4-0b4f-4985-97d6-0e941afb764c",
        "meta": {
          "profile": [
            "http://hl7.eu/fhir/laboratory/StructureDefinition/Observation-resultslab-eu-lab"
          ]
        },
        "performer": [
          {
            "display": "The Central European Lab"
          }
        ],
        "category": [
          {
            "coding": [
              {
                "system": "http://terminology.hl7.org/CodeSystem/observation-category",
                "code": "laboratory"
              }
            ]
          }
        ],
        "code": {
          "coding": [
            {
              "code": "789-8",
              "system": "http://loinc.org",
              "display": "Erythrocytes [#/volume] in Blood by Automated count"
            }
          ],
          "text": "Erythrocytes [#/volume] in Blood by Automated count"
        },
        "valueQuantity": {
          "system": "http://unitsofmeasure.org",
          "value": 4.5,
          "unit": "10*6/uL",
          "code": "10*6/uL"
        },
        "referenceRange": [
          {
            "low": {
              "value": 4.2,
              "code": "10*6/uL",
              "system": "http://unitsofmeasure.org"
            }
          },
          {
            "high": {
              "value": 5.8,
              "code": "10*6/uL",
              "system": "http://unitsofmeasure.org"
            }
          }
        ],
        "text": {
          "status": "generated",
          "div": "<div xmlns=\"http://www.w3.org/1999/xhtml\"><table class=\"hl7__eu__lab__report\"><tr><th>Test</th><th>19-Jun-2017</th><th>Reference&#xA0;Range</th><th>Unit</th></tr><tr><td>Erythrocytes [#/volume] in Blood by Automated count</td><td>4.5</td><td>4.2 - 5.8</td><td></td><td>10*6/uL</td></tr></table></div>"
        },
        "status": "final",
        "subject": {
          "reference": "urn:uuid:0528b881-9bea-4b75-9dc2-8e94cbf3f2b1",
          "display": "Magdolna Balog"
        },
        "effectiveDateTime": "2017-06-19T15:32:25Z",
        "specimen": {
          "reference": "urn:uuid:a59a597a-63c4-4f3e-a7a3-cd212b1d32ec"
        }
      }
    },
    {
      "fullUrl": "urn:uuid:3f5d10d2-fe22-42b3-bbbf-346eb2f0112b",
      "resource": {
        "resourceType": "Observation",
        "id": "3f5d10d2-fe22-42b3-bbbf-346eb2f0112b",
        "meta": {
          "profile": [
            "http://hl7.eu/fhir/laboratory/StructureDefinition/Observation-resultslab-eu-lab"
          ]
        },
        "performer": [
          {
            "display": "The Central European Lab"
          }
        ],
        "category": [
          {
            "coding": [
              {
                "system": "http://terminology.hl7.org/CodeSystem/observation-category",
                "code": "laboratory"
              }
            ]
          }
        ],
        "code": {
          "coding": [
            {
              "code": "718-7",
              "system": "http://loinc.org",
              "display": "Hemoglobin [Mass/volume] in Blood"
            }
          ],
          "text": "Hemoglobin [Mass/volume] in Blood"
        },
        "valueQuantity": {
          "system": "http://unitsofmeasure.org",
          "value": 16,
          "unit": "g/dL",
          "code": "g/dL"
        },
        "referenceRange": [
          {
            "low": {
              "value": 12,
              "code": "g/dL",
              "system": "http://unitsofmeasure.org"
            }
          },
          {
            "high": {
              "value": 16,
              "code": "g/dL",
              "system": "http://unitsofmeasure.org"
            }
          }
        ],
        "text": {
          "status": "generated",
          "div": "<div xmlns=\"http://www.w3.org/1999/xhtml\"><table class=\"hl7__eu__lab__report\"><tr><th>Test</th><th>19-Jun-2017</th><th>Reference&#xA0;Range</th><th>Unit</th></tr><tr><td>Hemoglobin [Mass/volume] in Blood</td><td>16.0</td><td>12 - 16</td><td></td><td>g/dL</td></tr></table></div>"
        },
        "status": "final",
        "subject": {
          "reference": "urn:uuid:0528b881-9bea-4b75-9dc2-8e94cbf3f2b1",
          "display": "Magdolna Balog"
        },
        "effectiveDateTime": "2017-06-19T15:32:25Z",
        "specimen": {
          "reference": "urn:uuid:a59a597a-63c4-4f3e-a7a3-cd212b1d32ec"
        }
      }
    },
    {
      "fullUrl": "urn:uuid:ad5d5187-9e28-493a-97c7-6f4711ef89fa",
      "resource": {
        "resourceType": "Observation",
        "id": "ad5d5187-9e28-493a-97c7-6f4711ef89fa",
        "meta": {
          "profile": [
            "http://hl7.eu/fhir/laboratory/StructureDefinition/Observation-resultslab-eu-lab"
          ]
        },
        "performer": [
          {
            "display": "The Central European Lab"
          }
        ],
        "category": [
          {
            "coding": [
              {
                "system": "http://terminology.hl7.org/CodeSystem/observation-category",
                "code": "laboratory"
              }
            ]
          }
        ],
        "code": {
          "coding": [
            {
              "code": "4544-3",
              "system": "http://loinc.org",
              "display": "Hematocrit [Volume Fraction] of Blood by Automated count"
            }
          ],
          "text": "Hematocrit [Volume Fraction] of Blood by Automated count"
        },
        "valueQuantity": {
          "system": "http://unitsofmeasure.org",
          "value": 45.9,
          "unit": "%",
          "code": "%"
        },
        "referenceRange": [
          {
            "low": {
              "value": 36,
              "code": "%",
              "system": "http://unitsofmeasure.org"
            }
          },
          {
            "high": {
              "value": 48,
              "code": "%",
              "system": "http://unitsofmeasure.org"
            }
          }
        ],
        "text": {
          "status": "generated",
          "div": "<div xmlns=\"http://www.w3.org/1999/xhtml\"><table class=\"hl7__eu__lab__report\"><tr><th>Test</th><th>19-Jun-2017</th><th>Reference&#xA0;Range</th><th>Unit</th></tr><tr><td>Hematocrit [Volume Fraction] of Blood by Automated count</td><td>45.9</td><td>36 - 48</td><td></td><td>%</td></tr></table></div>"
        },
        "status": "final",
        "subject": {
          "reference": "urn:uuid:0528b881-9bea-4b75-9dc2-8e94cbf3f2b1",
          "display": "Magdolna Balog"
        },
        "effectiveDateTime": "2017-06-19T15:32:25Z",
        "specimen": {
          "reference": "urn:uuid:a59a597a-63c4-4f3e-a7a3-cd212b1d32ec"
        }
      }
    },
    {
      "fullUrl": "urn:uuid:b0af697b-556a-4f58-a17c-0902f91ddd05",
      "resource": {
        "resourceType": "Observation",
        "id": "b0af697b-556a-4f58-a17c-0902f91ddd05",
        "meta": {
          "profile": [
            "http://hl7.eu/fhir/laboratory/StructureDefinition/Observation-resultslab-eu-lab"
          ]
        },
        "performer": [
          {
            "display": "The Central European Lab"
          }
        ],
        "category": [
          {
            "coding": [
              {
                "system": "http://terminology.hl7.org/CodeSystem/observation-category",
                "code": "laboratory"
              }
            ]
          }
        ],
        "code": {
          "coding": [
            {
              "code": "787-2",
              "system": "http://loinc.org",
              "display": "MCV [Entitic volume] by Automated count"
            }
          ],
          "text": "MCV [Entitic volume] by Automated count"
        },
        "valueQuantity": {
          "system": "http://unitsofmeasure.org",
          "value": 84.9,
          "unit": "fL",
          "code": "fL"
        },
        "referenceRange": [
          {
            "low": {
              "value": 78,
              "code": "fL",
              "system": "http://unitsofmeasure.org"
            }
          },
          {
            "high": {
              "value": 98,
              "code": "fL",
              "system": "http://unitsofmeasure.org"
            }
          }
        ],
        "text": {
          "status": "generated",
          "div": "<div xmlns=\"http://www.w3.org/1999/xhtml\"><table class=\"hl7__eu__lab__report\"><tr><th>Test</th><th>19-Jun-2017</th><th>Reference&#xA0;Range</th><th>Unit</th></tr><tr><td>MCV [Entitic volume] by Automated count</td><td>84.9</td><td>78 - 98</td><td></td><td>fL</td></tr></table></div>"
        },
        "status": "final",
        "subject": {
          "reference": "urn:uuid:0528b881-9bea-4b75-9dc2-8e94cbf3f2b1",
          "display": "Magdolna Balog"
        },
        "effectiveDateTime": "2017-06-19T15:32:25Z",
        "specimen": {
          "reference": "urn:uuid:a59a597a-63c4-4f3e-a7a3-cd212b1d32ec"
        }
      }
    },
    {
      "fullUrl": "urn:uuid:413fc8f7-db96-44a3-a160-dc64a3a208bd",
      "resource": {
        "resourceType": "Observation",
        "id": "413fc8f7-db96-44a3-a160-dc64a3a208bd",
        "meta": {
          "profile": [
            "http://hl7.eu/fhir/laboratory/StructureDefinition/Observation-resultslab-eu-lab"
          ]
        },
        "performer": [
          {
            "display": "The Central European Lab"
          }
        ],
        "category": [
          {
            "coding": [
              {
                "system": "http://terminology.hl7.org/CodeSystem/observation-category",
                "code": "laboratory"
              }
            ]
          }
        ],
        "code": {
          "coding": [
            {
              "code": "785-6",
              "system": "http://loinc.org",
              "display": "MCH [Entitic mass] by Automated count"
            }
          ],
          "text": "MCH [Entitic mass] by Automated count"
        },
        "valueQuantity": {
          "system": "http://unitsofmeasure.org",
          "value": 32.2,
          "unit": "pg",
          "code": "pg"
        },
        "referenceRange": [
          {
            "low": {
              "value": 27,
              "code": "pg",
              "system": "http://unitsofmeasure.org"
            }
          },
          {
            "high": {
              "value": 34.5,
              "code": "pg",
              "system": "http://unitsofmeasure.org"
            }
          }
        ],
        "text": {
          "status": "generated",
          "div": "<div xmlns=\"http://www.w3.org/1999/xhtml\"><table class=\"hl7__eu__lab__report\"><tr><th>Test</th><th>19-Jun-2017</th><th>Reference&#xA0;Range</th><th>Unit</th></tr><tr><td>MCH [Entitic mass] by Automated count</td><td>32.2</td><td>27 - 34.5</td><td></td><td>pg</td></tr></table></div>"
        },
        "status": "final",
        "subject": {
          "reference": "urn:uuid:0528b881-9bea-4b75-9dc2-8e94cbf3f2b1",
          "display": "Magdolna Balog"
        },
        "effectiveDateTime": "2017-06-19T15:32:25Z",
        "specimen": {
          "reference": "urn:uuid:a59a597a-63c4-4f3e-a7a3-cd212b1d32ec"
        }
      }
    },
    {
      "fullUrl": "urn:uuid:1d9c47ba-bcec-4f98-bc73-7ade8ff263fc",
      "resource": {
        "resourceType": "Observation",
        "id": "1d9c47ba-bcec-4f98-bc73-7ade8ff263fc",
        "meta": {
          "profile": [
            "http://hl7.eu/fhir/laboratory/StructureDefinition/Observation-resultslab-eu-lab"
          ]
        },
        "performer": [
          {
            "display": "The Central European Lab"
          }
        ],
        "category": [
          {
            "coding": [
              {
                "system": "http://terminology.hl7.org/CodeSystem/observation-category",
                "code": "laboratory"
              }
            ]
          }
        ],
        "code": {
          "coding": [
            {
              "code": "786-4",
              "system": "http://loinc.org",
              "display": "MCHC [Mass/volume] by Automated count"
            }
          ],
          "text": "MCHC [Mass/volume] by Automated count"
        },
        "valueQuantity": {
          "system": "http://unitsofmeasure.org",
          "value": 32.9,
          "unit": "g/dL",
          "code": "g/dL"
        },
        "referenceRange": [
          {
            "low": {
              "value": 31.5,
              "code": "g/dL",
              "system": "http://unitsofmeasure.org"
            }
          },
          {
            "high": {
              "value": 35.5,
              "code": "g/dL",
              "system": "http://unitsofmeasure.org"
            }
          }
        ],
        "text": {
          "status": "generated",
          "div": "<div xmlns=\"http://www.w3.org/1999/xhtml\"><table class=\"hl7__eu__lab__report\"><tr><th>Test</th><th>19-Jun-2017</th><th>Reference&#xA0;Range</th><th>Unit</th></tr><tr><td>MCHC [Mass/volume] by Automated count</td><td>32.9</td><td>31.5 - 35.5</td><td></td><td>g/dL</td></tr></table></div>"
        },
        "status": "final",
        "subject": {
          "reference": "urn:uuid:0528b881-9bea-4b75-9dc2-8e94cbf3f2b1",
          "display": "Magdolna Balog"
        },
        "effectiveDateTime": "2017-06-19T15:32:25Z",
        "specimen": {
          "reference": "urn:uuid:a59a597a-63c4-4f3e-a7a3-cd212b1d32ec"
        }
      }
    },
    {
      "fullUrl": "urn:uuid:df872f57-f634-4c7a-8bd3-a5d9cb9f3647",
      "resource": {
        "resourceType": "Observation",
        "id": "df872f57-f634-4c7a-8bd3-a5d9cb9f3647",
        "meta": {
          "profile": [
            "http://hl7.eu/fhir/laboratory/StructureDefinition/Observation-resultslab-eu-lab"
          ]
        },
        "performer": [
          {
            "display": "The Central European Lab"
          }
        ],
        "category": [
          {
            "coding": [
              {
                "system": "http://terminology.hl7.org/CodeSystem/observation-category",
                "code": "laboratory"
              }
            ]
          }
        ],
        "code": {
          "coding": [
            {
              "code": "788-0",
              "system": "http://loinc.org",
              "display": "Erythrocyte distribution width [Ratio] by Automated count"
            }
          ],
          "text": "Erythrocyte distribution width [Ratio] by Automated count"
        },
        "valueQuantity": {
          "system": "http://unitsofmeasure.org",
          "value": 13.3,
          "unit": "%",
          "code": "%"
        },
        "referenceRange": [
          {
            "low": {
              "value": 11.5,
              "code": "%",
              "system": "http://unitsofmeasure.org"
            }
          },
          {
            "high": {
              "value": 16,
              "code": "%",
              "system": "http://unitsofmeasure.org"
            }
          }
        ],
        "text": {
          "status": "generated",
          "div": "<div xmlns=\"http://www.w3.org/1999/xhtml\"><table class=\"hl7__eu__lab__report\"><tr><th>Test</th><th>19-Jun-2017</th><th>Reference&#xA0;Range</th><th>Unit</th></tr><tr><td>Erythrocyte distribution width [Ratio] by Automated count</td><td>13.3</td><td>11.5 - 16</td><td></td><td>%</td></tr></table></div>"
        },
        "status": "final",
        "subject": {
          "reference": "urn:uuid:0528b881-9bea-4b75-9dc2-8e94cbf3f2b1",
          "display": "Magdolna Balog"
        },
        "effectiveDateTime": "2017-06-19T15:32:25Z",
        "specimen": {
          "reference": "urn:uuid:a59a597a-63c4-4f3e-a7a3-cd212b1d32ec"
        }
      }
    },
    {
      "fullUrl": "urn:uuid:65bb2bdb-282d-40e0-8531-7647777bb94b",
      "resource": {
        "resourceType": "Observation",
        "id": "65bb2bdb-282d-40e0-8531-7647777bb94b",
        "meta": {
          "profile": [
            "http://hl7.eu/fhir/laboratory/StructureDefinition/Observation-resultslab-eu-lab"
          ]
        },
        "performer": [
          {
            "display": "The Central European Lab"
          }
        ],
        "category": [
          {
            "coding": [
              {
                "system": "http://terminology.hl7.org/CodeSystem/observation-category",
                "code": "laboratory"
              }
            ]
          }
        ],
        "code": {
          "coding": [
            {
              "code": "777-3",
              "system": "http://loinc.org",
              "display": "Platelets [#/volume] in Blood by Automated count"
            }
          ],
          "text": "Platelets [#/volume] in Blood by Automated count"
        },
        "valueQuantity": {
          "system": "http://unitsofmeasure.org",
          "value": 296.5,
          "unit": "10*3/uL",
          "code": "10*3/uL"
        },
        "referenceRange": [
          {
            "low": {
              "value": 150,
              "code": "10*3/uL",
              "system": "http://unitsofmeasure.org"
            }
          },
          {
            "high": {
              "value": 350,
              "code": "10*3/uL",
              "system": "http://unitsofmeasure.org"
            }
          }
        ],
        "text": {
          "status": "generated",
          "div": "<div xmlns=\"http://www.w3.org/1999/xhtml\"><table class=\"hl7__eu__lab__report\"><tr><th>Test</th><th>19-Jun-2017</th><th>Reference&#xA0;Range</th><th>Unit</th></tr><tr><td>Platelets [#/volume] in Blood by Automated count</td><td>296.5</td><td>150 - 350</td><td></td><td>10*3/uL</td></tr></table></div>"
        },
        "status": "final",
        "subject": {
          "reference": "urn:uuid:0528b881-9bea-4b75-9dc2-8e94cbf3f2b1",
          "display": "Magdolna Balog"
        },
        "effectiveDateTime": "2017-06-19T15:32:25Z",
        "specimen": {
          "reference": "urn:uuid:a59a597a-63c4-4f3e-a7a3-cd212b1d32ec"
        }
      }
    },
    {
      "fullUrl": "urn:uuid:4e120ec7-0935-4f4b-85fc-5c6758c2856a",
      "resource": {
        "resourceType": "Observation",
        "id": "4e120ec7-0935-4f4b-85fc-5c6758c2856a",
        "meta": {
          "profile": [
            "http://hl7.eu/fhir/laboratory/StructureDefinition/Observation-resultslab-eu-lab"
          ]
        },
        "performer": [
          {
            "display": "The Central European Lab"
          }
        ],
        "category": [
          {
            "coding": [
              {
                "system": "http://terminology.hl7.org/CodeSystem/observation-category",
                "code": "laboratory"
              }
            ]
          }
        ],
        "code": {
          "coding": [
            {
              "code": "2345-7",
              "system": "http://loinc.org",
              "display": "Glucose [Mass/volume] in Serum or Plasma"
            }
          ],
          "text": "Glucose [Mass/volume] in Serum or Plasma"
        },
        "valueQuantity": {
          "system": "http://unitsofmeasure.org",
          "value": 83.3,
          "unit": "mg/dL",
          "code": "mg/dL"
        },
        "referenceRange": [
          {
            "low": {
              "value": 70,
              "code": "mg/dL",
              "system": "http://unitsofmeasure.org"
            }
          },
          {
            "high": {
              "value": 140,
              "code": "mg/dL",
              "system": "http://unitsofmeasure.org"
            }
          }
        ],
        "text": {
          "status": "generated",
          "div": "<div xmlns=\"http://www.w3.org/1999/xhtml\"><table class=\"hl7__eu__lab__report\"><tr><th>Test</th><th>19-Jun-2017</th><th>Reference&#xA0;Range</th><th>Unit</th></tr><tr><td>Glucose [Mass/volume] in Serum or Plasma</td><td>83.3</td><td>70 - 140</td><td></td><td>mg/dL</td></tr></table></div>"
        },
        "status": "final",
        "subject": {
          "reference": "urn:uuid:0528b881-9bea-4b75-9dc2-8e94cbf3f2b1",
          "display": "Magdolna Balog"
        },
        "effectiveDateTime": "2017-06-19T15:32:25Z",
        "specimen": {
          "reference": "urn:uuid:f4a36417-9a65-485e-8de3-88e5454d7fdc"
        }
      }
    },
    {
      "fullUrl": "urn:uuid:31ea9d75-f1d8-4e91-8f0d-b3b5728febc6",
      "resource": {
        "resourceType": "Observation",
        "id": "31ea9d75-f1d8-4e91-8f0d-b3b5728febc6",
        "meta": {
          "profile": [
            "http://hl7.eu/fhir/laboratory/StructureDefinition/Observation-resultslab-eu-lab"
          ]
        },
        "performer": [
          {
            "display": "The Central European Lab"
          }
        ],
        "category": [
          {
            "coding": [
              {
                "system": "http://terminology.hl7.org/CodeSystem/observation-category",
                "code": "laboratory"
              }
            ]
          }
        ],
        "code": {
          "coding": [
            {
              "code": "3094-0",
              "system": "http://loinc.org",
              "display": "Urea nitrogen [Mass/volume] in Serum or Plasma"
            }
          ],
          "text": "Urea nitrogen [Mass/volume] in Serum or Plasma"
        },
        "valueQuantity": {
          "system": "http://unitsofmeasure.org",
          "value": 16.7,
          "unit": "mg/dL",
          "code": "mg/dL"
        },
        "referenceRange": [
          {
            "low": {
              "value": 7,
              "code": "mg/dL",
              "system": "http://unitsofmeasure.org"
            }
          },
          {
            "high": {
              "value": 25,
              "code": "mg/dL",
              "system": "http://unitsofmeasure.org"
            }
          }
        ],
        "text": {
          "status": "generated",
          "div": "<div xmlns=\"http://www.w3.org/1999/xhtml\"><table class=\"hl7__eu__lab__report\"><tr><th>Test</th><th>19-Jun-2017</th><th>Reference&#xA0;Range</th><th>Unit</th></tr><tr><td>Urea nitrogen [Mass/volume] in Serum or Plasma</td><td>16.7</td><td>7 - 25</td><td></td><td>mg/dL</td></tr></table></div>"
        },
        "status": "final",
        "subject": {
          "reference": "urn:uuid:0528b881-9bea-4b75-9dc2-8e94cbf3f2b1",
          "display": "Magdolna Balog"
        },
        "effectiveDateTime": "2017-06-19T15:32:25Z",
        "specimen": {
          "reference": "urn:uuid:f4a36417-9a65-485e-8de3-88e5454d7fdc"
        }
      }
    },
    {
      "fullUrl": "urn:uuid:80b993bf-a775-4b75-baa5-bcb14db24934",
      "resource": {
        "resourceType": "Observation",
        "id": "80b993bf-a775-4b75-baa5-bcb14db24934",
        "meta": {
          "profile": [
            "http://hl7.eu/fhir/laboratory/StructureDefinition/Observation-resultslab-eu-lab"
          ]
        },
        "performer": [
          {
            "display": "The Central European Lab"
          }
        ],
        "category": [
          {
            "coding": [
              {
                "system": "http://terminology.hl7.org/CodeSystem/observation-category",
                "code": "laboratory"
              }
            ]
          }
        ],
        "code": {
          "coding": [
            {
              "code": "2160-0",
              "system": "http://loinc.org",
              "display": "Creatinine [Mass/volume] in Serum or Plasma"
            }
          ],
          "text": "Creatinine [Mass/volume] in Serum or Plasma"
        },
        "valueQuantity": {
          "system": "http://unitsofmeasure.org",
          "value": 2.8,
          "unit": "mg/dL",
          "code": "mg/dL"
        },
        "referenceRange": [
          {
            "low": {
              "value": 0.6,
              "code": "mg/dL",
              "system": "http://unitsofmeasure.org"
            }
          },
          {
            "high": {
              "value": 1.1,
              "code": "mg/dL",
              "system": "http://unitsofmeasure.org"
            }
          }
        ],
        "interpretation": [
          {
            "coding": [
              {
                "code": "H",
                "system": "http://terminology.hl7.org/CodeSystem/v3-ObservationInterpretation",
                "display": "High"
              }
            ]
          }
        ],
        "text": {
          "status": "generated",
          "div": "<div xmlns=\"http://www.w3.org/1999/xhtml\"><table class=\"hl7__eu__lab__report\"><tr><th>Test</th><th>19-Jun-2017</th><th>Reference&#xA0;Range</th><th>Unit</th></tr><tr><td>Creatinine [Mass/volume] in Serum or Plasma</td><td>2.8</td><td>0.6 - 1.1</td><td>H</td><td>mg/dL</td></tr></table></div>"
        },
        "status": "final",
        "subject": {
          "reference": "urn:uuid:0528b881-9bea-4b75-9dc2-8e94cbf3f2b1",
          "display": "Magdolna Balog"
        },
        "effectiveDateTime": "2017-06-19T15:32:25Z",
        "specimen": {
          "reference": "urn:uuid:f4a36417-9a65-485e-8de3-88e5454d7fdc"
        }
      }
    },
    {
      "fullUrl": "urn:uuid:798f8cb8-2650-4284-8b0a-1f05b197b2cd",
      "resource": {
        "resourceType": "Observation",
        "id": "798f8cb8-2650-4284-8b0a-1f05b197b2cd",
        "meta": {
          "profile": [
            "http://hl7.eu/fhir/laboratory/StructureDefinition/Observation-resultslab-eu-lab"
          ]
        },
        "performer": [
          {
            "display": "The Central European Lab"
          }
        ],
        "category": [
          {
            "coding": [
              {
                "system": "http://terminology.hl7.org/CodeSystem/observation-category",
                "code": "laboratory"
              }
            ]
          }
        ],
        "code": {
          "coding": [
            {
              "code": "17861-6",
              "system": "http://loinc.org",
              "display": "Calcium [Mass/volume] in Serum or Plasma"
            }
          ],
          "text": "Calcium [Mass/volume] in Serum or Plasma"
        },
        "valueQuantity": {
          "system": "http://unitsofmeasure.org",
          "value": 10.2,
          "unit": "mg/dL",
          "code": "mg/dL"
        },
        "referenceRange": [
          {
            "low": {
              "value": 8.5,
              "code": "mg/dL",
              "system": "http://unitsofmeasure.org"
            }
          },
          {
            "high": {
              "value": 10.4,
              "code": "mg/dL",
              "system": "http://unitsofmeasure.org"
            }
          }
        ],
        "text": {
          "status": "generated",
          "div": "<div xmlns=\"http://www.w3.org/1999/xhtml\"><table class=\"hl7__eu__lab__report\"><tr><th>Test</th><th>19-Jun-2017</th><th>Reference&#xA0;Range</th><th>Unit</th></tr><tr><td>Calcium [Mass/volume] in Serum or Plasma</td><td>10.2</td><td>8.5 - 10.4</td><td></td><td>mg/dL</td></tr></table></div>"
        },
        "status": "final",
        "subject": {
          "reference": "urn:uuid:0528b881-9bea-4b75-9dc2-8e94cbf3f2b1",
          "display": "Magdolna Balog"
        },
        "effectiveDateTime": "2017-06-19T15:32:25Z",
        "specimen": {
          "reference": "urn:uuid:f4a36417-9a65-485e-8de3-88e5454d7fdc"
        }
      }
    },
    {
      "fullUrl": "urn:uuid:a1e02e8c-a368-4361-ac0a-7bb2a7c36311",
      "resource": {
        "resourceType": "Observation",
        "id": "a1e02e8c-a368-4361-ac0a-7bb2a7c36311",
        "meta": {
          "profile": [
            "http://hl7.eu/fhir/laboratory/StructureDefinition/Observation-resultslab-eu-lab"
          ]
        },
        "performer": [
          {
            "display": "The Central European Lab"
          }
        ],
        "category": [
          {
            "coding": [
              {
                "system": "http://terminology.hl7.org/CodeSystem/observation-category",
                "code": "laboratory"
              }
            ]
          }
        ],
        "code": {
          "coding": [
            {
              "code": "2951-2",
              "system": "http://loinc.org",
              "display": "Sodium [Moles/volume] in Serum or Plasma"
            }
          ],
          "text": "Sodium [Moles/volume] in Serum or Plasma"
        },
        "valueQuantity": {
          "system": "http://unitsofmeasure.org",
          "value": 142.6,
          "unit": "mmol/L",
          "code": "mmol/L"
        },
        "referenceRange": [
          {
            "low": {
              "value": 135,
              "code": "mmol/L",
              "system": "http://unitsofmeasure.org"
            }
          },
          {
            "high": {
              "value": 145,
              "code": "mmol/L",
              "system": "http://unitsofmeasure.org"
            }
          }
        ],
        "text": {
          "status": "generated",
          "div": "<div xmlns=\"http://www.w3.org/1999/xhtml\"><table class=\"hl7__eu__lab__report\"><tr><th>Test</th><th>19-Jun-2017</th><th>Reference&#xA0;Range</th><th>Unit</th></tr><tr><td>Sodium [Moles/volume] in Serum or Plasma</td><td>142.6</td><td>135 - 145</td><td></td><td>mmol/L</td></tr></table></div>"
        },
        "status": "final",
        "subject": {
          "reference": "urn:uuid:0528b881-9bea-4b75-9dc2-8e94cbf3f2b1",
          "display": "Magdolna Balog"
        },
        "effectiveDateTime": "2017-06-19T15:32:25Z",
        "specimen": {
          "reference": "urn:uuid:f4a36417-9a65-485e-8de3-88e5454d7fdc"
        }
      }
    },
    {
      "fullUrl": "urn:uuid:65314fa4-277e-40b9-891c-28284b307ed1",
      "resource": {
        "resourceType": "Observation",
        "id": "65314fa4-277e-40b9-891c-28284b307ed1",
        "meta": {
          "profile": [
            "http://hl7.eu/fhir/laboratory/StructureDefinition/Observation-resultslab-eu-lab"
          ]
        },
        "performer": [
          {
            "display": "The Central European Lab"
          }
        ],
        "category": [
          {
            "coding": [
              {
                "system": "http://terminology.hl7.org/CodeSystem/observation-category",
                "code": "laboratory"
              }
            ]
          }
        ],
        "code": {
          "coding": [
            {
              "code": "2823-3",
              "system": "http://loinc.org",
              "display": "Potassium [Moles/volume] in Serum or Plasma"
            }
          ],
          "text": "Potassium [Moles/volume] in Serum or Plasma"
        },
        "valueQuantity": {
          "system": "http://unitsofmeasure.org",
          "value": 4,
          "unit": "mmol/L",
          "code": "mmol/L"
        },
        "referenceRange": [
          {
            "low": {
              "value": 3.5,
              "code": "mmol/L",
              "system": "http://unitsofmeasure.org"
            }
          },
          {
            "high": {
              "value": 5.3,
              "code": "mmol/L",
              "system": "http://unitsofmeasure.org"
            }
          }
        ],
        "text": {
          "status": "generated",
          "div": "<div xmlns=\"http://www.w3.org/1999/xhtml\"><table class=\"hl7__eu__lab__report\"><tr><th>Test</th><th>19-Jun-2017</th><th>Reference&#xA0;Range</th><th>Unit</th></tr><tr><td>Potassium [Moles/volume] in Serum or Plasma</td><td>4.0</td><td>3.5 - 5.3</td><td></td><td>mmol/L</td></tr></table></div>"
        },
        "status": "final",
        "subject": {
          "reference": "urn:uuid:0528b881-9bea-4b75-9dc2-8e94cbf3f2b1",
          "display": "Magdolna Balog"
        },
        "effectiveDateTime": "2017-06-19T15:32:25Z",
        "specimen": {
          "reference": "urn:uuid:f4a36417-9a65-485e-8de3-88e5454d7fdc"
        }
      }
    },
    {
      "fullUrl": "urn:uuid:0f00b0c2-b1d7-4919-be9d-cf743b256a7f",
      "resource": {
        "resourceType": "Observation",
        "id": "0f00b0c2-b1d7-4919-be9d-cf743b256a7f",
        "meta": {
          "profile": [
            "http://hl7.eu/fhir/laboratory/StructureDefinition/Observation-resultslab-eu-lab"
          ]
        },
        "performer": [
          {
            "display": "The Central European Lab"
          }
        ],
        "category": [
          {
            "coding": [
              {
                "system": "http://terminology.hl7.org/CodeSystem/observation-category",
                "code": "laboratory"
              }
            ]
          }
        ],
        "code": {
          "coding": [
            {
              "code": "2075-0",
              "system": "http://loinc.org",
              "display": "Chloride [Moles/volume] in Serum or Plasma"
            }
          ],
          "text": "Chloride [Moles/volume] in Serum or Plasma"
        },
        "valueQuantity": {
          "system": "http://unitsofmeasure.org",
          "value": 105.7,
          "unit": "mmol/L",
          "code": "mmol/L"
        },
        "referenceRange": [
          {
            "low": {
              "value": 98,
              "code": "mmol/L",
              "system": "http://unitsofmeasure.org"
            }
          },
          {
            "high": {
              "value": 108,
              "code": "mmol/L",
              "system": "http://unitsofmeasure.org"
            }
          }
        ],
        "text": {
          "status": "generated",
          "div": "<div xmlns=\"http://www.w3.org/1999/xhtml\"><table class=\"hl7__eu__lab__report\"><tr><th>Test</th><th>19-Jun-2017</th><th>Reference&#xA0;Range</th><th>Unit</th></tr><tr><td>Chloride [Moles/volume] in Serum or Plasma</td><td>105.7</td><td>98 - 108</td><td></td><td>mmol/L</td></tr></table></div>"
        },
        "status": "final",
        "subject": {
          "reference": "urn:uuid:0528b881-9bea-4b75-9dc2-8e94cbf3f2b1",
          "display": "Magdolna Balog"
        },
        "effectiveDateTime": "2017-06-19T15:32:25Z",
        "specimen": {
          "reference": "urn:uuid:f4a36417-9a65-485e-8de3-88e5454d7fdc"
        }
      }
    },
    {
      "fullUrl": "urn:uuid:b6337aaf-2596-41bc-8af9-6f21da88f2d0",
      "resource": {
        "resourceType": "Observation",
        "id": "b6337aaf-2596-41bc-8af9-6f21da88f2d0",
        "meta": {
          "profile": [
            "http://hl7.eu/fhir/laboratory/StructureDefinition/Observation-resultslab-eu-lab"
          ]
        },
        "performer": [
          {
            "display": "The Central European Lab"
          }
        ],
        "category": [
          {
            "coding": [
              {
                "system": "http://terminology.hl7.org/CodeSystem/observation-category",
                "code": "laboratory"
              }
            ]
          }
        ],
        "code": {
          "coding": [
            {
              "code": "2028-9",
              "system": "http://loinc.org",
              "display": "Carbon dioxide, total [Moles/volume] in Serum or Plasma"
            }
          ],
          "text": "Carbon dioxide, total [Moles/volume] in Serum or Plasma"
        },
        "valueQuantity": {
          "system": "http://unitsofmeasure.org",
          "value": 25.6,
          "unit": "mmol/L",
          "code": "mmol/L"
        },
        "referenceRange": [
          {
            "low": {
              "value": 22,
              "code": "mmol/L",
              "system": "http://unitsofmeasure.org"
            }
          },
          {
            "high": {
              "value": 29,
              "code": "mmol/L",
              "system": "http://unitsofmeasure.org"
            }
          }
        ],
        "text": {
          "status": "generated",
          "div": "<div xmlns=\"http://www.w3.org/1999/xhtml\"><table class=\"hl7__eu__lab__report\"><tr><th>Test</th><th>19-Jun-2017</th><th>Reference&#xA0;Range</th><th>Unit</th></tr><tr><td>Carbon dioxide, total [Moles/volume] in Serum or Plasma</td><td>25.6</td><td>22 - 29</td><td></td><td>mmol/L</td></tr></table></div>"
        },
        "status": "final",
        "subject": {
          "reference": "urn:uuid:0528b881-9bea-4b75-9dc2-8e94cbf3f2b1",
          "display": "Magdolna Balog"
        },
        "effectiveDateTime": "2017-06-19T15:32:25Z",
        "specimen": {
          "reference": "urn:uuid:f4a36417-9a65-485e-8de3-88e5454d7fdc"
        }
      }
    },
    {
      "fullUrl": "urn:uuid:ac6f9ceb-76f2-4705-acfa-89711bb346e9",
      "resource": {
        "resourceType": "Observation",
        "id": "ac6f9ceb-76f2-4705-acfa-89711bb346e9",
        "meta": {
          "profile": [
            "http://hl7.eu/fhir/laboratory/StructureDefinition/Observation-resultslab-eu-lab"
          ]
        },
        "performer": [
          {
            "display": "The Central European Lab"
          }
        ],
        "category": [
          {
            "coding": [
              {
                "system": "http://terminology.hl7.org/CodeSystem/observation-category",
                "code": "laboratory"
              }
            ]
          }
        ],
        "code": {
          "coding": [
            {
              "code": "2885-2",
              "system": "http://loinc.org",
              "display": "Protein [Mass/volume] in Serum or Plasma"
            }
          ],
          "text": "Protein [Mass/volume] in Serum or Plasma"
        },
        "valueQuantity": {
          "system": "http://unitsofmeasure.org",
          "value": 7.1,
          "unit": "g/dL",
          "code": "g/dL"
        },
        "referenceRange": [
          {
            "low": {
              "value": 6,
              "code": "g/dL",
              "system": "http://unitsofmeasure.org"
            }
          },
          {
            "high": {
              "value": 8.3,
              "code": "g/dL",
              "system": "http://unitsofmeasure.org"
            }
          }
        ],
        "text": {
          "status": "generated",
          "div": "<div xmlns=\"http://www.w3.org/1999/xhtml\"><table class=\"hl7__eu__lab__report\"><tr><th>Test</th><th>19-Jun-2017</th><th>Reference&#xA0;Range</th><th>Unit</th></tr><tr><td>Protein [Mass/volume] in Serum or Plasma</td><td>7.1</td><td>6 - 8.3</td><td></td><td>g/dL</td></tr></table></div>"
        },
        "status": "final",
        "subject": {
          "reference": "urn:uuid:0528b881-9bea-4b75-9dc2-8e94cbf3f2b1",
          "display": "Magdolna Balog"
        },
        "effectiveDateTime": "2017-06-19T15:32:25Z",
        "specimen": {
          "reference": "urn:uuid:f4a36417-9a65-485e-8de3-88e5454d7fdc"
        }
      }
    },
    {
      "fullUrl": "urn:uuid:7b9f1901-4b70-4f2c-92e1-a0cd614e9958",
      "resource": {
        "resourceType": "Observation",
        "id": "7b9f1901-4b70-4f2c-92e1-a0cd614e9958",
        "meta": {
          "profile": [
            "http://hl7.eu/fhir/laboratory/StructureDefinition/Observation-resultslab-eu-lab"
          ]
        },
        "performer": [
          {
            "display": "The Central European Lab"
          }
        ],
        "category": [
          {
            "coding": [
              {
                "system": "http://terminology.hl7.org/CodeSystem/observation-category",
                "code": "laboratory"
              }
            ]
          }
        ],
        "code": {
          "coding": [
            {
              "code": "1751-7",
              "system": "http://loinc.org",
              "display": "Albumin [Mass/volume] in Serum or Plasma"
            }
          ],
          "text": "Albumin [Mass/volume] in Serum or Plasma"
        },
        "valueQuantity": {
          "system": "http://unitsofmeasure.org",
          "value": 4.5,
          "unit": "g/dL",
          "code": "g/dL"
        },
        "referenceRange": [
          {
            "low": {
              "value": 3.5,
              "code": "g/dL",
              "system": "http://unitsofmeasure.org"
            }
          },
          {
            "high": {
              "value": 5.5,
              "code": "g/dL",
              "system": "http://unitsofmeasure.org"
            }
          }
        ],
        "text": {
          "status": "generated",
          "div": "<div xmlns=\"http://www.w3.org/1999/xhtml\"><table class=\"hl7__eu__lab__report\"><tr><th>Test</th><th>19-Jun-2017</th><th>Reference&#xA0;Range</th><th>Unit</th></tr><tr><td>Albumin [Mass/volume] in Serum or Plasma</td><td>4.5</td><td>3.5 - 5.5</td><td></td><td>g/dL</td></tr></table></div>"
        },
        "status": "final",
        "subject": {
          "reference": "urn:uuid:0528b881-9bea-4b75-9dc2-8e94cbf3f2b1",
          "display": "Magdolna Balog"
        },
        "effectiveDateTime": "2017-06-19T15:32:25Z",
        "specimen": {
          "reference": "urn:uuid:f4a36417-9a65-485e-8de3-88e5454d7fdc"
        }
      }
    },
    {
      "fullUrl": "urn:uuid:9e8d19a9-f5f7-44b3-b19a-af65ce975836",
      "resource": {
        "resourceType": "Observation",
        "id": "9e8d19a9-f5f7-44b3-b19a-af65ce975836",
        "meta": {
          "profile": [
            "http://hl7.eu/fhir/laboratory/StructureDefinition/Observation-resultslab-eu-lab"
          ]
        },
        "performer": [
          {
            "display": "The Central European Lab"
          }
        ],
        "category": [
          {
            "coding": [
              {
                "system": "http://terminology.hl7.org/CodeSystem/observation-category",
                "code": "laboratory"
              }
            ]
          }
        ],
        "code": {
          "coding": [
            {
              "code": "1975-2",
              "system": "http://loinc.org",
              "display": "Bilirubin.total [Mass/volume] in Serum or Plasma"
            }
          ],
          "text": "Bilirubin.total [Mass/volume] in Serum or Plasma"
        },
        "valueQuantity": {
          "system": "http://unitsofmeasure.org",
          "value": 11.9,
          "unit": "mg/dL",
          "code": "mg/dL"
        },
        "referenceRange": [
          {
            "low": {
              "value": 0.3,
              "code": "mg/dL",
              "system": "http://unitsofmeasure.org"
            }
          },
          {
            "high": {
              "value": 1.2,
              "code": "mg/dL",
              "system": "http://unitsofmeasure.org"
            }
          }
        ],
        "interpretation": [
          {
            "coding": [
              {
                "code": "H",
                "system": "http://terminology.hl7.org/CodeSystem/v3-ObservationInterpretation",
                "display": "High"
              }
            ]
          }
        ],
        "text": {
          "status": "generated",
          "div": "<div xmlns=\"http://www.w3.org/1999/xhtml\"><table class=\"hl7__eu__lab__report\"><tr><th>Test</th><th>19-Jun-2017</th><th>Reference&#xA0;Range</th><th>Unit</th></tr><tr><td>Bilirubin.total [Mass/volume] in Serum or Plasma</td><td>11.9</td><td>0.3 - 1.2</td><td>H</td><td>mg/dL</td></tr></table></div>"
        },
        "status": "final",
        "subject": {
          "reference": "urn:uuid:0528b881-9bea-4b75-9dc2-8e94cbf3f2b1",
          "display": "Magdolna Balog"
        },
        "effectiveDateTime": "2017-06-19T15:32:25Z",
        "specimen": {
          "reference": "urn:uuid:f4a36417-9a65-485e-8de3-88e5454d7fdc"
        }
      }
    },
    {
      "fullUrl": "urn:uuid:e98d7d91-b205-49c9-9e43-4d647d9ac50d",
      "resource": {
        "resourceType": "Observation",
        "id": "e98d7d91-b205-49c9-9e43-4d647d9ac50d",
        "meta": {
          "profile": [
            "http://hl7.eu/fhir/laboratory/StructureDefinition/Observation-resultslab-eu-lab"
          ]
        },
        "performer": [
          {
            "display": "The Central European Lab"
          }
        ],
        "category": [
          {
            "coding": [
              {
                "system": "http://terminology.hl7.org/CodeSystem/observation-category",
                "code": "laboratory"
              }
            ]
          }
        ],
        "code": {
          "coding": [
            {
              "code": "6768-6",
              "system": "http://loinc.org",
              "display": "Alkaline phosphatase [Enzymatic activity/volume] in Serum or Plasma"
            }
          ],
          "text": "Alkaline phosphatase [Enzymatic activity/volume] in Serum or Plasma"
        },
        "valueQuantity": {
          "system": "http://unitsofmeasure.org",
          "value": 46.4,
          "unit": "U/L",
          "code": "U/L"
        },
        "referenceRange": [
          {
            "low": {
              "value": 35,
              "code": "U/L",
              "system": "http://unitsofmeasure.org"
            }
          },
          {
            "high": {
              "value": 270,
              "code": "U/L",
              "system": "http://unitsofmeasure.org"
            }
          }
        ],
        "text": {
          "status": "generated",
          "div": "<div xmlns=\"http://www.w3.org/1999/xhtml\"><table class=\"hl7__eu__lab__report\"><tr><th>Test</th><th>19-Jun-2017</th><th>Reference&#xA0;Range</th><th>Unit</th></tr><tr><td>Alkaline phosphatase [Enzymatic activity/volume] in Serum or Plasma</td><td>46.4</td><td>35 - 270</td><td></td><td>U/L</td></tr></table></div>"
        },
        "status": "final",
        "subject": {
          "reference": "urn:uuid:0528b881-9bea-4b75-9dc2-8e94cbf3f2b1",
          "display": "Magdolna Balog"
        },
        "effectiveDateTime": "2017-06-19T15:32:25Z",
        "specimen": {
          "reference": "urn:uuid:f4a36417-9a65-485e-8de3-88e5454d7fdc"
        }
      }
    },
    {
      "fullUrl": "urn:uuid:b8a2427d-9b53-4dc8-a27a-3e8706432c99",
      "resource": {
        "resourceType": "Observation",
        "id": "b8a2427d-9b53-4dc8-a27a-3e8706432c99",
        "meta": {
          "profile": [
            "http://hl7.eu/fhir/laboratory/StructureDefinition/Observation-resultslab-eu-lab"
          ]
        },
        "performer": [
          {
            "display": "The Central European Lab"
          }
        ],
        "category": [
          {
            "coding": [
              {
                "system": "http://terminology.hl7.org/CodeSystem/observation-category",
                "code": "laboratory"
              }
            ]
          }
        ],
        "code": {
          "coding": [
            {
              "code": "1742-6",
              "system": "http://loinc.org",
              "display": "Alanine aminotransferase [Enzymatic activity/volume] in Serum or Plasma"
            }
          ],
          "text": "Alanine aminotransferase [Enzymatic activity/volume] in Serum or Plasma"
        },
        "valueQuantity": {
          "system": "http://unitsofmeasure.org",
          "value": 30.6,
          "unit": "U/L",
          "code": "U/L"
        },
        "referenceRange": [
          {
            "low": {
              "value": 7,
              "code": "U/L",
              "system": "http://unitsofmeasure.org"
            }
          },
          {
            "high": {
              "value": 60,
              "code": "U/L",
              "system": "http://unitsofmeasure.org"
            }
          }
        ],
        "text": {
          "status": "generated",
          "div": "<div xmlns=\"http://www.w3.org/1999/xhtml\"><table class=\"hl7__eu__lab__report\"><tr><th>Test</th><th>19-Jun-2017</th><th>Reference&#xA0;Range</th><th>Unit</th></tr><tr><td>Alanine aminotransferase [Enzymatic activity/volume] in Serum or Plasma</td><td>30.6</td><td>7 - 60</td><td></td><td>U/L</td></tr></table></div>"
        },
        "status": "final",
        "subject": {
          "reference": "urn:uuid:0528b881-9bea-4b75-9dc2-8e94cbf3f2b1",
          "display": "Magdolna Balog"
        },
        "effectiveDateTime": "2017-06-19T15:32:25Z",
        "specimen": {
          "reference": "urn:uuid:f4a36417-9a65-485e-8de3-88e5454d7fdc"
        }
      }
    },
    {
      "fullUrl": "urn:uuid:3e555b2b-9d2d-4eef-ba9b-9974ae853863",
      "resource": {
        "resourceType": "Observation",
        "id": "3e555b2b-9d2d-4eef-ba9b-9974ae853863",
        "meta": {
          "profile": [
            "http://hl7.eu/fhir/laboratory/StructureDefinition/Observation-resultslab-eu-lab"
          ]
        },
        "performer": [
          {
            "display": "The Central European Lab"
          }
        ],
        "category": [
          {
            "coding": [
              {
                "system": "http://terminology.hl7.org/CodeSystem/observation-category",
                "code": "laboratory"
              }
            ]
          }
        ],
        "code": {
          "coding": [
            {
              "code": "1920-8",
              "system": "http://loinc.org",
              "display": "Aspartate aminotransferase [Enzymatic activity/volume] in Serum or Plasma"
            }
          ],
          "text": "Aspartate aminotransferase [Enzymatic activity/volume] in Serum or Plasma"
        },
        "valueQuantity": {
          "system": "http://unitsofmeasure.org",
          "value": 38.4,
          "unit": "U/L",
          "code": "U/L"
        },
        "referenceRange": [
          {
            "low": {
              "value": 10,
              "code": "U/L",
              "system": "http://unitsofmeasure.org"
            }
          },
          {
            "high": {
              "value": 40,
              "code": "U/L",
              "system": "http://unitsofmeasure.org"
            }
          }
        ],
        "text": {
          "status": "generated",
          "div": "<div xmlns=\"http://www.w3.org/1999/xhtml\"><table class=\"hl7__eu__lab__report\"><tr><th>Test</th><th>19-Jun-2017</th><th>Reference&#xA0;Range</th><th>Unit</th></tr><tr><td>Aspartate aminotransferase [Enzymatic activity/volume] in Serum or Plasma</td><td>38.4</td><td>10 - 40</td><td></td><td>U/L</td></tr></table></div>"
        },
        "status": "final",
        "subject": {
          "reference": "urn:uuid:0528b881-9bea-4b75-9dc2-8e94cbf3f2b1",
          "display": "Magdolna Balog"
        },
        "effectiveDateTime": "2017-06-19T15:32:25Z",
        "specimen": {
          "reference": "urn:uuid:f4a36417-9a65-485e-8de3-88e5454d7fdc"
        }
      }
    },
    {
      "fullUrl": "urn:uuid:205ef295-aa84-4802-a8b8-860190c052df",
      "resource": {
        "resourceType": "Observation",
        "id": "205ef295-aa84-4802-a8b8-860190c052df",
        "meta": {
          "profile": [
            "http://hl7.eu/fhir/laboratory/StructureDefinition/Observation-resultslab-eu-lab"
          ]
        },
        "performer": [
          {
            "display": "The Central European Lab"
          }
        ],
        "category": [
          {
            "coding": [
              {
                "system": "http://terminology.hl7.org/CodeSystem/observation-category",
                "code": "laboratory"
              }
            ]
          }
        ],
        "code": {
          "coding": [
            {
              "code": "19123-9",
              "system": "http://loinc.org",
              "display": "Magnesium [Mass/volume] in Serum or Plasma"
            }
          ],
          "text": "Magnesium [Mass/volume] in Serum or Plasma"
        },
        "valueQuantity": {
          "system": "http://unitsofmeasure.org",
          "value": 1.9,
          "unit": "mg/dL",
          "code": "mg/dL"
        },
        "referenceRange": [
          {
            "low": {
              "value": 1.6,
              "code": "mg/dL",
              "system": "http://unitsofmeasure.org"
            }
          },
          {
            "high": {
              "value": 2.3,
              "code": "mg/dL",
              "system": "http://unitsofmeasure.org"
            }
          }
        ],
        "text": {
          "status": "generated",
          "div": "<div xmlns=\"http://www.w3.org/1999/xhtml\"><table class=\"hl7__eu__lab__report\"><tr><th>Test</th><th>19-Jun-2017</th><th>Reference&#xA0;Range</th><th>Unit</th></tr><tr><td>Magnesium [Mass/volume] in Serum or Plasma</td><td>1.9</td><td>1.6 - 2.3</td><td></td><td>mg/dL</td></tr></table></div>"
        },
        "status": "final",
        "subject": {
          "reference": "urn:uuid:0528b881-9bea-4b75-9dc2-8e94cbf3f2b1",
          "display": "Magdolna Balog"
        },
        "effectiveDateTime": "2017-06-19T15:32:25Z",
        "specimen": {
          "reference": "urn:uuid:f4a36417-9a65-485e-8de3-88e5454d7fdc"
        }
      }
    },
    {
      "fullUrl": "urn:uuid:229913f2-fa45-4c27-b494-d3405a3b94f9",
      "resource": {
        "resourceType": "Observation",
        "id": "229913f2-fa45-4c27-b494-d3405a3b94f9",
        "meta": {
          "profile": [
            "http://hl7.eu/fhir/laboratory/StructureDefinition/Observation-resultslab-eu-lab"
          ]
        },
        "performer": [
          {
            "display": "The Central European Lab"
          }
        ],
        "category": [
          {
            "coding": [
              {
                "system": "http://terminology.hl7.org/CodeSystem/observation-category",
                "code": "laboratory"
              }
            ]
          }
        ],
        "code": {
          "coding": [
            {
              "code": "2777-1",
              "system": "http://loinc.org",
              "display": "Phosphate [Mass/volume] in Serum or Plasma"
            }
          ],
          "text": "Phosphate [Mass/volume] in Serum or Plasma"
        },
        "valueQuantity": {
          "system": "http://unitsofmeasure.org",
          "value": 2.8,
          "unit": "mg/dL",
          "code": "mg/dL"
        },
        "referenceRange": [
          {
            "low": {
              "value": 2.5,
              "code": "mg/dL",
              "system": "http://unitsofmeasure.org"
            }
          },
          {
            "high": {
              "value": 4.5,
              "code": "mg/dL",
              "system": "http://unitsofmeasure.org"
            }
          }
        ],
        "text": {
          "status": "generated",
          "div": "<div xmlns=\"http://www.w3.org/1999/xhtml\"><table class=\"hl7__eu__lab__report\"><tr><th>Test</th><th>19-Jun-2017</th><th>Reference&#xA0;Range</th><th>Unit</th></tr><tr><td>Phosphate [Mass/volume] in Serum or Plasma</td><td>2.8</td><td>2.5 - 4.5</td><td></td><td>mg/dL</td></tr></table></div>"
        },
        "status": "final",
        "subject": {
          "reference": "urn:uuid:0528b881-9bea-4b75-9dc2-8e94cbf3f2b1",
          "display": "Magdolna Balog"
        },
        "effectiveDateTime": "2017-06-19T15:32:25Z",
        "specimen": {
          "reference": "urn:uuid:f4a36417-9a65-485e-8de3-88e5454d7fdc"
        }
      }
    },
    {
      "fullUrl": "urn:uuid:4d618119-69d3-4380-b660-6259a50cf913",
      "resource": {
        "resourceType": "Observation",
        "id": "4d618119-69d3-4380-b660-6259a50cf913",
        "meta": {
          "profile": [
            "http://hl7.eu/fhir/laboratory/StructureDefinition/Observation-resultslab-eu-lab"
          ]
        },
        "performer": [
          {
            "display": "The Central European Lab"
          }
        ],
        "category": [
          {
            "coding": [
              {
                "system": "http://terminology.hl7.org/CodeSystem/observation-category",
                "code": "laboratory"
              }
            ]
          }
        ],
        "code": {
          "coding": [
            {
              "code": "5902-2",
              "system": "http://loinc.org",
              "display": "Prothrombin time (PT)"
            }
          ],
          "text": "Prothrombin time (PT)"
        },
        "valueQuantity": {
          "system": "http://unitsofmeasure.org",
          "value": 11.3,
          "unit": "s",
          "code": "s"
        },
        "referenceRange": [
          {
            "low": {
              "value": 11,
              "code": "s",
              "system": "http://unitsofmeasure.org"
            }
          },
          {
            "high": {
              "value": 15,
              "code": "s",
              "system": "http://unitsofmeasure.org"
            }
          }
        ],
        "text": {
          "status": "generated",
          "div": "<div xmlns=\"http://www.w3.org/1999/xhtml\"><table class=\"hl7__eu__lab__report\"><tr><th>Test</th><th>19-Jun-2017</th><th>Reference&#xA0;Range</th><th>Unit</th></tr><tr><td>Prothrombin time (PT)</td><td>11.3</td><td>11 - 15</td><td></td><td>s</td></tr></table></div>"
        },
        "status": "final",
        "subject": {
          "reference": "urn:uuid:0528b881-9bea-4b75-9dc2-8e94cbf3f2b1",
          "display": "Magdolna Balog"
        },
        "effectiveDateTime": "2017-06-19T15:32:25Z",
        "specimen": {
          "reference": "urn:uuid:4b0dd126-4d8b-476c-8ccf-9afb572e596b"
        }
      }
    },
    {
      "fullUrl": "urn:uuid:88e19bb3-19d6-4c05-8661-6ffcb5f65d10",
      "resource": {
        "resourceType": "Observation",
        "id": "88e19bb3-19d6-4c05-8661-6ffcb5f65d10",
        "meta": {
          "profile": [
            "http://hl7.eu/fhir/laboratory/StructureDefinition/Observation-resultslab-eu-lab"
          ]
        },
        "performer": [
          {
            "display": "The Central European Lab"
          }
        ],
        "category": [
          {
            "coding": [
              {
                "system": "http://terminology.hl7.org/CodeSystem/observation-category",
                "code": "laboratory"
              }
            ]
          }
        ],
        "code": {
          "coding": [
            {
              "code": "6301-6",
              "system": "http://loinc.org",
              "display": "INR in Platelet poor plasma by Coagulation assay"
            }
          ],
          "text": "INR in Platelet poor plasma by Coagulation assay"
        },
        "valueQuantity": {
          "system": "http://unitsofmeasure.org",
          "value": 1.2,
          "unit": "{INR}",
          "code": "{INR}"
        },
        "referenceRange": [
          {
            "low": {
              "value": 0.9,
              "code": "INR",
              "system": "http://unitsofmeasure.org"
            }
          },
          {
            "high": {
              "value": 3,
              "code": "INR",
              "system": "http://unitsofmeasure.org"
            }
          }
        ],
        "text": {
          "status": "generated",
          "div": "<div xmlns=\"http://www.w3.org/1999/xhtml\"><table class=\"hl7__eu__lab__report\"><tr><th>Test</th><th>19-Jun-2017</th><th>Reference&#xA0;Range</th><th>Unit</th></tr><tr><td>INR in Platelet poor plasma by Coagulation assay</td><td>1.2</td><td>0.9 - 3</td><td></td><td>{INR}</td></tr></table></div>"
        },
        "status": "final",
        "subject": {
          "reference": "urn:uuid:0528b881-9bea-4b75-9dc2-8e94cbf3f2b1",
          "display": "Magdolna Balog"
        },
        "effectiveDateTime": "2017-06-19T15:32:25Z",
        "specimen": {
          "reference": "urn:uuid:4b0dd126-4d8b-476c-8ccf-9afb572e596b"
        }
      }
    },
    {
      "fullUrl": "urn:uuid:3d19b7bf-f4f8-45b6-9da1-1c50b9cc63dc",
      "resource": {
        "resourceType": "Observation",
        "id": "3d19b7bf-f4f8-45b6-9da1-1c50b9cc63dc",
        "meta": {
          "profile": [
            "http://hl7.eu/fhir/laboratory/StructureDefinition/Observation-resultslab-eu-lab"
          ]
        },
        "performer": [
          {
            "display": "The Central European Lab"
          }
        ],
        "category": [
          {
            "coding": [
              {
                "system": "http://terminology.hl7.org/CodeSystem/observation-category",
                "code": "laboratory"
              }
            ]
          }
        ],
        "code": {
          "coding": [
            {
              "code": "3173-2",
              "system": "http://loinc.org",
              "display": "aPTT in Blood by Coagulation assay"
            }
          ],
          "text": "aPTT in Blood by Coagulation assay"
        },
        "valueQuantity": {
          "system": "http://unitsofmeasure.org",
          "value": 39.6,
          "unit": "s",
          "code": "s"
        },
        "referenceRange": [
          {
            "low": {
              "value": 25,
              "code": "seconds",
              "system": "http://unitsofmeasure.org"
            }
          },
          {
            "high": {
              "value": 40,
              "code": "seconds",
              "system": "http://unitsofmeasure.org"
            }
          }
        ],
        "text": {
          "status": "generated",
          "div": "<div xmlns=\"http://www.w3.org/1999/xhtml\"><table class=\"hl7__eu__lab__report\"><tr><th>Test</th><th>19-Jun-2017</th><th>Reference&#xA0;Range</th><th>Unit</th></tr><tr><td>aPTT in Blood by Coagulation assay</td><td>39.6</td><td>25 - 40</td><td></td><td>s</td></tr></table></div>"
        },
        "status": "final",
        "subject": {
          "reference": "urn:uuid:0528b881-9bea-4b75-9dc2-8e94cbf3f2b1",
          "display": "Magdolna Balog"
        },
        "effectiveDateTime": "2017-06-19T15:32:25Z",
        "specimen": {
          "reference": "urn:uuid:a59a597a-63c4-4f3e-a7a3-cd212b1d32ec"
        }
      }
    },
    {
      "fullUrl": "urn:uuid:001ca06c-dddc-4bc6-91d9-1b2ecadfeab3",
      "resource": {
        "resourceType": "Observation",
        "id": "001ca06c-dddc-4bc6-91d9-1b2ecadfeab3",
        "meta": {
          "profile": [
            "http://hl7.eu/fhir/laboratory/StructureDefinition/Observation-resultslab-eu-lab"
          ]
        },
        "performer": [
          {
            "display": "The Central European Lab"
          }
        ],
        "category": [
          {
            "coding": [
              {
                "system": "http://terminology.hl7.org/CodeSystem/observation-category",
                "code": "laboratory"
              }
            ]
          }
        ],
        "code": {
          "coding": [
            {
              "code": "2744-1",
              "system": "http://loinc.org",
              "display": "pH of Arterial blood"
            }
          ],
          "text": "pH of Arterial blood"
        },
        "valueQuantity": {
          "system": "http://unitsofmeasure.org",
          "value": 6.9,
          "unit": "[pH]",
          "code": "[pH]"
        },
        "referenceRange": [
          {
            "low": {
              "value": 7.35,
              "code": "pH",
              "system": "http://unitsofmeasure.org"
            }
          },
          {
            "high": {
              "value": 7.45,
              "code": "pH",
              "system": "http://unitsofmeasure.org"
            }
          }
        ],
        "interpretation": [
          {
            "coding": [
              {
                "code": "L",
                "system": "http://terminology.hl7.org/CodeSystem/v3-ObservationInterpretation",
                "display": "Low"
              }
            ]
          }
        ],
        "text": {
          "status": "generated",
          "div": "<div xmlns=\"http://www.w3.org/1999/xhtml\"><table class=\"hl7__eu__lab__report\"><tr><th>Test</th><th>19-Jun-2017</th><th>Reference&#xA0;Range</th><th>Unit</th></tr><tr><td>pH of Arterial blood</td><td>6.9</td><td>7.35 - 7.45</td><td>L</td><td>[pH]</td></tr></table></div>"
        },
        "status": "final",
        "subject": {
          "reference": "urn:uuid:0528b881-9bea-4b75-9dc2-8e94cbf3f2b1",
          "display": "Magdolna Balog"
        },
        "effectiveDateTime": "2017-06-19T15:32:25Z",
        "specimen": {
          "reference": "urn:uuid:ff4a2e18-6ce5-49e7-bd05-2b6216cfcdc9"
        }
      }
    },
    {
      "fullUrl": "urn:uuid:0a93ba9e-ef2a-4b92-9226-a5c0d6a6dfe2",
      "resource": {
        "resourceType": "Observation",
        "id": "0a93ba9e-ef2a-4b92-9226-a5c0d6a6dfe2",
        "meta": {
          "profile": [
            "http://hl7.eu/fhir/laboratory/StructureDefinition/Observation-resultslab-eu-lab"
          ]
        },
        "performer": [
          {
            "display": "The Central European Lab"
          }
        ],
        "category": [
          {
            "coding": [
              {
                "system": "http://terminology.hl7.org/CodeSystem/observation-category",
                "code": "laboratory"
              }
            ]
          }
        ],
        "code": {
          "coding": [
            {
              "code": "2019-8",
              "system": "http://loinc.org",
              "display": "Carbon dioxide [Partial pressure] in Arterial blood"
            }
          ],
          "text": "Carbon dioxide [Partial pressure] in Arterial blood"
        },
        "valueQuantity": {
          "system": "http://unitsofmeasure.org",
          "value": 42.5,
          "unit": "mm[Hg]",
          "code": "mm[Hg]"
        },
        "referenceRange": [
          {
            "low": {
              "value": 38,
              "code": "mm[Hg]",
              "system": "http://unitsofmeasure.org"
            }
          },
          {
            "high": {
              "value": 48,
              "code": "mm[Hg]",
              "system": "http://unitsofmeasure.org"
            }
          }
        ],
        "text": {
          "status": "generated",
          "div": "<div xmlns=\"http://www.w3.org/1999/xhtml\"><table class=\"hl7__eu__lab__report\"><tr><th>Test</th><th>19-Jun-2017</th><th>Reference&#xA0;Range</th><th>Unit</th></tr><tr><td>Carbon dioxide [Partial pressure] in Arterial blood</td><td>42.5</td><td>38 - 48</td><td></td><td>mm[Hg]</td></tr></table></div>"
        },
        "status": "final",
        "subject": {
          "reference": "urn:uuid:0528b881-9bea-4b75-9dc2-8e94cbf3f2b1",
          "display": "Magdolna Balog"
        },
        "effectiveDateTime": "2017-06-19T15:32:25Z",
        "specimen": {
          "reference": "urn:uuid:ff4a2e18-6ce5-49e7-bd05-2b6216cfcdc9"
        }
      }
    },
    {
      "fullUrl": "urn:uuid:ca97838e-3ce3-4c51-ac0d-20574608810e",
      "resource": {
        "resourceType": "Observation",
        "id": "ca97838e-3ce3-4c51-ac0d-20574608810e",
        "meta": {
          "profile": [
            "http://hl7.eu/fhir/laboratory/StructureDefinition/Observation-resultslab-eu-lab"
          ]
        },
        "performer": [
          {
            "display": "The Central European Lab"
          }
        ],
        "category": [
          {
            "coding": [
              {
                "system": "http://terminology.hl7.org/CodeSystem/observation-category",
                "code": "laboratory"
              }
            ]
          }
        ],
        "code": {
          "coding": [
            {
              "code": "2703-7",
              "system": "http://loinc.org",
              "display": "Oxygen [Partial pressure] in Arterial blood"
            }
          ],
          "text": "Oxygen [Partial pressure] in Arterial blood"
        },
        "valueQuantity": {
          "system": "http://unitsofmeasure.org",
          "value": 98.8,
          "unit": "mm[Hg]",
          "code": "mm[Hg]"
        },
        "referenceRange": [
          {
            "low": {
              "value": 75,
              "code": "mm[Hg]",
              "system": "http://unitsofmeasure.org"
            }
          },
          {
            "high": {
              "value": 100,
              "code": "mm[Hg]",
              "system": "http://unitsofmeasure.org"
            }
          }
        ],
        "text": {
          "status": "generated",
          "div": "<div xmlns=\"http://www.w3.org/1999/xhtml\"><table class=\"hl7__eu__lab__report\"><tr><th>Test</th><th>19-Jun-2017</th><th>Reference&#xA0;Range</th><th>Unit</th></tr><tr><td>Oxygen [Partial pressure] in Arterial blood</td><td>98.8</td><td>75 - 100</td><td></td><td>mm[Hg]</td></tr></table></div>"
        },
        "status": "final",
        "subject": {
          "reference": "urn:uuid:0528b881-9bea-4b75-9dc2-8e94cbf3f2b1",
          "display": "Magdolna Balog"
        },
        "effectiveDateTime": "2017-06-19T15:32:25Z",
        "specimen": {
          "reference": "urn:uuid:ff4a2e18-6ce5-49e7-bd05-2b6216cfcdc9"
        }
      }
    },
    {
      "fullUrl": "urn:uuid:03f04fb7-6c4f-4fb4-bfdb-4b5d518a4994",
      "resource": {
        "resourceType": "Observation",
        "id": "03f04fb7-6c4f-4fb4-bfdb-4b5d518a4994",
        "meta": {
          "profile": [
            "http://hl7.eu/fhir/laboratory/StructureDefinition/Observation-resultslab-eu-lab"
          ]
        },
        "performer": [
          {
            "display": "The Central European Lab"
          }
        ],
        "category": [
          {
            "coding": [
              {
                "system": "http://terminology.hl7.org/CodeSystem/observation-category",
                "code": "laboratory"
              }
            ]
          }
        ],
        "code": {
          "coding": [
            {
              "code": "1960-4",
              "system": "http://loinc.org",
              "display": "Bicarbonate [Moles/volume] in Arterial blood"
            }
          ],
          "text": "Bicarbonate [Moles/volume] in Arterial blood"
        },
        "valueQuantity": {
          "system": "http://unitsofmeasure.org",
          "value": 25.4,
          "unit": "mmol/L",
          "code": "mmol/L"
        },
        "referenceRange": [
          {
            "low": {
              "value": 22,
              "code": "mmol/L",
              "system": "http://unitsofmeasure.org"
            }
          },
          {
            "high": {
              "value": 31,
              "code": "mmol/L",
              "system": "http://unitsofmeasure.org"
            }
          }
        ],
        "text": {
          "status": "generated",
          "div": "<div xmlns=\"http://www.w3.org/1999/xhtml\"><table class=\"hl7__eu__lab__report\"><tr><th>Test</th><th>19-Jun-2017</th><th>Reference&#xA0;Range</th><th>Unit</th></tr><tr><td>Bicarbonate [Moles/volume] in Arterial blood</td><td>25.4</td><td>22 - 31</td><td></td><td>mmol/L</td></tr></table></div>"
        },
        "status": "final",
        "subject": {
          "reference": "urn:uuid:0528b881-9bea-4b75-9dc2-8e94cbf3f2b1",
          "display": "Magdolna Balog"
        },
        "effectiveDateTime": "2017-06-19T15:32:25Z",
        "specimen": {
          "reference": "urn:uuid:ff4a2e18-6ce5-49e7-bd05-2b6216cfcdc9"
        }
      }
    },
    {
      "fullUrl": "urn:uuid:a3cbad7c-ffbc-4bb3-b291-bd778bebeadd",
      "resource": {
        "resourceType": "Observation",
        "id": "a3cbad7c-ffbc-4bb3-b291-bd778bebeadd",
        "meta": {
          "profile": [
            "http://hl7.eu/fhir/laboratory/StructureDefinition/Observation-resultslab-eu-lab"
          ]
        },
        "performer": [
          {
            "display": "The Central European Lab"
          }
        ],
        "category": [
          {
            "coding": [
              {
                "system": "http://terminology.hl7.org/CodeSystem/observation-category",
                "code": "laboratory"
              }
            ]
          }
        ],
        "code": {
          "coding": [
            {
              "code": "2708-6",
              "system": "http://loinc.org",
              "display": "Oxygen saturation in Arterial blood"
            }
          ],
          "text": "Oxygen saturation in Arterial blood"
        },
        "valueQuantity": {
          "system": "http://unitsofmeasure.org",
          "value": 94,
          "unit": "%",
          "code": "%"
        },
        "referenceRange": [
          {
            "low": {
              "value": 95,
              "code": "%",
              "system": "http://unitsofmeasure.org"
            }
          },
          {
            "high": {
              "value": 100,
              "code": "%",
              "system": "http://unitsofmeasure.org"
            }
          }
        ],
        "interpretation": [
          {
            "coding": [
              {
                "code": "L",
                "system": "http://terminology.hl7.org/CodeSystem/v3-ObservationInterpretation",
                "display": "Low"
              }
            ]
          }
        ],
        "text": {
          "status": "generated",
          "div": "<div xmlns=\"http://www.w3.org/1999/xhtml\"><table class=\"hl7__eu__lab__report\"><tr><th>Test</th><th>19-Jun-2017</th><th>Reference&#xA0;Range</th><th>Unit</th></tr><tr><td>Oxygen saturation in Arterial blood</td><td>94.0</td><td>95 - 100</td><td>L</td><td>%</td></tr></table></div>"
        },
        "status": "final",
        "subject": {
          "reference": "urn:uuid:0528b881-9bea-4b75-9dc2-8e94cbf3f2b1",
          "display": "Magdolna Balog"
        },
        "effectiveDateTime": "2017-06-19T15:32:25Z",
        "specimen": {
          "reference": "urn:uuid:ff4a2e18-6ce5-49e7-bd05-2b6216cfcdc9"
        }
      }
    },
    {
      "fullUrl": "urn:uuid:cbba7c69-51aa-4a59-8b32-64dc61c2ec93",
      "resource": {
        "resourceType": "Observation",
        "id": "cbba7c69-51aa-4a59-8b32-64dc61c2ec93",
        "meta": {
          "profile": [
            "http://hl7.eu/fhir/laboratory/StructureDefinition/Observation-resultslab-eu-lab"
          ]
        },
        "performer": [
          {
            "display": "The Central European Lab"
          }
        ],
        "category": [
          {
            "coding": [
              {
                "system": "http://terminology.hl7.org/CodeSystem/observation-category",
                "code": "laboratory"
              }
            ]
          }
        ],
        "code": {
          "coding": [
            {
              "code": "2093-3",
              "system": "http://loinc.org",
              "display": "Cholesterol [Mass/volume] in Serum or Plasma"
            }
          ],
          "text": "Cholesterol [Mass/volume] in Serum or Plasma"
        },
        "valueQuantity": {
          "system": "http://unitsofmeasure.org",
          "value": 159.4,
          "unit": "mg/dL",
          "code": "mg/dL"
        },
        "referenceRange": [
          {
            "low": {
              "value": 125,
              "code": "mg/dL",
              "system": "http://unitsofmeasure.org"
            }
          },
          {
            "high": {
              "value": 200,
              "code": "mg/dL",
              "system": "http://unitsofmeasure.org"
            }
          }
        ],
        "text": {
          "status": "generated",
          "div": "<div xmlns=\"http://www.w3.org/1999/xhtml\"><table class=\"hl7__eu__lab__report\"><tr><th>Test</th><th>19-Jun-2017</th><th>Reference&#xA0;Range</th><th>Unit</th></tr><tr><td>Cholesterol [Mass/volume] in Serum or Plasma</td><td>159.4</td><td>125 - 200</td><td></td><td>mg/dL</td></tr></table></div>"
        },
        "status": "final",
        "subject": {
          "reference": "urn:uuid:0528b881-9bea-4b75-9dc2-8e94cbf3f2b1",
          "display": "Magdolna Balog"
        },
        "effectiveDateTime": "2017-06-19T15:32:25Z",
        "specimen": {
          "reference": "urn:uuid:f4a36417-9a65-485e-8de3-88e5454d7fdc"
        }
      }
    },
    {
      "fullUrl": "urn:uuid:3509d7f3-f7d2-4560-8a66-b92cd959a732",
      "resource": {
        "resourceType": "Observation",
        "id": "3509d7f3-f7d2-4560-8a66-b92cd959a732",
        "meta": {
          "profile": [
            "http://hl7.eu/fhir/laboratory/StructureDefinition/Observation-resultslab-eu-lab"
          ]
        },
        "performer": [
          {
            "display": "The Central European Lab"
          }
        ],
        "category": [
          {
            "coding": [
              {
                "system": "http://terminology.hl7.org/CodeSystem/observation-category",
                "code": "laboratory"
              }
            ]
          }
        ],
        "code": {
          "coding": [
            {
              "code": "2571-8",
              "system": "http://loinc.org",
              "display": "Triglyceride [Mass/volume] in Serum or Plasma"
            }
          ],
          "text": "Triglyceride [Mass/volume] in Serum or Plasma"
        },
        "valueQuantity": {
          "system": "http://unitsofmeasure.org",
          "value": 126.3,
          "unit": "mg/dL",
          "code": "mg/dL"
        },
        "referenceRange": [
          {
            "low": {
              "value": 0,
              "code": "mg/dL",
              "system": "http://unitsofmeasure.org"
            }
          },
          {
            "high": {
              "value": 150,
              "code": "mg/dL",
              "system": "http://unitsofmeasure.org"
            }
          }
        ],
        "text": {
          "status": "generated",
          "div": "<div xmlns=\"http://www.w3.org/1999/xhtml\"><table class=\"hl7__eu__lab__report\"><tr><th>Test</th><th>19-Jun-2017</th><th>Reference&#xA0;Range</th><th>Unit</th></tr><tr><td>Triglyceride [Mass/volume] in Serum or Plasma</td><td>126.3</td><td>0 - 150</td><td></td><td>mg/dL</td></tr></table></div>"
        },
        "status": "final",
        "subject": {
          "reference": "urn:uuid:0528b881-9bea-4b75-9dc2-8e94cbf3f2b1",
          "display": "Magdolna Balog"
        },
        "effectiveDateTime": "2017-06-19T15:32:25Z",
        "specimen": {
          "reference": "urn:uuid:f4a36417-9a65-485e-8de3-88e5454d7fdc"
        }
      }
    },
    {
      "fullUrl": "urn:uuid:4b6137f3-26de-4518-a3ff-918cfa67b44c",
      "resource": {
        "resourceType": "Observation",
        "id": "4b6137f3-26de-4518-a3ff-918cfa67b44c",
        "meta": {
          "profile": [
            "http://hl7.eu/fhir/laboratory/StructureDefinition/Observation-resultslab-eu-lab"
          ]
        },
        "performer": [
          {
            "display": "The Central European Lab"
          }
        ],
        "category": [
          {
            "coding": [
              {
                "system": "http://terminology.hl7.org/CodeSystem/observation-category",
                "code": "laboratory"
              }
            ]
          }
        ],
        "code": {
          "coding": [
            {
              "code": "18262-6",
              "system": "http://loinc.org",
              "display": "Cholesterol in LDL [Mass/volume] in Serum or Plasma by Direct assay"
            }
          ],
          "text": "Cholesterol in LDL [Mass/volume] in Serum or Plasma by Direct assay"
        },
        "valueQuantity": {
          "system": "http://unitsofmeasure.org",
          "value": 79.3,
          "unit": "mg/dL",
          "code": "mg/dL"
        },
        "referenceRange": [
          {
            "low": {
              "value": 0,
              "code": "mg/dL",
              "system": "http://unitsofmeasure.org"
            }
          },
          {
            "high": {
              "value": 130,
              "code": "mg/dL",
              "system": "http://unitsofmeasure.org"
            }
          }
        ],
        "text": {
          "status": "generated",
          "div": "<div xmlns=\"http://www.w3.org/1999/xhtml\"><table class=\"hl7__eu__lab__report\"><tr><th>Test</th><th>19-Jun-2017</th><th>Reference&#xA0;Range</th><th>Unit</th></tr><tr><td>Cholesterol in LDL [Mass/volume] in Serum or Plasma by Direct assay</td><td>79.3</td><td>0 - 130</td><td></td><td>mg/dL</td></tr></table></div>"
        },
        "status": "final",
        "subject": {
          "reference": "urn:uuid:0528b881-9bea-4b75-9dc2-8e94cbf3f2b1",
          "display": "Magdolna Balog"
        },
        "effectiveDateTime": "2017-06-19T15:32:25Z",
        "specimen": {
          "reference": "urn:uuid:f4a36417-9a65-485e-8de3-88e5454d7fdc"
        }
      }
    },
    {
      "fullUrl": "urn:uuid:0b9ff3c5-d2fa-413f-a0e0-cf493abde878",
      "resource": {
        "resourceType": "Observation",
        "id": "0b9ff3c5-d2fa-413f-a0e0-cf493abde878",
        "meta": {
          "profile": [
            "http://hl7.eu/fhir/laboratory/StructureDefinition/Observation-resultslab-eu-lab"
          ]
        },
        "performer": [
          {
            "display": "The Central European Lab"
          }
        ],
        "category": [
          {
            "coding": [
              {
                "system": "http://terminology.hl7.org/CodeSystem/observation-category",
                "code": "laboratory"
              }
            ]
          }
        ],
        "code": {
          "coding": [
            {
              "code": "2085-9",
              "system": "http://loinc.org",
              "display": "Cholesterol in HDL [Mass/volume] in Serum or Plasma"
            }
          ],
          "text": "Cholesterol in HDL [Mass/volume] in Serum or Plasma"
        },
        "valueQuantity": {
          "system": "http://unitsofmeasure.org",
          "value": 54.9,
          "unit": "mg/dL",
          "code": "mg/dL"
        },
        "referenceRange": [
          {
            "low": {
              "value": 50,
              "code": "mg/dL",
              "system": "http://unitsofmeasure.org"
            }
          },
          {
            "high": {
              "value": 100,
              "code": "mg/dL",
              "system": "http://unitsofmeasure.org"
            }
          }
        ],
        "text": {
          "status": "generated",
          "div": "<div xmlns=\"http://www.w3.org/1999/xhtml\"><table class=\"hl7__eu__lab__report\"><tr><th>Test</th><th>19-Jun-2017</th><th>Reference&#xA0;Range</th><th>Unit</th></tr><tr><td>Cholesterol in HDL [Mass/volume] in Serum or Plasma</td><td>54.9</td><td>50 - 100</td><td></td><td>mg/dL</td></tr></table></div>"
        },
        "status": "final",
        "subject": {
          "reference": "urn:uuid:0528b881-9bea-4b75-9dc2-8e94cbf3f2b1",
          "display": "Magdolna Balog"
        },
        "effectiveDateTime": "2017-06-19T15:32:25Z",
        "specimen": {
          "reference": "urn:uuid:f4a36417-9a65-485e-8de3-88e5454d7fdc"
        }
      }
    },
    {
      "fullUrl": "urn:uuid:ced34d81-7207-4da5-b0a0-02b685cb665a",
      "resource": {
        "resourceType": "Device",
        "id": "ced34d81-7207-4da5-b0a0-02b685cb665a",
        "deviceName": [
          {
            "name": "SYNDERAI Synthetic Generator",
            "type": "manufacturer-name"
          }
        ],
        "version": [
          {
            "value": "5.0"
          }
        ],
        "text": {
          "status": "generated",
          "div": "<div xmlns=\"http://www.w3.org/1999/xhtml\">SYNDERAI Synthetic Generator v5.0</div>"
        },
        "status": "active\"",
        "distinctIdentifier": "synderai-generator-50",
        "manufacturer": "SYNDERAI Project"
      }
    },
    {
      "fullUrl": "urn:uuid:7ea838dd-842e-48c2-a02f-c6e1a95049b6",
      "resource": {
        "resourceType": "Provenance",
        "id": "7ea838dd-842e-48c2-a02f-c6e1a95049b6",
        "target": [
          {
            "reference": "Patient/0528b881-9bea-4b75-9dc2-8e94cbf3f2b1"
          },
          {
            "reference": "Bundle/4216912c-f9be-4619-8a7e-8fbc4c68aa22"
          },
          {
            "reference": "Composition/89f9deb2-bf6c-4e4d-8e20-de04fd050ca6"
          },
          {
            "reference": "PractitionerRole/d0780019-5d01-4820-a9e2-a8896b5a73e4"
          },
          {
            "reference": "Practitioner/6e945192-85eb-462f-802d-97d112f291da"
          },
          {
            "reference": "PractitionerRole/10da4b47-6461-40ea-8473-7a2d2f461d45"
          },
          {
            "reference": "Organization/7abc572c-d489-4ec3-88b4-f3d06f3fe07c"
          }
        ],
        "activity": {
          "text": "Synthetic Example Data Generation"
        },
        "policy": [
          "https://synderai.net/synderai-synthetic-data-policy"
        ],
        "agent": [
          {
            "type": {
              "text": "author"
            },
            "who": {
              "reference": "Device/ced34d81-7207-4da5-b0a0-02b685cb665a"
            }
          }
        ],
        "reason": [
          {
            "text": "Interoperability Testing and Training (non-clinical use)"
          }
        ],
        "text": {
          "status": "generated",
          "div": "<div xmlns=\"http://www.w3.org/1999/xhtml\">Provenance for SYNDERAI Synthetic Example Data Resource</div>"
        },
        "recorded": "2017-06-19T17:32:25Z"
      }
    },
    {
      "fullUrl": "urn:uuid:d0780019-5d01-4820-a9e2-a8896b5a73e4",
      "resource": {
        "resourceType": "PractitionerRole",
        "id": "d0780019-5d01-4820-a9e2-a8896b5a73e4",
        "meta": {
          "profile": [
            "http://hl7.eu/fhir/base/StructureDefinition/practitionerRole-eu"
          ]
        },
        "text": {
          "status": "generated",
          "div": "<div xmlns=\"http://www.w3.org/1999/xhtml\">Laboratory Role Id: d0780019-5d01-4820-a9e2-a8896b5a73e4</div>"
        },
        "practitioner": {
          "reference": "urn:uuid:6e945192-85eb-462f-802d-97d112f291da"
        }
      }
    },
    {
      "fullUrl": "urn:uuid:6e945192-85eb-462f-802d-97d112f291da",
      "resource": {
        "resourceType": "Practitioner",
        "id": "6e945192-85eb-462f-802d-97d112f291da",
        "meta": {
          "profile": [
            "http://hl7.eu/fhir/base/StructureDefinition/practitioner-eu"
          ]
        },
        "identifier": [
          {
            "assigner": {
              "display": "HL7 Europe"
            },
            "system": "urn:oid:2.16.840.1.113883.2.51.999",
            "value": "4d70d4ee-614c-4aa2-9664-5c1b684e77da"
          }
        ],
        "name": [
          {
            "prefix": [
              "dr"
            ],
            "given": [
              "Ex"
            ],
            "family": "Ample"
          }
        ],
        "address": [
          {
            "line": [
              "Laboratoire Central Européenne",
              "Boulevard du Jardin Botanique 32"
            ],
            "postalCode": "1000",
            "city": "Brussels",
            "country": "Belgium"
          }
        ],
        "text": {
          "status": "generated",
          "div": "<div xmlns=\"http://www.w3.org/1999/xhtml\">Laboratory: Laboratoire Central Européenne, 1000 Brussels, Belgium</div>"
        }
      }
    }
  ],
  "type": "document",
  "timestamp": "2017-06-19T17:32:25Z"
}
