{
  "resourceType": "Bundle",
  "id": "cc69e082-855c-41fe-8353-72e5ee7a5337",
  "meta": {
    "profile": [
      "http://hl7.eu/fhir/laboratory/StructureDefinition/Bundle-eu-lab"
    ]
  },
  "identifier": {
    "assigner": {
      "display": "HL7 Europe"
    },
    "system": "urn:oid:2.16.840.1.113883.2.51.999",
    "value": "600c332f-5920-4e2a-ad64-70b74186d8a7"
  },
  "entry": [
    {
      "fullUrl": "urn:uuid:6eb2ad0e-e7e3-4f59-85ef-9293fe525e2c",
      "resource": {
        "resourceType": "Composition",
        "id": "6eb2ad0e-e7e3-4f59-85ef-9293fe525e2c",
        "meta": {
          "profile": [
            "http://hl7.eu/fhir/laboratory/StructureDefinition/Composition-eu-lab"
          ]
        },
        "identifier": {
          "assigner": {
            "display": "HL7 Europe"
          },
          "system": "urn:oid:2.16.840.1.113883.2.51.999",
          "value": "80ea3511-5d9b-4849-9342-4a20ff23efef"
        },
        "author": [
          {
            "reference": "urn:uuid:25c7db48-550b-4254-93f7-147aabdf5e54"
          }
        ],
        "category": [
          {
            "coding": [
              {
                "code": "26436-6",
                "system": "http://loinc.org",
                "display": "Laboratory studies (set)"
              }
            ]
          }
        ],
        "type": {
          "coding": [
            {
              "code": "11502-2",
              "system": "http://loinc.org",
              "display": "Laboratory report"
            }
          ],
          "text": "Laboratory Report"
        },
        "section": [
          {
            "code": {
              "coding": [
                {
                  "code": "26436-6",
                  "system": "http://loinc.org",
                  "display": "Laboratory studies (set)"
                }
              ],
              "text": "Laboratory studies"
            },
            "section": [
              {
                "code": {
                  "coding": [
                    {
                      "code": "$18719-5",
                      "system": "http://loinc.org",
                      "display": "Chemistry studies (set)"
                    }
                  ],
                  "text": "Chemistry"
                },
                "entry": [
                  {
                    "reference": "urn:uuid:72c694cd-6596-4fa7-9107-1ac98f2c01c8"
                  },
                  {
                    "reference": "urn:uuid:00d13dbd-700a-4720-a537-5f8bdf876579"
                  },
                  {
                    "reference": "urn:uuid:84e9eaa6-8cb4-4c30-bc64-8516c654b6f3"
                  },
                  {
                    "reference": "urn:uuid:439eb57c-7a15-4d68-91bb-449f00665fd4"
                  },
                  {
                    "reference": "urn:uuid:2d1b2074-31e7-4eb6-942c-422e10409c70"
                  },
                  {
                    "reference": "urn:uuid:27bae669-aeb0-4b84-801f-af733c5602df"
                  },
                  {
                    "reference": "urn:uuid:25a736c0-91c3-4f49-9a69-a60faafb1f2e"
                  },
                  {
                    "reference": "urn:uuid:ec0b2a54-e46f-4c6e-a111-cc474761b7dd"
                  },
                  {
                    "reference": "urn:uuid:fcf230ee-71cf-4f11-8f45-3931f3204586"
                  },
                  {
                    "reference": "urn:uuid:4bb1b199-e32b-4744-9d5a-605907e03656"
                  },
                  {
                    "reference": "urn:uuid:ff0f4743-a3da-4d04-be58-6478bc3d4a56"
                  },
                  {
                    "reference": "urn:uuid:bd3e76c6-8c45-4d02-a9f9-41c4d6d803bb"
                  },
                  {
                    "reference": "urn:uuid:cfb1dec2-fa5b-4b37-98be-ea9b92649e6a"
                  },
                  {
                    "reference": "urn:uuid:0d76eb35-94ed-410d-9697-21f561fb89c1"
                  },
                  {
                    "reference": "urn:uuid:57e64013-d6a3-46fb-abe3-f024ff4865d4"
                  },
                  {
                    "reference": "urn:uuid:d843eb42-c9f1-4f83-8e33-4cc817f7df1e"
                  },
                  {
                    "reference": "urn:uuid:26e0156f-74e5-4574-a03d-c75f7bb2ccfc"
                  },
                  {
                    "reference": "urn:uuid:77572d2e-e387-4d57-8753-a55cf53391c7"
                  },
                  {
                    "reference": "urn:uuid:bb8243ad-4f34-46bd-ab49-13058dc0d47a"
                  }
                ],
                "text": {
                  "status": "generated",
                  "div": "<div xmlns=\"http://www.w3.org/1999/xhtml\"><h3>Chemistry</h3><table class=\"hl7__eu__lab__report\"><thead><tr><th>Test</th><th>24-NOV-2022</th><th>Reference&#xA0;Range</th><th>Unit</th></tr></thead><tbody><tr><td>Glucose [Mass/volume] in Blood</td><td>74.5</td><td>70 - 140</td><td>mg/dL</td></tr><tr><td>Urea nitrogen [Mass/volume] in Blood</td><td>10.0</td><td>7 - 25</td><td>mg/dL</td></tr><tr><td>Creatinine [Mass/volume] in Blood</td><td><strong>3.4 H</strong></td><td>0.6 - 1.1</td><td>mg/dL</td></tr><tr><td>Calcium [Mass/volume] in Blood</td><td>9.0</td><td>8.6 - 10.4</td><td>mg/dL</td></tr><tr><td>Sodium [Moles/volume] in Blood</td><td>139.8</td><td>135 - 145</td><td>mmol/L</td></tr><tr><td>Potassium [Moles/volume] in Blood</td><td>4.9</td><td>3.5 - 5.3</td><td>mmol/L</td></tr><tr><td>Chloride [Moles/volume] in Blood</td><td>106.9</td><td>98 - 108</td><td>mmol/L</td></tr><tr><td>Carbon dioxide, total [Moles/volume] in Blood</td><td>24.0</td><td>22 - 32</td><td>mmol/L</td></tr><tr><td>Protein [Mass/volume] in Serum or Plasma</td><td>6.7</td><td>6.6 - 8.3</td><td>g/dL</td></tr><tr><td>Albumin [Mass/volume] in Serum or Plasma</td><td>4.0</td><td>3.5 - 5.5</td><td>g/dL</td></tr><tr><td>Globulin [Mass/volume] in Serum by calculation</td><td>3.0</td><td>2.2 - 3.7</td><td>g/L</td></tr><tr><td>Bilirubin.total [Mass/volume] in Serum or Plasma</td><td>0.5</td><td>0.3 - 1.2</td><td>mg/dL</td></tr><tr><td>Alkaline phosphatase [Enzymatic activity/volume] in Serum or Plasma</td><td>123.5</td><td>40 - 130</td><td>U/L</td></tr><tr><td>Alanine aminotransferase [Enzymatic activity/volume] in Serum or Plasma</td><td>51.3</td><td>7 - 55</td><td>U/L</td></tr><tr><td>Aspartate aminotransferase [Enzymatic activity/volume] in Serum or Plasma</td><td>34.1</td><td>10 - 40</td><td>U/L</td></tr><tr><td>Cholesterol [Mass/volume] in Serum or Plasma</td><td>191.2</td><td>125 - 200</td><td>mg/dL</td></tr><tr><td>Triglyceride [Mass/volume] in Serum or Plasma</td><td><strong>199.4 H</strong></td><td>10 - 175</td><td>mg/dL</td></tr><tr><td>Cholesterol in LDL [Mass/volume] in Serum or Plasma by Direct assay</td><td><strong>142.5 H</strong></td><td>0 - 130</td><td>mg/dL</td></tr><tr><td>Cholesterol in HDL [Mass/volume] in Serum or Plasma</td><td>53.0</td><td>50 - 100</td><td>mg/dL</td></tr></tbody></table></div>"
                },
                "title": "Chemistry"
              }
            ],
            "title": "Laboratory Report"
          },
          {
            "text": {
              "status": "generated",
              "div": "<div xmlns=\"http://www.w3.org/1999/xhtml\"><h3>Annotation</h3><table class=\"hl7__eu__lab__report\"><tr><th>Conclusion and Recommendations based on this report and previous findings known to us</th></tr><tr><td>Renal function is significantly impaired as indicated by elevated creatinine. Lipid profile shows increased triglycerides and LDL cholesterol, suggesting elevated cardiovascular risk. All other parameters, including liver enzymes, electrolytes, glucose, and proteins, are within normal limits. Recommend further evaluation of renal function and cardiovascular risk management.</td></tr></table></div>"
            },
            "code": {
              "coding": [
                {
                  "system": "http://loinc.org",
                  "code": "48767-8",
                  "display": "Annotation comment"
                }
              ]
            },
            "title": "Annotation comment"
          }
        ],
        "status": "final",
        "subject": {
          "reference": "urn:uuid:897142dc-caaf-4d2f-8bc9-53266ac231e8",
          "display": "Ludmila Vávrová"
        },
        "date": "2022-11-24T04:51:38Z",
        "title": "Laboratory Report",
        "confidentiality": "N"
      }
    },
    {
      "fullUrl": "urn:uuid:48a59bcc-417f-433a-bb08-07e85432ebf3",
      "resource": {
        "resourceType": "DiagnosticReport",
        "id": "48a59bcc-417f-433a-bb08-07e85432ebf3",
        "meta": {
          "profile": [
            "http://hl7.eu/fhir/laboratory/StructureDefinition/DiagnosticReport-eu-lab"
          ]
        },
        "identifier": [
          {
            "assigner": {
              "display": "HL7 Europe"
            },
            "system": "urn:oid:2.16.840.1.113883.2.51.999",
            "value": "f7d3b757-a820-4d59-a827-d3342a8fdad4"
          }
        ],
        "extension": [
          {
            "url": "http://hl7.org/fhir/5.0/StructureDefinition/extension-DiagnosticReport.composition",
            "valueReference": {
              "reference": "urn:uuid:80ea3511-5d9b-4849-9342-4a20ff23efef"
            }
          }
        ],
        "category": [
          {
            "coding": [
              {
                "code": "26436-6",
                "system": "http://loinc.org",
                "display": "Laboratory studies (set)"
              }
            ]
          }
        ],
        "specimen": [
          {
            "reference": "urn:uuid:cbaf6515-b095-4cd9-b609-8395077c1bb5"
          },
          {
            "reference": "urn:uuid:d0bf55f2-876a-42f9-9369-d85789b31394"
          },
          {
            "reference": "urn:uuid:f1546f0a-bfc6-4e49-b0b3-d7fb8b008455"
          }
        ],
        "result": [
          {
            "reference": "urn:uuid:72c694cd-6596-4fa7-9107-1ac98f2c01c8"
          },
          {
            "reference": "urn:uuid:00d13dbd-700a-4720-a537-5f8bdf876579"
          },
          {
            "reference": "urn:uuid:84e9eaa6-8cb4-4c30-bc64-8516c654b6f3"
          },
          {
            "reference": "urn:uuid:439eb57c-7a15-4d68-91bb-449f00665fd4"
          },
          {
            "reference": "urn:uuid:2d1b2074-31e7-4eb6-942c-422e10409c70"
          },
          {
            "reference": "urn:uuid:27bae669-aeb0-4b84-801f-af733c5602df"
          },
          {
            "reference": "urn:uuid:25a736c0-91c3-4f49-9a69-a60faafb1f2e"
          },
          {
            "reference": "urn:uuid:ec0b2a54-e46f-4c6e-a111-cc474761b7dd"
          },
          {
            "reference": "urn:uuid:fcf230ee-71cf-4f11-8f45-3931f3204586"
          },
          {
            "reference": "urn:uuid:4bb1b199-e32b-4744-9d5a-605907e03656"
          },
          {
            "reference": "urn:uuid:ff0f4743-a3da-4d04-be58-6478bc3d4a56"
          },
          {
            "reference": "urn:uuid:bd3e76c6-8c45-4d02-a9f9-41c4d6d803bb"
          },
          {
            "reference": "urn:uuid:cfb1dec2-fa5b-4b37-98be-ea9b92649e6a"
          },
          {
            "reference": "urn:uuid:0d76eb35-94ed-410d-9697-21f561fb89c1"
          },
          {
            "reference": "urn:uuid:57e64013-d6a3-46fb-abe3-f024ff4865d4"
          },
          {
            "reference": "urn:uuid:d843eb42-c9f1-4f83-8e33-4cc817f7df1e"
          },
          {
            "reference": "urn:uuid:26e0156f-74e5-4574-a03d-c75f7bb2ccfc"
          },
          {
            "reference": "urn:uuid:77572d2e-e387-4d57-8753-a55cf53391c7"
          },
          {
            "reference": "urn:uuid:bb8243ad-4f34-46bd-ab49-13058dc0d47a"
          }
        ],
        "status": "registered",
        "code": {
          "coding": [
            {
              "code": "11502-2",
              "system": "http://loinc.org",
              "display": "Laboratory report"
            }
          ]
        },
        "subject": {
          "reference": "urn:uuid:897142dc-caaf-4d2f-8bc9-53266ac231e8",
          "display": "Ludmila Vávrová"
        }
      }
    },
    {
      "fullUrl": "urn:uuid:897142dc-caaf-4d2f-8bc9-53266ac231e8",
      "resource": {
        "resourceType": "Patient",
        "id": "897142dc-caaf-4d2f-8bc9-53266ac231e8",
        "meta": {
          "security": [
            {
              "system": "http://terminology.hl7.org/CodeSystem/v3-ActReason",
              "code": "HTEST"
            },
            {
              "system": "http://terminology.hl7.org/CodeSystem/v3-ActReason",
              "code": "TRAIN"
            }
          ],
          "tag": [
            {
              "system": "https://synderai.net/fhir/CodeSystem/tags",
              "code": "synthetic",
              "display": "SYNDERAI Synthetic data"
            }
          ],
          "profile": [
            "http://hl7.eu/fhir/base/StructureDefinition/patient-eu-core"
          ]
        },
        "identifier": [
          {
            "type": {
              "coding": [
                {
                  "code": "PT",
                  "system": "http://terminology.hl7.org/CodeSystem/v2-0203"
                }
              ]
            },
            "system": "http://ec.europa.eu/identifier/eci",
            "value": "1992-540676-1"
          },
          {
            "type": {
              "coding": [
                {
                  "code": "MR",
                  "system": "http://terminology.hl7.org/CodeSystem/v2-0203"
                }
              ]
            },
            "system": "http://local.setting.eu/identifier",
            "value": "7c533aae-6e7f-89aa-dfdc-8ff900a5990b"
          }
        ],
        "name": [
          {
            "family": "Vávrová"
          },
          {
            "given": [
              "Ludmila"
            ]
          },
          {
            "text": "Ludmila Vávrová"
          }
        ],
        "address": [
          {
            "line": [
              "Šárovo Kolo 116"
            ],
            "use": "home",
            "type": "physical",
            "postalCode": "29471",
            "city": "Bakov nad Jizerou",
            "country": "Czechia"
          }
        ],
        "telecom": [
          {
            "system": "phone",
            "value": "00420 607 610 889"
          }
        ],
        "extension": [
          {
            "url": "http://hl7.org/fhir/StructureDefinition/patient-nationality",
            "valueCodeableConcept": {
              "coding": [
                {
                  "code": "CZ",
                  "system": "http://hl7.org/fhir/ValueSet/country"
                }
              ]
            }
          }
        ],
        "text": {
          "status": "generated",
          "div": "<div xmlns=\"http://www.w3.org/1999/xhtml\"><table class=\"hl7__ips\"><tr><td>Ludmila Vávrová</td><td>female</td><td>08-Aug-1940</td></tr></table></div>"
        },
        "gender": "female",
        "birthDate": "1940-08-08"
      }
    },
    {
      "fullUrl": "urn:uuid:9f1d804c-898b-4f74-a656-2062be274d34",
      "resource": {
        "resourceType": "ServiceRequest",
        "id": "9f1d804c-898b-4f74-a656-2062be274d34",
        "meta": {
          "profile": [
            "http://hl7.eu/fhir/laboratory/StructureDefinition/ServiceRequest-eu-lab"
          ]
        },
        "identifier": [
          {
            "system": "http://example.org",
            "value": "bfa762ff-28fc-4d57-858f-2495b6d2662e"
          }
        ],
        "specimen": [
          {
            "reference": "urn:uuid:cbaf6515-b095-4cd9-b609-8395077c1bb5"
          },
          {
            "reference": "urn:uuid:d0bf55f2-876a-42f9-9369-d85789b31394"
          },
          {
            "reference": "urn:uuid:f1546f0a-bfc6-4e49-b0b3-d7fb8b008455"
          }
        ],
        "reasonCode": [
          {
            "coding": [
              {
                "code": "414545008",
                "system": "http://snomed.info/sct",
                "display": "Ischemic heart disease"
              }
            ]
          },
          {
            "coding": [
              {
                "code": "64859006",
                "system": "http://snomed.info/sct",
                "display": "Osteoporosis"
              }
            ]
          },
          {
            "coding": [
              {
                "code": "6525002",
                "system": "http://snomed.info/sct",
                "display": "Dependent drug abuse"
              }
            ]
          },
          {
            "coding": [
              {
                "code": "55822004",
                "system": "http://snomed.info/sct",
                "display": "Hyperlipidemia"
              }
            ]
          },
          {
            "coding": [
              {
                "code": "124171000119105",
                "system": "http://snomed.info/sct",
                "display": "Chronic intractable migraine without aura"
              }
            ]
          },
          {
            "coding": [
              {
                "code": "196416002",
                "system": "http://snomed.info/sct",
                "display": "Impacted molars"
              }
            ]
          },
          {
            "coding": [
              {
                "code": "239872002",
                "system": "http://snomed.info/sct",
                "display": "Osteoarthritis of hip"
              }
            ]
          },
          {
            "coding": [
              {
                "code": "40055000",
                "system": "http://snomed.info/sct",
                "display": "Chronic sinusitis"
              }
            ]
          }
        ],
        "status": "active",
        "intent": "order",
        "code": {
          "coding": [
            {
              "code": "108252007",
              "system": "http://snomed.info/sct",
              "display": "Laboratory procedure"
            }
          ]
        },
        "subject": {
          "reference": "urn:uuid:897142dc-caaf-4d2f-8bc9-53266ac231e8",
          "display": "Ludmila Vávrová"
        },
        "requester": {
          "reference": "urn:uuid:fe955aeb-0a3a-46c4-926c-214529cf965e"
        }
      }
    },
    {
      "fullUrl": "urn:uuid:fe955aeb-0a3a-46c4-926c-214529cf965e",
      "resource": {
        "resourceType": "PractitionerRole",
        "id": "fe955aeb-0a3a-46c4-926c-214529cf965e",
        "meta": {
          "profile": [
            "http://hl7.eu/fhir/base/StructureDefinition/practitionerRole-eu"
          ]
        },
        "text": {
          "status": "generated",
          "div": "<div xmlns=\"http://www.w3.org/1999/xhtml\">Provider Role Id: fe955aeb-0a3a-46c4-926c-214529cf965e</div>"
        },
        "organization": {
          "reference": "urn:uuid:90917ae4-1c28-44b5-9e01-061f67e50d85"
        }
      }
    },
    {
      "fullUrl": "urn:uuid:90917ae4-1c28-44b5-9e01-061f67e50d85",
      "resource": {
        "resourceType": "Organization",
        "id": "90917ae4-1c28-44b5-9e01-061f67e50d85",
        "meta": {
          "profile": [
            "http://hl7.eu/fhir/base/StructureDefinition/organization-eu"
          ]
        },
        "identifier": [
          {
            "assigner": {
              "display": "HL7 Europe"
            },
            "system": "urn:oid:2.16.840.1.113883.2.51.999",
            "value": "0948aa4d-3c14-4838-9741-bb8a2e260503"
          }
        ],
        "address": [
          {
            "city": "Kosmonosy",
            "postalCode": "293 06",
            "country": "Czechia"
          }
        ],
        "text": {
          "status": "generated",
          "div": "<div xmlns=\"http://www.w3.org/1999/xhtml\">Provider Organization: Psychiatrická nemocnice Kosmonosy</div>"
        },
        "name": "Psychiatrická nemocnice Kosmonosy"
      }
    },
    {
      "fullUrl": "urn:uuid:cbaf6515-b095-4cd9-b609-8395077c1bb5",
      "resource": {
        "resourceType": "Specimen",
        "id": "cbaf6515-b095-4cd9-b609-8395077c1bb5",
        "meta": {
          "profile": [
            "http://hl7.eu/fhir/laboratory/StructureDefinition/Specimen-eu-lab"
          ]
        },
        "collection": {
          "collectedDateTime": "2022-11-24"
        },
        "text": {
          "status": "generated",
          "div": "<div xmlns=\"http://www.w3.org/1999/xhtml\"><table class=\"hl7__eu__lab__report\"><tr><th>Specimen</th><th>Collection Date</th></tr><tr><td>Whole blood specimen (specimen)</td><td><span class=\"nb\">24-Nov-2022</span></td></tr></table></div>"
        },
        "type": {
          "coding": [
            {
              "code": "258580003",
              "system": "http://snomed.info/sct",
              "display": "Whole blood specimen (specimen)"
            }
          ]
        }
      }
    },
    {
      "fullUrl": "urn:uuid:d0bf55f2-876a-42f9-9369-d85789b31394",
      "resource": {
        "resourceType": "Specimen",
        "id": "d0bf55f2-876a-42f9-9369-d85789b31394",
        "meta": {
          "profile": [
            "http://hl7.eu/fhir/laboratory/StructureDefinition/Specimen-eu-lab"
          ]
        },
        "collection": {
          "collectedDateTime": "2022-11-24"
        },
        "text": {
          "status": "generated",
          "div": "<div xmlns=\"http://www.w3.org/1999/xhtml\"><table class=\"hl7__eu__lab__report\"><tr><th>Specimen</th><th>Collection Date</th></tr><tr><td>Acellular blood (serum or plasma) specimen</td><td><span class=\"nb\">24-Nov-2022</span></td></tr></table></div>"
        },
        "type": {
          "coding": [
            {
              "code": "122592007",
              "system": "http://snomed.info/sct",
              "display": "Acellular blood (serum or plasma) specimen"
            }
          ]
        }
      }
    },
    {
      "fullUrl": "urn:uuid:f1546f0a-bfc6-4e49-b0b3-d7fb8b008455",
      "resource": {
        "resourceType": "Specimen",
        "id": "f1546f0a-bfc6-4e49-b0b3-d7fb8b008455",
        "meta": {
          "profile": [
            "http://hl7.eu/fhir/laboratory/StructureDefinition/Specimen-eu-lab"
          ]
        },
        "collection": {
          "collectedDateTime": "2022-11-24"
        },
        "text": {
          "status": "generated",
          "div": "<div xmlns=\"http://www.w3.org/1999/xhtml\"><table class=\"hl7__eu__lab__report\"><tr><th>Specimen</th><th>Collection Date</th></tr><tr><td>Serum specimen</td><td><span class=\"nb\">24-Nov-2022</span></td></tr></table></div>"
        },
        "type": {
          "coding": [
            {
              "code": "119364003",
              "system": "http://snomed.info/sct",
              "display": "Serum specimen"
            }
          ]
        }
      }
    },
    {
      "fullUrl": "urn:uuid:72c694cd-6596-4fa7-9107-1ac98f2c01c8",
      "resource": {
        "resourceType": "Observation",
        "id": "72c694cd-6596-4fa7-9107-1ac98f2c01c8",
        "meta": {
          "profile": [
            "http://hl7.eu/fhir/laboratory/StructureDefinition/Observation-resultslab-eu-lab"
          ]
        },
        "performer": [
          {
            "display": "The Central European Lab"
          }
        ],
        "category": [
          {
            "coding": [
              {
                "system": "http://terminology.hl7.org/CodeSystem/observation-category",
                "code": "laboratory"
              }
            ]
          }
        ],
        "code": {
          "coding": [
            {
              "code": "2339-0",
              "system": "http://loinc.org",
              "display": "Glucose [Mass/volume] in Blood"
            }
          ],
          "text": "Glucose [Mass/volume] in Blood"
        },
        "valueQuantity": {
          "system": "http://unitsofmeasure.org",
          "value": 74.5,
          "unit": "mg/dL",
          "code": "mg/dL"
        },
        "referenceRange": [
          {
            "low": {
              "value": 70,
              "code": "mg/dL",
              "system": "http://unitsofmeasure.org"
            }
          },
          {
            "high": {
              "value": 140,
              "code": "mg/dL",
              "system": "http://unitsofmeasure.org"
            }
          }
        ],
        "text": {
          "status": "generated",
          "div": "<div xmlns=\"http://www.w3.org/1999/xhtml\"><table class=\"hl7__eu__lab__report\"><tr><th>Test</th><th>24-Nov-2022</th><th>Reference&#xA0;Range</th><th>Unit</th></tr><tr><td>Glucose [Mass/volume] in Blood</td><td>74.5</td><td>70 - 140</td><td></td><td>mg/dL</td></tr></table></div>"
        },
        "status": "final",
        "subject": {
          "reference": "urn:uuid:897142dc-caaf-4d2f-8bc9-53266ac231e8",
          "display": "Ludmila Vávrová"
        },
        "effectiveDateTime": "2022-11-24T03:51:38Z",
        "specimen": {
          "reference": "urn:uuid:cbaf6515-b095-4cd9-b609-8395077c1bb5"
        }
      }
    },
    {
      "fullUrl": "urn:uuid:00d13dbd-700a-4720-a537-5f8bdf876579",
      "resource": {
        "resourceType": "Observation",
        "id": "00d13dbd-700a-4720-a537-5f8bdf876579",
        "meta": {
          "profile": [
            "http://hl7.eu/fhir/laboratory/StructureDefinition/Observation-resultslab-eu-lab"
          ]
        },
        "performer": [
          {
            "display": "The Central European Lab"
          }
        ],
        "category": [
          {
            "coding": [
              {
                "system": "http://terminology.hl7.org/CodeSystem/observation-category",
                "code": "laboratory"
              }
            ]
          }
        ],
        "code": {
          "coding": [
            {
              "code": "6299-2",
              "system": "http://loinc.org",
              "display": "Urea nitrogen [Mass/volume] in Blood"
            }
          ],
          "text": "Urea nitrogen [Mass/volume] in Blood"
        },
        "valueQuantity": {
          "system": "http://unitsofmeasure.org",
          "value": 10,
          "unit": "mg/dL",
          "code": "mg/dL"
        },
        "referenceRange": [
          {
            "low": {
              "value": 7,
              "code": "mg/dL",
              "system": "http://unitsofmeasure.org"
            }
          },
          {
            "high": {
              "value": 25,
              "code": "mg/dL",
              "system": "http://unitsofmeasure.org"
            }
          }
        ],
        "text": {
          "status": "generated",
          "div": "<div xmlns=\"http://www.w3.org/1999/xhtml\"><table class=\"hl7__eu__lab__report\"><tr><th>Test</th><th>24-Nov-2022</th><th>Reference&#xA0;Range</th><th>Unit</th></tr><tr><td>Urea nitrogen [Mass/volume] in Blood</td><td>10.0</td><td>7 - 25</td><td></td><td>mg/dL</td></tr></table></div>"
        },
        "status": "final",
        "subject": {
          "reference": "urn:uuid:897142dc-caaf-4d2f-8bc9-53266ac231e8",
          "display": "Ludmila Vávrová"
        },
        "effectiveDateTime": "2022-11-24T03:51:38Z",
        "specimen": {
          "reference": "urn:uuid:cbaf6515-b095-4cd9-b609-8395077c1bb5"
        }
      }
    },
    {
      "fullUrl": "urn:uuid:84e9eaa6-8cb4-4c30-bc64-8516c654b6f3",
      "resource": {
        "resourceType": "Observation",
        "id": "84e9eaa6-8cb4-4c30-bc64-8516c654b6f3",
        "meta": {
          "profile": [
            "http://hl7.eu/fhir/laboratory/StructureDefinition/Observation-resultslab-eu-lab"
          ]
        },
        "performer": [
          {
            "display": "The Central European Lab"
          }
        ],
        "category": [
          {
            "coding": [
              {
                "system": "http://terminology.hl7.org/CodeSystem/observation-category",
                "code": "laboratory"
              }
            ]
          }
        ],
        "code": {
          "coding": [
            {
              "code": "38483-4",
              "system": "http://loinc.org",
              "display": "Creatinine [Mass/volume] in Blood"
            }
          ],
          "text": "Creatinine [Mass/volume] in Blood"
        },
        "valueQuantity": {
          "system": "http://unitsofmeasure.org",
          "value": 3.4,
          "unit": "mg/dL",
          "code": "mg/dL"
        },
        "referenceRange": [
          {
            "low": {
              "value": 0.6,
              "code": "mg/dL",
              "system": "http://unitsofmeasure.org"
            }
          },
          {
            "high": {
              "value": 1.1,
              "code": "mg/dL",
              "system": "http://unitsofmeasure.org"
            }
          }
        ],
        "interpretation": [
          {
            "coding": [
              {
                "code": "H",
                "system": "http://terminology.hl7.org/CodeSystem/v3-ObservationInterpretation",
                "display": "High"
              }
            ]
          }
        ],
        "text": {
          "status": "generated",
          "div": "<div xmlns=\"http://www.w3.org/1999/xhtml\"><table class=\"hl7__eu__lab__report\"><tr><th>Test</th><th>24-Nov-2022</th><th>Reference&#xA0;Range</th><th>Unit</th></tr><tr><td>Creatinine [Mass/volume] in Blood</td><td>3.4</td><td>0.6 - 1.1</td><td>H</td><td>mg/dL</td></tr></table></div>"
        },
        "status": "final",
        "subject": {
          "reference": "urn:uuid:897142dc-caaf-4d2f-8bc9-53266ac231e8",
          "display": "Ludmila Vávrová"
        },
        "effectiveDateTime": "2022-11-24T03:51:38Z",
        "specimen": {
          "reference": "urn:uuid:cbaf6515-b095-4cd9-b609-8395077c1bb5"
        }
      }
    },
    {
      "fullUrl": "urn:uuid:439eb57c-7a15-4d68-91bb-449f00665fd4",
      "resource": {
        "resourceType": "Observation",
        "id": "439eb57c-7a15-4d68-91bb-449f00665fd4",
        "meta": {
          "profile": [
            "http://hl7.eu/fhir/laboratory/StructureDefinition/Observation-resultslab-eu-lab"
          ]
        },
        "performer": [
          {
            "display": "The Central European Lab"
          }
        ],
        "category": [
          {
            "coding": [
              {
                "system": "http://terminology.hl7.org/CodeSystem/observation-category",
                "code": "laboratory"
              }
            ]
          }
        ],
        "code": {
          "coding": [
            {
              "code": "49765-1",
              "system": "http://loinc.org",
              "display": "Calcium [Mass/volume] in Blood"
            }
          ],
          "text": "Calcium [Mass/volume] in Blood"
        },
        "valueQuantity": {
          "system": "http://unitsofmeasure.org",
          "value": 9,
          "unit": "mg/dL",
          "code": "mg/dL"
        },
        "referenceRange": [
          {
            "low": {
              "value": 8.6,
              "code": "mg/dL",
              "system": "http://unitsofmeasure.org"
            }
          },
          {
            "high": {
              "value": 10.4,
              "code": "mg/dL",
              "system": "http://unitsofmeasure.org"
            }
          }
        ],
        "text": {
          "status": "generated",
          "div": "<div xmlns=\"http://www.w3.org/1999/xhtml\"><table class=\"hl7__eu__lab__report\"><tr><th>Test</th><th>24-Nov-2022</th><th>Reference&#xA0;Range</th><th>Unit</th></tr><tr><td>Calcium [Mass/volume] in Blood</td><td>9.0</td><td>8.6 - 10.4</td><td></td><td>mg/dL</td></tr></table></div>"
        },
        "status": "final",
        "subject": {
          "reference": "urn:uuid:897142dc-caaf-4d2f-8bc9-53266ac231e8",
          "display": "Ludmila Vávrová"
        },
        "effectiveDateTime": "2022-11-24T03:51:38Z",
        "specimen": {
          "reference": "urn:uuid:cbaf6515-b095-4cd9-b609-8395077c1bb5"
        }
      }
    },
    {
      "fullUrl": "urn:uuid:2d1b2074-31e7-4eb6-942c-422e10409c70",
      "resource": {
        "resourceType": "Observation",
        "id": "2d1b2074-31e7-4eb6-942c-422e10409c70",
        "meta": {
          "profile": [
            "http://hl7.eu/fhir/laboratory/StructureDefinition/Observation-resultslab-eu-lab"
          ]
        },
        "performer": [
          {
            "display": "The Central European Lab"
          }
        ],
        "category": [
          {
            "coding": [
              {
                "system": "http://terminology.hl7.org/CodeSystem/observation-category",
                "code": "laboratory"
              }
            ]
          }
        ],
        "code": {
          "coding": [
            {
              "code": "2947-0",
              "system": "http://loinc.org",
              "display": "Sodium [Moles/volume] in Blood"
            }
          ],
          "text": "Sodium [Moles/volume] in Blood"
        },
        "valueQuantity": {
          "system": "http://unitsofmeasure.org",
          "value": 139.8,
          "unit": "mmol/L",
          "code": "mmol/L"
        },
        "referenceRange": [
          {
            "low": {
              "value": 135,
              "code": "mmol/L",
              "system": "http://unitsofmeasure.org"
            }
          },
          {
            "high": {
              "value": 145,
              "code": "mmol/L",
              "system": "http://unitsofmeasure.org"
            }
          }
        ],
        "text": {
          "status": "generated",
          "div": "<div xmlns=\"http://www.w3.org/1999/xhtml\"><table class=\"hl7__eu__lab__report\"><tr><th>Test</th><th>24-Nov-2022</th><th>Reference&#xA0;Range</th><th>Unit</th></tr><tr><td>Sodium [Moles/volume] in Blood</td><td>139.8</td><td>135 - 145</td><td></td><td>mmol/L</td></tr></table></div>"
        },
        "status": "final",
        "subject": {
          "reference": "urn:uuid:897142dc-caaf-4d2f-8bc9-53266ac231e8",
          "display": "Ludmila Vávrová"
        },
        "effectiveDateTime": "2022-11-24T03:51:38Z",
        "specimen": {
          "reference": "urn:uuid:cbaf6515-b095-4cd9-b609-8395077c1bb5"
        }
      }
    },
    {
      "fullUrl": "urn:uuid:27bae669-aeb0-4b84-801f-af733c5602df",
      "resource": {
        "resourceType": "Observation",
        "id": "27bae669-aeb0-4b84-801f-af733c5602df",
        "meta": {
          "profile": [
            "http://hl7.eu/fhir/laboratory/StructureDefinition/Observation-resultslab-eu-lab"
          ]
        },
        "performer": [
          {
            "display": "The Central European Lab"
          }
        ],
        "category": [
          {
            "coding": [
              {
                "system": "http://terminology.hl7.org/CodeSystem/observation-category",
                "code": "laboratory"
              }
            ]
          }
        ],
        "code": {
          "coding": [
            {
              "code": "6298-4",
              "system": "http://loinc.org",
              "display": "Potassium [Moles/volume] in Blood"
            }
          ],
          "text": "Potassium [Moles/volume] in Blood"
        },
        "valueQuantity": {
          "system": "http://unitsofmeasure.org",
          "value": 4.9,
          "unit": "mmol/L",
          "code": "mmol/L"
        },
        "referenceRange": [
          {
            "low": {
              "value": 3.5,
              "code": "mmol/L",
              "system": "http://unitsofmeasure.org"
            }
          },
          {
            "high": {
              "value": 5.3,
              "code": "mmol/L",
              "system": "http://unitsofmeasure.org"
            }
          }
        ],
        "text": {
          "status": "generated",
          "div": "<div xmlns=\"http://www.w3.org/1999/xhtml\"><table class=\"hl7__eu__lab__report\"><tr><th>Test</th><th>24-Nov-2022</th><th>Reference&#xA0;Range</th><th>Unit</th></tr><tr><td>Potassium [Moles/volume] in Blood</td><td>4.9</td><td>3.5 - 5.3</td><td></td><td>mmol/L</td></tr></table></div>"
        },
        "status": "final",
        "subject": {
          "reference": "urn:uuid:897142dc-caaf-4d2f-8bc9-53266ac231e8",
          "display": "Ludmila Vávrová"
        },
        "effectiveDateTime": "2022-11-24T03:51:38Z",
        "specimen": {
          "reference": "urn:uuid:cbaf6515-b095-4cd9-b609-8395077c1bb5"
        }
      }
    },
    {
      "fullUrl": "urn:uuid:25a736c0-91c3-4f49-9a69-a60faafb1f2e",
      "resource": {
        "resourceType": "Observation",
        "id": "25a736c0-91c3-4f49-9a69-a60faafb1f2e",
        "meta": {
          "profile": [
            "http://hl7.eu/fhir/laboratory/StructureDefinition/Observation-resultslab-eu-lab"
          ]
        },
        "performer": [
          {
            "display": "The Central European Lab"
          }
        ],
        "category": [
          {
            "coding": [
              {
                "system": "http://terminology.hl7.org/CodeSystem/observation-category",
                "code": "laboratory"
              }
            ]
          }
        ],
        "code": {
          "coding": [
            {
              "code": "2069-3",
              "system": "http://loinc.org",
              "display": "Chloride [Moles/volume] in Blood"
            }
          ],
          "text": "Chloride [Moles/volume] in Blood"
        },
        "valueQuantity": {
          "system": "http://unitsofmeasure.org",
          "value": 106.9,
          "unit": "mmol/L",
          "code": "mmol/L"
        },
        "referenceRange": [
          {
            "low": {
              "value": 98,
              "code": "mmol/L",
              "system": "http://unitsofmeasure.org"
            }
          },
          {
            "high": {
              "value": 108,
              "code": "mmol/L",
              "system": "http://unitsofmeasure.org"
            }
          }
        ],
        "text": {
          "status": "generated",
          "div": "<div xmlns=\"http://www.w3.org/1999/xhtml\"><table class=\"hl7__eu__lab__report\"><tr><th>Test</th><th>24-Nov-2022</th><th>Reference&#xA0;Range</th><th>Unit</th></tr><tr><td>Chloride [Moles/volume] in Blood</td><td>106.9</td><td>98 - 108</td><td></td><td>mmol/L</td></tr></table></div>"
        },
        "status": "final",
        "subject": {
          "reference": "urn:uuid:897142dc-caaf-4d2f-8bc9-53266ac231e8",
          "display": "Ludmila Vávrová"
        },
        "effectiveDateTime": "2022-11-24T03:51:38Z",
        "specimen": {
          "reference": "urn:uuid:cbaf6515-b095-4cd9-b609-8395077c1bb5"
        }
      }
    },
    {
      "fullUrl": "urn:uuid:ec0b2a54-e46f-4c6e-a111-cc474761b7dd",
      "resource": {
        "resourceType": "Observation",
        "id": "ec0b2a54-e46f-4c6e-a111-cc474761b7dd",
        "meta": {
          "profile": [
            "http://hl7.eu/fhir/laboratory/StructureDefinition/Observation-resultslab-eu-lab"
          ]
        },
        "performer": [
          {
            "display": "The Central European Lab"
          }
        ],
        "category": [
          {
            "coding": [
              {
                "system": "http://terminology.hl7.org/CodeSystem/observation-category",
                "code": "laboratory"
              }
            ]
          }
        ],
        "code": {
          "coding": [
            {
              "code": "20565-8",
              "system": "http://loinc.org",
              "display": "Carbon dioxide, total [Moles/volume] in Blood"
            }
          ],
          "text": "Carbon dioxide, total [Moles/volume] in Blood"
        },
        "valueQuantity": {
          "system": "http://unitsofmeasure.org",
          "value": 24,
          "unit": "mmol/L",
          "code": "mmol/L"
        },
        "referenceRange": [
          {
            "low": {
              "value": 22,
              "code": "mmol/L",
              "system": "http://unitsofmeasure.org"
            }
          },
          {
            "high": {
              "value": 32,
              "code": "mmol/L",
              "system": "http://unitsofmeasure.org"
            }
          }
        ],
        "text": {
          "status": "generated",
          "div": "<div xmlns=\"http://www.w3.org/1999/xhtml\"><table class=\"hl7__eu__lab__report\"><tr><th>Test</th><th>24-Nov-2022</th><th>Reference&#xA0;Range</th><th>Unit</th></tr><tr><td>Carbon dioxide, total [Moles/volume] in Blood</td><td>24.0</td><td>22 - 32</td><td></td><td>mmol/L</td></tr></table></div>"
        },
        "status": "final",
        "subject": {
          "reference": "urn:uuid:897142dc-caaf-4d2f-8bc9-53266ac231e8",
          "display": "Ludmila Vávrová"
        },
        "effectiveDateTime": "2022-11-24T03:51:38Z",
        "specimen": {
          "reference": "urn:uuid:cbaf6515-b095-4cd9-b609-8395077c1bb5"
        }
      }
    },
    {
      "fullUrl": "urn:uuid:fcf230ee-71cf-4f11-8f45-3931f3204586",
      "resource": {
        "resourceType": "Observation",
        "id": "fcf230ee-71cf-4f11-8f45-3931f3204586",
        "meta": {
          "profile": [
            "http://hl7.eu/fhir/laboratory/StructureDefinition/Observation-resultslab-eu-lab"
          ]
        },
        "performer": [
          {
            "display": "The Central European Lab"
          }
        ],
        "category": [
          {
            "coding": [
              {
                "system": "http://terminology.hl7.org/CodeSystem/observation-category",
                "code": "laboratory"
              }
            ]
          }
        ],
        "code": {
          "coding": [
            {
              "code": "2885-2",
              "system": "http://loinc.org",
              "display": "Protein [Mass/volume] in Serum or Plasma"
            }
          ],
          "text": "Protein [Mass/volume] in Serum or Plasma"
        },
        "valueQuantity": {
          "system": "http://unitsofmeasure.org",
          "value": 6.7,
          "unit": "g/dL",
          "code": "g/dL"
        },
        "referenceRange": [
          {
            "low": {
              "value": 6.6,
              "code": "g/dL",
              "system": "http://unitsofmeasure.org"
            }
          },
          {
            "high": {
              "value": 8.3,
              "code": "g/dL",
              "system": "http://unitsofmeasure.org"
            }
          }
        ],
        "text": {
          "status": "generated",
          "div": "<div xmlns=\"http://www.w3.org/1999/xhtml\"><table class=\"hl7__eu__lab__report\"><tr><th>Test</th><th>24-Nov-2022</th><th>Reference&#xA0;Range</th><th>Unit</th></tr><tr><td>Protein [Mass/volume] in Serum or Plasma</td><td>6.7</td><td>6.6 - 8.3</td><td></td><td>g/dL</td></tr></table></div>"
        },
        "status": "final",
        "subject": {
          "reference": "urn:uuid:897142dc-caaf-4d2f-8bc9-53266ac231e8",
          "display": "Ludmila Vávrová"
        },
        "effectiveDateTime": "2022-11-24T03:51:38Z",
        "specimen": {
          "reference": "urn:uuid:d0bf55f2-876a-42f9-9369-d85789b31394"
        }
      }
    },
    {
      "fullUrl": "urn:uuid:4bb1b199-e32b-4744-9d5a-605907e03656",
      "resource": {
        "resourceType": "Observation",
        "id": "4bb1b199-e32b-4744-9d5a-605907e03656",
        "meta": {
          "profile": [
            "http://hl7.eu/fhir/laboratory/StructureDefinition/Observation-resultslab-eu-lab"
          ]
        },
        "performer": [
          {
            "display": "The Central European Lab"
          }
        ],
        "category": [
          {
            "coding": [
              {
                "system": "http://terminology.hl7.org/CodeSystem/observation-category",
                "code": "laboratory"
              }
            ]
          }
        ],
        "code": {
          "coding": [
            {
              "code": "1751-7",
              "system": "http://loinc.org",
              "display": "Albumin [Mass/volume] in Serum or Plasma"
            }
          ],
          "text": "Albumin [Mass/volume] in Serum or Plasma"
        },
        "valueQuantity": {
          "system": "http://unitsofmeasure.org",
          "value": 4,
          "unit": "g/dL",
          "code": "g/dL"
        },
        "referenceRange": [
          {
            "low": {
              "value": 3.5,
              "code": "g/dL",
              "system": "http://unitsofmeasure.org"
            }
          },
          {
            "high": {
              "value": 5.5,
              "code": "g/dL",
              "system": "http://unitsofmeasure.org"
            }
          }
        ],
        "text": {
          "status": "generated",
          "div": "<div xmlns=\"http://www.w3.org/1999/xhtml\"><table class=\"hl7__eu__lab__report\"><tr><th>Test</th><th>24-Nov-2022</th><th>Reference&#xA0;Range</th><th>Unit</th></tr><tr><td>Albumin [Mass/volume] in Serum or Plasma</td><td>4.0</td><td>3.5 - 5.5</td><td></td><td>g/dL</td></tr></table></div>"
        },
        "status": "final",
        "subject": {
          "reference": "urn:uuid:897142dc-caaf-4d2f-8bc9-53266ac231e8",
          "display": "Ludmila Vávrová"
        },
        "effectiveDateTime": "2022-11-24T03:51:38Z",
        "specimen": {
          "reference": "urn:uuid:d0bf55f2-876a-42f9-9369-d85789b31394"
        }
      }
    },
    {
      "fullUrl": "urn:uuid:ff0f4743-a3da-4d04-be58-6478bc3d4a56",
      "resource": {
        "resourceType": "Observation",
        "id": "ff0f4743-a3da-4d04-be58-6478bc3d4a56",
        "meta": {
          "profile": [
            "http://hl7.eu/fhir/laboratory/StructureDefinition/Observation-resultslab-eu-lab"
          ]
        },
        "performer": [
          {
            "display": "The Central European Lab"
          }
        ],
        "category": [
          {
            "coding": [
              {
                "system": "http://terminology.hl7.org/CodeSystem/observation-category",
                "code": "laboratory"
              }
            ]
          }
        ],
        "code": {
          "coding": [
            {
              "code": "10834-0",
              "system": "http://loinc.org",
              "display": "Globulin [Mass/volume] in Serum by calculation"
            }
          ],
          "text": "Globulin [Mass/volume] in Serum by calculation"
        },
        "valueQuantity": {
          "system": "http://unitsofmeasure.org",
          "value": 3,
          "unit": "g/L",
          "code": "g/L"
        },
        "referenceRange": [
          {
            "low": {
              "value": 2.2,
              "code": "g/L",
              "system": "http://unitsofmeasure.org"
            }
          },
          {
            "high": {
              "value": 3.7,
              "code": "g/L",
              "system": "http://unitsofmeasure.org"
            }
          }
        ],
        "text": {
          "status": "generated",
          "div": "<div xmlns=\"http://www.w3.org/1999/xhtml\"><table class=\"hl7__eu__lab__report\"><tr><th>Test</th><th>24-Nov-2022</th><th>Reference&#xA0;Range</th><th>Unit</th></tr><tr><td>Globulin [Mass/volume] in Serum by calculation</td><td>3.0</td><td>2.2 - 3.7</td><td></td><td>g/L</td></tr></table></div>"
        },
        "status": "final",
        "subject": {
          "reference": "urn:uuid:897142dc-caaf-4d2f-8bc9-53266ac231e8",
          "display": "Ludmila Vávrová"
        },
        "effectiveDateTime": "2022-11-24T03:51:38Z",
        "specimen": {
          "reference": "urn:uuid:f1546f0a-bfc6-4e49-b0b3-d7fb8b008455"
        }
      }
    },
    {
      "fullUrl": "urn:uuid:bd3e76c6-8c45-4d02-a9f9-41c4d6d803bb",
      "resource": {
        "resourceType": "Observation",
        "id": "bd3e76c6-8c45-4d02-a9f9-41c4d6d803bb",
        "meta": {
          "profile": [
            "http://hl7.eu/fhir/laboratory/StructureDefinition/Observation-resultslab-eu-lab"
          ]
        },
        "performer": [
          {
            "display": "The Central European Lab"
          }
        ],
        "category": [
          {
            "coding": [
              {
                "system": "http://terminology.hl7.org/CodeSystem/observation-category",
                "code": "laboratory"
              }
            ]
          }
        ],
        "code": {
          "coding": [
            {
              "code": "1975-2",
              "system": "http://loinc.org",
              "display": "Bilirubin.total [Mass/volume] in Serum or Plasma"
            }
          ],
          "text": "Bilirubin.total [Mass/volume] in Serum or Plasma"
        },
        "valueQuantity": {
          "system": "http://unitsofmeasure.org",
          "value": 0.5,
          "unit": "mg/dL",
          "code": "mg/dL"
        },
        "referenceRange": [
          {
            "low": {
              "value": 0.3,
              "code": "mg/dL",
              "system": "http://unitsofmeasure.org"
            }
          },
          {
            "high": {
              "value": 1.2,
              "code": "mg/dL",
              "system": "http://unitsofmeasure.org"
            }
          }
        ],
        "text": {
          "status": "generated",
          "div": "<div xmlns=\"http://www.w3.org/1999/xhtml\"><table class=\"hl7__eu__lab__report\"><tr><th>Test</th><th>24-Nov-2022</th><th>Reference&#xA0;Range</th><th>Unit</th></tr><tr><td>Bilirubin.total [Mass/volume] in Serum or Plasma</td><td>0.5</td><td>0.3 - 1.2</td><td></td><td>mg/dL</td></tr></table></div>"
        },
        "status": "final",
        "subject": {
          "reference": "urn:uuid:897142dc-caaf-4d2f-8bc9-53266ac231e8",
          "display": "Ludmila Vávrová"
        },
        "effectiveDateTime": "2022-11-24T03:51:38Z",
        "specimen": {
          "reference": "urn:uuid:d0bf55f2-876a-42f9-9369-d85789b31394"
        }
      }
    },
    {
      "fullUrl": "urn:uuid:cfb1dec2-fa5b-4b37-98be-ea9b92649e6a",
      "resource": {
        "resourceType": "Observation",
        "id": "cfb1dec2-fa5b-4b37-98be-ea9b92649e6a",
        "meta": {
          "profile": [
            "http://hl7.eu/fhir/laboratory/StructureDefinition/Observation-resultslab-eu-lab"
          ]
        },
        "performer": [
          {
            "display": "The Central European Lab"
          }
        ],
        "category": [
          {
            "coding": [
              {
                "system": "http://terminology.hl7.org/CodeSystem/observation-category",
                "code": "laboratory"
              }
            ]
          }
        ],
        "code": {
          "coding": [
            {
              "code": "6768-6",
              "system": "http://loinc.org",
              "display": "Alkaline phosphatase [Enzymatic activity/volume] in Serum or Plasma"
            }
          ],
          "text": "Alkaline phosphatase [Enzymatic activity/volume] in Serum or Plasma"
        },
        "valueQuantity": {
          "system": "http://unitsofmeasure.org",
          "value": 123.5,
          "unit": "U/L",
          "code": "U/L"
        },
        "referenceRange": [
          {
            "low": {
              "value": 40,
              "code": "U/L",
              "system": "http://unitsofmeasure.org"
            }
          },
          {
            "high": {
              "value": 130,
              "code": "U/L",
              "system": "http://unitsofmeasure.org"
            }
          }
        ],
        "text": {
          "status": "generated",
          "div": "<div xmlns=\"http://www.w3.org/1999/xhtml\"><table class=\"hl7__eu__lab__report\"><tr><th>Test</th><th>24-Nov-2022</th><th>Reference&#xA0;Range</th><th>Unit</th></tr><tr><td>Alkaline phosphatase [Enzymatic activity/volume] in Serum or Plasma</td><td>123.5</td><td>40 - 130</td><td></td><td>U/L</td></tr></table></div>"
        },
        "status": "final",
        "subject": {
          "reference": "urn:uuid:897142dc-caaf-4d2f-8bc9-53266ac231e8",
          "display": "Ludmila Vávrová"
        },
        "effectiveDateTime": "2022-11-24T03:51:38Z",
        "specimen": {
          "reference": "urn:uuid:d0bf55f2-876a-42f9-9369-d85789b31394"
        }
      }
    },
    {
      "fullUrl": "urn:uuid:0d76eb35-94ed-410d-9697-21f561fb89c1",
      "resource": {
        "resourceType": "Observation",
        "id": "0d76eb35-94ed-410d-9697-21f561fb89c1",
        "meta": {
          "profile": [
            "http://hl7.eu/fhir/laboratory/StructureDefinition/Observation-resultslab-eu-lab"
          ]
        },
        "performer": [
          {
            "display": "The Central European Lab"
          }
        ],
        "category": [
          {
            "coding": [
              {
                "system": "http://terminology.hl7.org/CodeSystem/observation-category",
                "code": "laboratory"
              }
            ]
          }
        ],
        "code": {
          "coding": [
            {
              "code": "1742-6",
              "system": "http://loinc.org",
              "display": "Alanine aminotransferase [Enzymatic activity/volume] in Serum or Plasma"
            }
          ],
          "text": "Alanine aminotransferase [Enzymatic activity/volume] in Serum or Plasma"
        },
        "valueQuantity": {
          "system": "http://unitsofmeasure.org",
          "value": 51.3,
          "unit": "U/L",
          "code": "U/L"
        },
        "referenceRange": [
          {
            "low": {
              "value": 7,
              "code": "U/L",
              "system": "http://unitsofmeasure.org"
            }
          },
          {
            "high": {
              "value": 55,
              "code": "U/L",
              "system": "http://unitsofmeasure.org"
            }
          }
        ],
        "text": {
          "status": "generated",
          "div": "<div xmlns=\"http://www.w3.org/1999/xhtml\"><table class=\"hl7__eu__lab__report\"><tr><th>Test</th><th>24-Nov-2022</th><th>Reference&#xA0;Range</th><th>Unit</th></tr><tr><td>Alanine aminotransferase [Enzymatic activity/volume] in Serum or Plasma</td><td>51.3</td><td>7 - 55</td><td></td><td>U/L</td></tr></table></div>"
        },
        "status": "final",
        "subject": {
          "reference": "urn:uuid:897142dc-caaf-4d2f-8bc9-53266ac231e8",
          "display": "Ludmila Vávrová"
        },
        "effectiveDateTime": "2022-11-24T03:51:38Z",
        "specimen": {
          "reference": "urn:uuid:d0bf55f2-876a-42f9-9369-d85789b31394"
        }
      }
    },
    {
      "fullUrl": "urn:uuid:57e64013-d6a3-46fb-abe3-f024ff4865d4",
      "resource": {
        "resourceType": "Observation",
        "id": "57e64013-d6a3-46fb-abe3-f024ff4865d4",
        "meta": {
          "profile": [
            "http://hl7.eu/fhir/laboratory/StructureDefinition/Observation-resultslab-eu-lab"
          ]
        },
        "performer": [
          {
            "display": "The Central European Lab"
          }
        ],
        "category": [
          {
            "coding": [
              {
                "system": "http://terminology.hl7.org/CodeSystem/observation-category",
                "code": "laboratory"
              }
            ]
          }
        ],
        "code": {
          "coding": [
            {
              "code": "1920-8",
              "system": "http://loinc.org",
              "display": "Aspartate aminotransferase [Enzymatic activity/volume] in Serum or Plasma"
            }
          ],
          "text": "Aspartate aminotransferase [Enzymatic activity/volume] in Serum or Plasma"
        },
        "valueQuantity": {
          "system": "http://unitsofmeasure.org",
          "value": 34.1,
          "unit": "U/L",
          "code": "U/L"
        },
        "referenceRange": [
          {
            "low": {
              "value": 10,
              "code": "U/L",
              "system": "http://unitsofmeasure.org"
            }
          },
          {
            "high": {
              "value": 40,
              "code": "U/L",
              "system": "http://unitsofmeasure.org"
            }
          }
        ],
        "text": {
          "status": "generated",
          "div": "<div xmlns=\"http://www.w3.org/1999/xhtml\"><table class=\"hl7__eu__lab__report\"><tr><th>Test</th><th>24-Nov-2022</th><th>Reference&#xA0;Range</th><th>Unit</th></tr><tr><td>Aspartate aminotransferase [Enzymatic activity/volume] in Serum or Plasma</td><td>34.1</td><td>10 - 40</td><td></td><td>U/L</td></tr></table></div>"
        },
        "status": "final",
        "subject": {
          "reference": "urn:uuid:897142dc-caaf-4d2f-8bc9-53266ac231e8",
          "display": "Ludmila Vávrová"
        },
        "effectiveDateTime": "2022-11-24T03:51:38Z",
        "specimen": {
          "reference": "urn:uuid:d0bf55f2-876a-42f9-9369-d85789b31394"
        }
      }
    },
    {
      "fullUrl": "urn:uuid:d843eb42-c9f1-4f83-8e33-4cc817f7df1e",
      "resource": {
        "resourceType": "Observation",
        "id": "d843eb42-c9f1-4f83-8e33-4cc817f7df1e",
        "meta": {
          "profile": [
            "http://hl7.eu/fhir/laboratory/StructureDefinition/Observation-resultslab-eu-lab"
          ]
        },
        "performer": [
          {
            "display": "The Central European Lab"
          }
        ],
        "category": [
          {
            "coding": [
              {
                "system": "http://terminology.hl7.org/CodeSystem/observation-category",
                "code": "laboratory"
              }
            ]
          }
        ],
        "code": {
          "coding": [
            {
              "code": "2093-3",
              "system": "http://loinc.org",
              "display": "Cholesterol [Mass/volume] in Serum or Plasma"
            }
          ],
          "text": "Cholesterol [Mass/volume] in Serum or Plasma"
        },
        "valueQuantity": {
          "system": "http://unitsofmeasure.org",
          "value": 191.2,
          "unit": "mg/dL",
          "code": "mg/dL"
        },
        "referenceRange": [
          {
            "low": {
              "value": 125,
              "code": "mg/dL",
              "system": "http://unitsofmeasure.org"
            }
          },
          {
            "high": {
              "value": 200,
              "code": "mg/dL",
              "system": "http://unitsofmeasure.org"
            }
          }
        ],
        "text": {
          "status": "generated",
          "div": "<div xmlns=\"http://www.w3.org/1999/xhtml\"><table class=\"hl7__eu__lab__report\"><tr><th>Test</th><th>24-Nov-2022</th><th>Reference&#xA0;Range</th><th>Unit</th></tr><tr><td>Cholesterol [Mass/volume] in Serum or Plasma</td><td>191.2</td><td>125 - 200</td><td></td><td>mg/dL</td></tr></table></div>"
        },
        "status": "final",
        "subject": {
          "reference": "urn:uuid:897142dc-caaf-4d2f-8bc9-53266ac231e8",
          "display": "Ludmila Vávrová"
        },
        "effectiveDateTime": "2022-11-24T03:51:38Z",
        "specimen": {
          "reference": "urn:uuid:d0bf55f2-876a-42f9-9369-d85789b31394"
        }
      }
    },
    {
      "fullUrl": "urn:uuid:26e0156f-74e5-4574-a03d-c75f7bb2ccfc",
      "resource": {
        "resourceType": "Observation",
        "id": "26e0156f-74e5-4574-a03d-c75f7bb2ccfc",
        "meta": {
          "profile": [
            "http://hl7.eu/fhir/laboratory/StructureDefinition/Observation-resultslab-eu-lab"
          ]
        },
        "performer": [
          {
            "display": "The Central European Lab"
          }
        ],
        "category": [
          {
            "coding": [
              {
                "system": "http://terminology.hl7.org/CodeSystem/observation-category",
                "code": "laboratory"
              }
            ]
          }
        ],
        "code": {
          "coding": [
            {
              "code": "2571-8",
              "system": "http://loinc.org",
              "display": "Triglyceride [Mass/volume] in Serum or Plasma"
            }
          ],
          "text": "Triglyceride [Mass/volume] in Serum or Plasma"
        },
        "valueQuantity": {
          "system": "http://unitsofmeasure.org",
          "value": 199.4,
          "unit": "mg/dL",
          "code": "mg/dL"
        },
        "referenceRange": [
          {
            "low": {
              "value": 10,
              "code": "mg/dL",
              "system": "http://unitsofmeasure.org"
            }
          },
          {
            "high": {
              "value": 175,
              "code": "mg/dL",
              "system": "http://unitsofmeasure.org"
            }
          }
        ],
        "interpretation": [
          {
            "coding": [
              {
                "code": "H",
                "system": "http://terminology.hl7.org/CodeSystem/v3-ObservationInterpretation",
                "display": "High"
              }
            ]
          }
        ],
        "text": {
          "status": "generated",
          "div": "<div xmlns=\"http://www.w3.org/1999/xhtml\"><table class=\"hl7__eu__lab__report\"><tr><th>Test</th><th>24-Nov-2022</th><th>Reference&#xA0;Range</th><th>Unit</th></tr><tr><td>Triglyceride [Mass/volume] in Serum or Plasma</td><td>199.4</td><td>10 - 175</td><td>H</td><td>mg/dL</td></tr></table></div>"
        },
        "status": "final",
        "subject": {
          "reference": "urn:uuid:897142dc-caaf-4d2f-8bc9-53266ac231e8",
          "display": "Ludmila Vávrová"
        },
        "effectiveDateTime": "2022-11-24T03:51:38Z",
        "specimen": {
          "reference": "urn:uuid:d0bf55f2-876a-42f9-9369-d85789b31394"
        }
      }
    },
    {
      "fullUrl": "urn:uuid:77572d2e-e387-4d57-8753-a55cf53391c7",
      "resource": {
        "resourceType": "Observation",
        "id": "77572d2e-e387-4d57-8753-a55cf53391c7",
        "meta": {
          "profile": [
            "http://hl7.eu/fhir/laboratory/StructureDefinition/Observation-resultslab-eu-lab"
          ]
        },
        "performer": [
          {
            "display": "The Central European Lab"
          }
        ],
        "category": [
          {
            "coding": [
              {
                "system": "http://terminology.hl7.org/CodeSystem/observation-category",
                "code": "laboratory"
              }
            ]
          }
        ],
        "code": {
          "coding": [
            {
              "code": "18262-6",
              "system": "http://loinc.org",
              "display": "Cholesterol in LDL [Mass/volume] in Serum or Plasma by Direct assay"
            }
          ],
          "text": "Cholesterol in LDL [Mass/volume] in Serum or Plasma by Direct assay"
        },
        "valueQuantity": {
          "system": "http://unitsofmeasure.org",
          "value": 142.5,
          "unit": "mg/dL",
          "code": "mg/dL"
        },
        "referenceRange": [
          {
            "low": {
              "value": 0,
              "code": "mg/dL",
              "system": "http://unitsofmeasure.org"
            }
          },
          {
            "high": {
              "value": 130,
              "code": "mg/dL",
              "system": "http://unitsofmeasure.org"
            }
          }
        ],
        "interpretation": [
          {
            "coding": [
              {
                "code": "H",
                "system": "http://terminology.hl7.org/CodeSystem/v3-ObservationInterpretation",
                "display": "High"
              }
            ]
          }
        ],
        "text": {
          "status": "generated",
          "div": "<div xmlns=\"http://www.w3.org/1999/xhtml\"><table class=\"hl7__eu__lab__report\"><tr><th>Test</th><th>24-Nov-2022</th><th>Reference&#xA0;Range</th><th>Unit</th></tr><tr><td>Cholesterol in LDL [Mass/volume] in Serum or Plasma by Direct assay</td><td>142.5</td><td>0 - 130</td><td>H</td><td>mg/dL</td></tr></table></div>"
        },
        "status": "final",
        "subject": {
          "reference": "urn:uuid:897142dc-caaf-4d2f-8bc9-53266ac231e8",
          "display": "Ludmila Vávrová"
        },
        "effectiveDateTime": "2022-11-24T03:51:38Z",
        "specimen": {
          "reference": "urn:uuid:d0bf55f2-876a-42f9-9369-d85789b31394"
        }
      }
    },
    {
      "fullUrl": "urn:uuid:bb8243ad-4f34-46bd-ab49-13058dc0d47a",
      "resource": {
        "resourceType": "Observation",
        "id": "bb8243ad-4f34-46bd-ab49-13058dc0d47a",
        "meta": {
          "profile": [
            "http://hl7.eu/fhir/laboratory/StructureDefinition/Observation-resultslab-eu-lab"
          ]
        },
        "performer": [
          {
            "display": "The Central European Lab"
          }
        ],
        "category": [
          {
            "coding": [
              {
                "system": "http://terminology.hl7.org/CodeSystem/observation-category",
                "code": "laboratory"
              }
            ]
          }
        ],
        "code": {
          "coding": [
            {
              "code": "2085-9",
              "system": "http://loinc.org",
              "display": "Cholesterol in HDL [Mass/volume] in Serum or Plasma"
            }
          ],
          "text": "Cholesterol in HDL [Mass/volume] in Serum or Plasma"
        },
        "valueQuantity": {
          "system": "http://unitsofmeasure.org",
          "value": 53,
          "unit": "mg/dL",
          "code": "mg/dL"
        },
        "referenceRange": [
          {
            "low": {
              "value": 50,
              "code": "mg/dL",
              "system": "http://unitsofmeasure.org"
            }
          },
          {
            "high": {
              "value": 100,
              "code": "mg/dL",
              "system": "http://unitsofmeasure.org"
            }
          }
        ],
        "text": {
          "status": "generated",
          "div": "<div xmlns=\"http://www.w3.org/1999/xhtml\"><table class=\"hl7__eu__lab__report\"><tr><th>Test</th><th>24-Nov-2022</th><th>Reference&#xA0;Range</th><th>Unit</th></tr><tr><td>Cholesterol in HDL [Mass/volume] in Serum or Plasma</td><td>53.0</td><td>50 - 100</td><td></td><td>mg/dL</td></tr></table></div>"
        },
        "status": "final",
        "subject": {
          "reference": "urn:uuid:897142dc-caaf-4d2f-8bc9-53266ac231e8",
          "display": "Ludmila Vávrová"
        },
        "effectiveDateTime": "2022-11-24T03:51:38Z",
        "specimen": {
          "reference": "urn:uuid:d0bf55f2-876a-42f9-9369-d85789b31394"
        }
      }
    },
    {
      "fullUrl": "urn:uuid:3c2f4688-2b74-4d1e-87b2-571520e4f02d",
      "resource": {
        "resourceType": "Device",
        "id": "3c2f4688-2b74-4d1e-87b2-571520e4f02d",
        "deviceName": [
          {
            "name": "SYNDERAI Synthetic Generator",
            "type": "manufacturer-name"
          }
        ],
        "version": [
          {
            "value": "5.0"
          }
        ],
        "text": {
          "status": "generated",
          "div": "<div xmlns=\"http://www.w3.org/1999/xhtml\">SYNDERAI Synthetic Generator v5.0</div>"
        },
        "status": "active\"",
        "distinctIdentifier": "synderai-generator-50",
        "manufacturer": "SYNDERAI Project"
      }
    },
    {
      "fullUrl": "urn:uuid:f9c2e3db-7d2a-4964-a55b-7a73c3984da1",
      "resource": {
        "resourceType": "Provenance",
        "id": "f9c2e3db-7d2a-4964-a55b-7a73c3984da1",
        "target": [
          {
            "reference": "Patient/897142dc-caaf-4d2f-8bc9-53266ac231e8"
          },
          {
            "reference": "Bundle/cc69e082-855c-41fe-8353-72e5ee7a5337"
          },
          {
            "reference": "Composition/6eb2ad0e-e7e3-4f59-85ef-9293fe525e2c"
          },
          {
            "reference": "PractitionerRole/25c7db48-550b-4254-93f7-147aabdf5e54"
          },
          {
            "reference": "Practitioner/86fe94e1-e62c-4cdf-9d81-321253ecb115"
          },
          {
            "reference": "PractitionerRole/fe955aeb-0a3a-46c4-926c-214529cf965e"
          },
          {
            "reference": "Organization/90917ae4-1c28-44b5-9e01-061f67e50d85"
          }
        ],
        "activity": {
          "text": "Synthetic Example Data Generation"
        },
        "policy": [
          "https://synderai.net/synderai-synthetic-data-policy"
        ],
        "agent": [
          {
            "type": {
              "text": "author"
            },
            "who": {
              "reference": "Device/3c2f4688-2b74-4d1e-87b2-571520e4f02d"
            }
          }
        ],
        "reason": [
          {
            "text": "Interoperability Testing and Training (non-clinical use)"
          }
        ],
        "text": {
          "status": "generated",
          "div": "<div xmlns=\"http://www.w3.org/1999/xhtml\">Provenance for SYNDERAI Synthetic Example Data Resource</div>"
        },
        "recorded": "2022-11-24T04:51:38Z"
      }
    },
    {
      "fullUrl": "urn:uuid:25c7db48-550b-4254-93f7-147aabdf5e54",
      "resource": {
        "resourceType": "PractitionerRole",
        "id": "25c7db48-550b-4254-93f7-147aabdf5e54",
        "meta": {
          "profile": [
            "http://hl7.eu/fhir/base/StructureDefinition/practitionerRole-eu"
          ]
        },
        "text": {
          "status": "generated",
          "div": "<div xmlns=\"http://www.w3.org/1999/xhtml\">Laboratory Role Id: 25c7db48-550b-4254-93f7-147aabdf5e54</div>"
        },
        "practitioner": {
          "reference": "urn:uuid:86fe94e1-e62c-4cdf-9d81-321253ecb115"
        }
      }
    },
    {
      "fullUrl": "urn:uuid:86fe94e1-e62c-4cdf-9d81-321253ecb115",
      "resource": {
        "resourceType": "Practitioner",
        "id": "86fe94e1-e62c-4cdf-9d81-321253ecb115",
        "meta": {
          "profile": [
            "http://hl7.eu/fhir/base/StructureDefinition/practitioner-eu"
          ]
        },
        "identifier": [
          {
            "assigner": {
              "display": "HL7 Europe"
            },
            "system": "urn:oid:2.16.840.1.113883.2.51.999",
            "value": "41d36d44-d1b4-4b91-906c-298d5c17e611"
          }
        ],
        "name": [
          {
            "prefix": [
              "dr"
            ],
            "given": [
              "Ex"
            ],
            "family": "Ample"
          }
        ],
        "address": [
          {
            "line": [
              "Laboratoire Central Européenne",
              "Boulevard du Jardin Botanique 32"
            ],
            "postalCode": "1000",
            "city": "Brussels",
            "country": "Belgium"
          }
        ],
        "text": {
          "status": "generated",
          "div": "<div xmlns=\"http://www.w3.org/1999/xhtml\">Laboratory: Laboratoire Central Européenne, 1000 Brussels, Belgium</div>"
        }
      }
    }
  ],
  "type": "document",
  "timestamp": "2022-11-24T04:51:38Z"
}
