<Bundle xmlns="http://hl7.org/fhir">
   <id value="db15eae2-db28-484d-9319-1f6f78925071"/>
   <meta>
      <profile value="http://hl7.eu/fhir/laboratory/StructureDefinition/Bundle-eu-lab"/>
   </meta>
   <identifier>
      <system value="urn:oid:2.16.840.1.113883.2.51.999"/>
      <value value="051e27b7-afba-4a54-b0b8-8768477415e6"/>
      <assigner>
         <display value="HL7 Europe"/>
      </assigner>
   </identifier>
   <type value="document"/>
   <timestamp value="2021-11-27T03:30:19Z"/>
   <entry>
      <fullUrl value="urn:uuid:78ec1fd6-4ef7-4458-8d33-1d88737e211a"/>
      <resource>
         <Composition>
            <id value="78ec1fd6-4ef7-4458-8d33-1d88737e211a"/>
            <meta>
               <profile value="http://hl7.eu/fhir/laboratory/StructureDefinition/Composition-eu-lab"/>
            </meta>
            <identifier>
               <system value="urn:oid:2.16.840.1.113883.2.51.999"/>
               <value value="75cdf4f1-766e-46d8-84bc-dcccec9bcfd7"/>
               <assigner>
                  <display value="HL7 Europe"/>
               </assigner>
            </identifier>
            <status value="final"/>
            <type>
               <coding>
                  <system value="http://loinc.org"/>
                  <code value="11502-2"/>
                  <display value="Laboratory report"/>
               </coding>
               <text value="Laboratory Report"/>
            </type>
            <category>
               <coding>
                  <system value="http://loinc.org"/>
                  <code value="26436-6"/>
                  <display value="Laboratory studies (set)"/>
               </coding>
            </category>
            <subject>
               <reference value="urn:uuid:313f35af-8c8e-405d-aae6-cc0eb45d2772"/>
               <display value="Stephen Weinhage"/>
            </subject>
            <date value="2021-11-27T03:30:19Z"/>
            <author>
               <reference value="urn:uuid:16f3b7ce-c763-421b-b668-6e687ccfbb9d"/>
            </author>
            <title value="Laboratory Report"/>
            <confidentiality value="N"/>
            <section>
               <title value="Laboratory Report"/>
               <code>
                  <coding>
                     <system value="http://loinc.org"/>
                     <code value="26436-6"/>
                     <display value="Laboratory studies (set)"/>
                  </coding>
                  <text value="Laboratory studies"/>
               </code>
               <section>
                  <title value="Chemistry"/>
                  <code>
                     <coding>
                        <system value="http://loinc.org"/>
                        <code value="$18719-5"/>
                        <display value="Chemistry studies (set)"/>
                     </coding>
                     <text value="Chemistry"/>
                  </code>
                  <text>
                     <status value="generated"/>
                     <div xmlns="http://www.w3.org/1999/xhtml">
                        <h3>Chemistry</h3>
                        <table class="hl7__eu__lab__report">
                           <thead>
                              <tr>
                                 <th>Test</th>
                                 <th>27-NOV-2021</th>
                                 <th>Reference Range</th>
                                 <th>Unit</th>
                              </tr>
                           </thead>
                           <tbody>
                              <tr>
                                 <td>Ketones [Presence] in Urine by Test strip</td>
                                 <td>Urine ketone test negative</td>
                                 <td/>
                                 <td/>
                              </tr>
                           </tbody>
                        </table>
                     </div>
                  </text>
                  <entry>
                     <reference value="urn:uuid:7f1c5cb2-be8b-4594-8d4b-20160b976a92"/>
                  </entry>
               </section>
               <section>
                  <title value="Urinalysis"/>
                  <code>
                     <coding>
                        <system value="http://loinc.org"/>
                        <code value="$18729-4"/>
                        <display value="Urinalysis studies (set)"/>
                     </coding>
                     <text value="Urinalysis"/>
                  </code>
                  <text>
                     <status value="generated"/>
                     <div xmlns="http://www.w3.org/1999/xhtml">
                        <h3>Urinalysis</h3>
                        <table class="hl7__eu__lab__report">
                           <thead>
                              <tr>
                                 <th>Test</th>
                                 <th>27-NOV-2021</th>
                                 <th>Reference Range</th>
                                 <th>Unit</th>
                              </tr>
                           </thead>
                           <tbody>
                              <tr>
                                 <td>Glucose [Mass/volume] in Urine by Test strip</td>
                                 <td>
                                    <strong>12.7 H</strong>
                                 </td>
                                 <td>0 - 0.8</td>
                                 <td>mg/dL</td>
                              </tr>
                              <tr>
                                 <td>Specific gravity of Urine by Test strip</td>
                                 <td>
                                    <strong>1.0 L</strong>
                                 </td>
                                 <td>1.005 - 1.03</td>
                                 <td>{nominal}</td>
                              </tr>
                              <tr>
                                 <td>pH of Urine by Test strip</td>
                                 <td>5.7</td>
                                 <td>4.5 - 7.5</td>
                                 <td>pH</td>
                              </tr>
                              <tr>
                                 <td>Protein [Mass/volume] in Urine by Test strip</td>
                                 <td>
                                    <strong>7.0 L</strong>
                                 </td>
                                 <td>14 - 20</td>
                                 <td>mg/dL</td>
                              </tr>
                              <tr>
                                 <td>Nitrite [Presence] in Urine by Test strip</td>
                                 <td>Urine nitrite positive</td>
                                 <td/>
                                 <td/>
                              </tr>
                              <tr>
                                 <td>Hemoglobin [Presence] in Urine by Test strip</td>
                                 <td>Urine blood test = +</td>
                                 <td/>
                                 <td/>
                              </tr>
                              <tr>
                                 <td>Leukocyte esterase [Presence] in Urine by Test strip</td>
                                 <td>Urine leukocyte test</td>
                                 <td/>
                                 <td/>
                              </tr>
                              <tr>
                                 <td>Leukocytes [#/area] in Urine sediment by Microscopy high power field</td>
                                 <td>
                                    <strong>16.5 H</strong>
                                 </td>
                                 <td>0 - 5</td>
                                 <td>/[HPF]</td>
                              </tr>
                              <tr>
                                 <td>Erythrocytes [#/area] in Urine sediment by Microscopy high power field</td>
                                 <td>1.9</td>
                                 <td>0 - 5</td>
                                 <td>/[HPF]</td>
                              </tr>
                              <tr>
                                 <td>Epithelial cells [#/area] in Urine sediment by Microscopy high power field</td>
                                 <td>1.0</td>
                                 <td>0 - 5</td>
                                 <td>/[HPF]</td>
                              </tr>
                              <tr>
                                 <td>Casts [Presence] in Urine sediment by Light microscopy</td>
                                 <td>Urine microscopy: no casts</td>
                                 <td/>
                                 <td/>
                              </tr>
                              <tr>
                                 <td>Mucus [Presence] in Urine sediment by Light microscopy</td>
                                 <td>Mucus in urine</td>
                                 <td/>
                                 <td/>
                              </tr>
                              <tr>
                                 <td>Bacteria [#/area] in Urine sediment by Microscopy high power field</td>
                                 <td>Finding of presence of bacteria</td>
                                 <td/>
                                 <td/>
                              </tr>
                           </tbody>
                        </table>
                     </div>
                  </text>
                  <entry>
                     <reference value="urn:uuid:8707bc6c-8a38-46f1-ba7a-eb85e98dfc6b"/>
                  </entry>
                  <entry>
                     <reference value="urn:uuid:72b07159-bbba-462a-9c40-6f92f3f7d046"/>
                  </entry>
                  <entry>
                     <reference value="urn:uuid:73007af4-35c3-4d63-9873-0887549dfbbf"/>
                  </entry>
                  <entry>
                     <reference value="urn:uuid:adda65e4-265c-4501-81f6-67ff72c18cac"/>
                  </entry>
                  <entry>
                     <reference value="urn:uuid:56ec3435-1ed9-477b-bc6a-0af2cc1985ac"/>
                  </entry>
                  <entry>
                     <reference value="urn:uuid:d92ca43c-a750-45d3-bd51-398fcee8ecf1"/>
                  </entry>
                  <entry>
                     <reference value="urn:uuid:3fbc4446-6b2c-4c20-bc8c-03eeffe3a9ff"/>
                  </entry>
                  <entry>
                     <reference value="urn:uuid:e81101e7-6b66-4255-889a-625159c8dc4f"/>
                  </entry>
                  <entry>
                     <reference value="urn:uuid:4a8f36c3-9c93-4f67-aa6c-fdafe192bf6d"/>
                  </entry>
                  <entry>
                     <reference value="urn:uuid:934e9586-9265-4382-adbd-c765f64d76bd"/>
                  </entry>
                  <entry>
                     <reference value="urn:uuid:645c5413-6c88-4272-8210-f762522b6823"/>
                  </entry>
                  <entry>
                     <reference value="urn:uuid:6af7b5be-f9fd-441e-93ae-9d98f7d3e28e"/>
                  </entry>
                  <entry>
                     <reference value="urn:uuid:b856eb57-3cb5-4f90-b788-b7f0551347d9"/>
                  </entry>
               </section>
               <section>
                  <title value="Microbiology"/>
                  <code>
                     <coding>
                        <system value="http://loinc.org"/>
                        <code value="$18725-2"/>
                        <display value="Microbiology studies"/>
                     </coding>
                     <text value="Microbiology"/>
                  </code>
                  <text>
                     <status value="generated"/>
                     <div xmlns="http://www.w3.org/1999/xhtml">
                        <h3>Microbiology</h3>
                        <table class="hl7__eu__lab__report">
                           <thead>
                              <tr>
                                 <th>Test</th>
                                 <th>27-NOV-2021</th>
                                 <th>Reference Range</th>
                                 <th>Unit</th>
                              </tr>
                           </thead>
                           <tbody>
                              <tr>
                                 <td>Bacteria identified in Urine by Culture</td>
                                 <td/>
                                 <td/>
                                 <td/>
                              </tr>
                           </tbody>
                        </table>
                     </div>
                  </text>
                  <entry>
                     <reference value="urn:uuid:be61f20f-813c-447c-9b71-8638365e291e"/>
                  </entry>
               </section>
            </section>
            <section>
               <title value="Annotation comment"/>
               <code>
                  <coding>
                     <system value="http://loinc.org"/>
                     <code value="48767-8"/>
                     <display value="Annotation comment"/>
                  </coding>
               </code>
               <text>
                  <status value="generated"/>
                  <div xmlns="http://www.w3.org/1999/xhtml">
                     <h3>Annotation</h3>
                     <table class="hl7__eu__lab__report">
                        <tr>
                           <th>Conclusion and Recommendations based on this report and previous findings known to us</th>
                        </tr>
                        <tr>
                           <td>Urinalysis shows significant bacteriuria (&gt;100,000 CFU/mL E. coli), positive nitrites, leukocyte esterase, hematuria, pyuria, and presence of bacteria and mucus, consistent with a urinary tract infection. Marked glucosuria is noted, suggestive of possible hyperglycemia/diabetes. No ketonuria. Low urine specific gravity may indicate dilute urine. Recommend clinical correlation and further evaluation for diabetes and urinary tract infection management.</td>
                        </tr>
                     </table>
                  </div>
               </text>
            </section>
         </Composition>
      </resource>
   </entry>
   <entry>
      <fullUrl value="urn:uuid:3811c40c-5e31-4bc8-a040-c44876f84fc4"/>
      <resource>
         <DiagnosticReport>
            <id value="3811c40c-5e31-4bc8-a040-c44876f84fc4"/>
            <meta>
               <profile value="http://hl7.eu/fhir/laboratory/StructureDefinition/DiagnosticReport-eu-lab"/>
            </meta>
            <extension url="http://hl7.org/fhir/5.0/StructureDefinition/extension-DiagnosticReport.composition">
               <valueReference>
                  <reference value="urn:uuid:75cdf4f1-766e-46d8-84bc-dcccec9bcfd7"/>
               </valueReference>
            </extension>
            <identifier>
               <system value="urn:oid:2.16.840.1.113883.2.51.999"/>
               <value value="cb3aafc3-39f3-4a8a-a230-6f948669465f"/>
               <assigner>
                  <display value="HL7 Europe"/>
               </assigner>
            </identifier>
            <status value="registered"/>
            <category>
               <coding>
                  <system value="http://loinc.org"/>
                  <code value="26436-6"/>
                  <display value="Laboratory studies (set)"/>
               </coding>
            </category>
            <code>
               <coding>
                  <system value="http://loinc.org"/>
                  <code value="11502-2"/>
                  <display value="Laboratory report"/>
               </coding>
            </code>
            <subject>
               <reference value="urn:uuid:313f35af-8c8e-405d-aae6-cc0eb45d2772"/>
               <display value="Stephen Weinhage"/>
            </subject>
            <specimen>
               <reference value="urn:uuid:299216e6-fef0-4c20-b229-0597aa97808d"/>
            </specimen>
            <specimen>
               <reference value="urn:uuid:8833a457-dab6-4567-88fc-0531820781f5"/>
            </specimen>
            <result>
               <reference value="urn:uuid:8707bc6c-8a38-46f1-ba7a-eb85e98dfc6b"/>
            </result>
            <result>
               <reference value="urn:uuid:7f1c5cb2-be8b-4594-8d4b-20160b976a92"/>
            </result>
            <result>
               <reference value="urn:uuid:72b07159-bbba-462a-9c40-6f92f3f7d046"/>
            </result>
            <result>
               <reference value="urn:uuid:73007af4-35c3-4d63-9873-0887549dfbbf"/>
            </result>
            <result>
               <reference value="urn:uuid:adda65e4-265c-4501-81f6-67ff72c18cac"/>
            </result>
            <result>
               <reference value="urn:uuid:56ec3435-1ed9-477b-bc6a-0af2cc1985ac"/>
            </result>
            <result>
               <reference value="urn:uuid:d92ca43c-a750-45d3-bd51-398fcee8ecf1"/>
            </result>
            <result>
               <reference value="urn:uuid:3fbc4446-6b2c-4c20-bc8c-03eeffe3a9ff"/>
            </result>
            <result>
               <reference value="urn:uuid:e81101e7-6b66-4255-889a-625159c8dc4f"/>
            </result>
            <result>
               <reference value="urn:uuid:4a8f36c3-9c93-4f67-aa6c-fdafe192bf6d"/>
            </result>
            <result>
               <reference value="urn:uuid:934e9586-9265-4382-adbd-c765f64d76bd"/>
            </result>
            <result>
               <reference value="urn:uuid:645c5413-6c88-4272-8210-f762522b6823"/>
            </result>
            <result>
               <reference value="urn:uuid:6af7b5be-f9fd-441e-93ae-9d98f7d3e28e"/>
            </result>
            <result>
               <reference value="urn:uuid:b856eb57-3cb5-4f90-b788-b7f0551347d9"/>
            </result>
            <result>
               <reference value="urn:uuid:be61f20f-813c-447c-9b71-8638365e291e"/>
            </result>
         </DiagnosticReport>
      </resource>
   </entry>
   <entry>
      <fullUrl value="urn:uuid:313f35af-8c8e-405d-aae6-cc0eb45d2772"/>
      <resource>
         <Patient>
            <id value="313f35af-8c8e-405d-aae6-cc0eb45d2772"/>
            <meta>
               <profile value="http://hl7.eu/fhir/base/StructureDefinition/patient-eu-core"/>
               <security>
                  <system value="http://terminology.hl7.org/CodeSystem/v3-ActReason"/>
                  <code value="HTEST"/>
               </security>
               <security>
                  <system value="http://terminology.hl7.org/CodeSystem/v3-ActReason"/>
                  <code value="TRAIN"/>
               </security>
               <tag>
                  <system value="https://synderai.net/fhir/CodeSystem/tags"/>
                  <code value="synthetic"/>
                  <display value="SYNDERAI Synthetic data"/>
               </tag>
            </meta>
            <text>
               <status value="generated"/>
               <div xmlns="http://www.w3.org/1999/xhtml">
                  <table class="hl7__ips">
                     <tr>
                        <td>Stephen Weinhage</td>
                        <td>male</td>
                        <td>11-Aug-1950</td>
                     </tr>
                  </table>
               </div>
            </text>
            <extension url="http://hl7.org/fhir/StructureDefinition/patient-nationality">
               <valueCodeableConcept>
                  <coding>
                     <system value="http://hl7.org/fhir/ValueSet/country"/>
                     <code value="DE"/>
                  </coding>
               </valueCodeableConcept>
            </extension>
            <identifier>
               <type>
                  <coding>
                     <system value="http://terminology.hl7.org/CodeSystem/v2-0203"/>
                     <code value="PT"/>
                  </coding>
               </type>
               <system value="http://ec.europa.eu/identifier/eci"/>
               <value value="6413-101438-9"/>
            </identifier>
            <identifier>
               <type>
                  <coding>
                     <system value="http://terminology.hl7.org/CodeSystem/v2-0203"/>
                     <code value="MR"/>
                  </coding>
               </type>
               <system value="http://local.setting.eu/identifier"/>
               <value value="24ebd065-2072-c582-96d3-10256a4a5a7d"/>
            </identifier>
            <name>
               <family value="Weinhage"/>
            </name>
            <name>
               <given value="Stephen"/>
            </name>
            <name>
               <text value="Stephen Weinhage"/>
            </name>
            <telecom>
               <system value="phone"/>
               <value value="+49(0)5355171263"/>
            </telecom>
            <gender value="male"/>
            <birthDate value="1950-08-11"/>
            <address>
               <use value="home"/>
               <type value="physical"/>
               <line value="Bertold-Stahr-Platz 6/3"/>
               <city value="Neustadt am Rübenberge"/>
               <postalCode value="31535"/>
               <country value="Germany"/>
            </address>
         </Patient>
      </resource>
   </entry>
   <entry>
      <fullUrl value="urn:uuid:3026c721-3437-4164-b29c-d93066bd37a2"/>
      <resource>
         <ServiceRequest>
            <id value="3026c721-3437-4164-b29c-d93066bd37a2"/>
            <meta>
               <profile value="http://hl7.eu/fhir/laboratory/StructureDefinition/ServiceRequest-eu-lab"/>
            </meta>
            <identifier>
               <system value="http://example.org"/>
               <value value="c2e80265-69fb-4fa5-a3f1-88ffcc083a0b"/>
            </identifier>
            <status value="active"/>
            <intent value="order"/>
            <code>
               <coding>
                  <system value="http://snomed.info/sct"/>
                  <code value="108252007"/>
                  <display value="Laboratory procedure"/>
               </coding>
            </code>
            <subject>
               <reference value="urn:uuid:313f35af-8c8e-405d-aae6-cc0eb45d2772"/>
               <display value="Stephen Weinhage"/>
            </subject>
            <requester>
               <reference value="urn:uuid:8e27dd14-bfab-4cc5-93a5-580a494ac504"/>
            </requester>
            <reasonCode>
               <coding>
                  <system value="http://snomed.info/sct"/>
                  <code value="422034002"/>
                  <display value="Retinopathy due to type 2 diabetes mellitus"/>
               </coding>
            </reasonCode>
            <reasonCode>
               <coding>
                  <system value="http://snomed.info/sct"/>
                  <code value="55822004"/>
                  <display value="Hyperlipidemia"/>
               </coding>
            </reasonCode>
            <reasonCode>
               <coding>
                  <system value="http://snomed.info/sct"/>
                  <code value="302870006"/>
                  <display value="Hypertriglyceridemia"/>
               </coding>
            </reasonCode>
            <reasonCode>
               <coding>
                  <system value="http://snomed.info/sct"/>
                  <code value="44054006"/>
                  <display value="Type 2 diabetes mellitus"/>
               </coding>
            </reasonCode>
            <reasonCode>
               <coding>
                  <system value="http://snomed.info/sct"/>
                  <code value="414545008"/>
                  <display value="Ischemic heart disease"/>
               </coding>
            </reasonCode>
            <reasonCode>
               <coding>
                  <system value="http://snomed.info/sct"/>
                  <code value="237602007"/>
                  <display value="Metabolic syndrome X"/>
               </coding>
            </reasonCode>
            <reasonCode>
               <coding>
                  <system value="http://snomed.info/sct"/>
                  <code value="68496003"/>
                  <display value="Polyp of colon"/>
               </coding>
            </reasonCode>
            <reasonCode>
               <coding>
                  <system value="http://snomed.info/sct"/>
                  <code value="59621000"/>
                  <display value="Essential hypertension"/>
               </coding>
            </reasonCode>
            <reasonCode>
               <coding>
                  <system value="http://snomed.info/sct"/>
                  <code value="15777000"/>
                  <display value="Prediabetes"/>
               </coding>
            </reasonCode>
            <reasonCode>
               <coding>
                  <system value="http://snomed.info/sct"/>
                  <code value="271737000"/>
                  <display value="Anemia"/>
               </coding>
            </reasonCode>
            <reasonCode>
               <coding>
                  <system value="http://snomed.info/sct"/>
                  <code value="40055000"/>
                  <display value="Chronic sinusitis"/>
               </coding>
            </reasonCode>
            <specimen>
               <reference value="urn:uuid:299216e6-fef0-4c20-b229-0597aa97808d"/>
            </specimen>
            <specimen>
               <reference value="urn:uuid:8833a457-dab6-4567-88fc-0531820781f5"/>
            </specimen>
         </ServiceRequest>
      </resource>
   </entry>
   <entry>
      <fullUrl value="urn:uuid:8e27dd14-bfab-4cc5-93a5-580a494ac504"/>
      <resource>
         <PractitionerRole>
            <id value="8e27dd14-bfab-4cc5-93a5-580a494ac504"/>
            <meta>
               <profile value="http://hl7.eu/fhir/base/StructureDefinition/practitionerRole-eu"/>
            </meta>
            <text>
               <status value="generated"/>
               <div xmlns="http://www.w3.org/1999/xhtml">Provider Role Id: 8e27dd14-bfab-4cc5-93a5-580a494ac504</div>
            </text>
            <organization>
               <reference value="urn:uuid:90b4112c-373e-43b0-9e35-662475ff3f02"/>
            </organization>
         </PractitionerRole>
      </resource>
   </entry>
   <entry>
      <fullUrl value="urn:uuid:90b4112c-373e-43b0-9e35-662475ff3f02"/>
      <resource>
         <Organization>
            <id value="90b4112c-373e-43b0-9e35-662475ff3f02"/>
            <meta>
               <profile value="http://hl7.eu/fhir/base/StructureDefinition/organization-eu"/>
            </meta>
            <text>
               <status value="generated"/>
               <div xmlns="http://www.w3.org/1999/xhtml">Provider Organization: Landarztpraxis Dudensen</div>
            </text>
            <identifier>
               <system value="urn:oid:2.16.840.1.113883.2.51.999"/>
               <value value="ae02b965-1d8f-4f35-a05d-37eb080a2fda"/>
               <assigner>
                  <display value="HL7 Europe"/>
               </assigner>
            </identifier>
            <name value="Landarztpraxis Dudensen"/>
            <address>
               <line value="Dudenser Straße 41A"/>
               <city value="Neustadt am Rübenberge"/>
               <postalCode value="31535"/>
               <country value="Germany"/>
            </address>
         </Organization>
      </resource>
   </entry>
   <entry>
      <fullUrl value="urn:uuid:299216e6-fef0-4c20-b229-0597aa97808d"/>
      <resource>
         <Specimen>
            <id value="299216e6-fef0-4c20-b229-0597aa97808d"/>
            <meta>
               <profile value="http://hl7.eu/fhir/laboratory/StructureDefinition/Specimen-eu-lab"/>
            </meta>
            <text>
               <status value="generated"/>
               <div xmlns="http://www.w3.org/1999/xhtml">
                  <table class="hl7__eu__lab__report">
                     <tr>
                        <th>Specimen</th>
                        <th>Collection Date</th>
                     </tr>
                     <tr>
                        <td>Urine specimen</td>
                        <td>
                           <span class="nb">27-Nov-2021</span>
                        </td>
                     </tr>
                  </table>
               </div>
            </text>
            <type>
               <coding>
                  <system value="http://snomed.info/sct"/>
                  <code value="122575003"/>
                  <display value="Urine specimen"/>
               </coding>
            </type>
            <collection>
               <collectedDateTime value="2021-11-27"/>
            </collection>
         </Specimen>
      </resource>
   </entry>
   <entry>
      <fullUrl value="urn:uuid:8833a457-dab6-4567-88fc-0531820781f5"/>
      <resource>
         <Specimen>
            <id value="8833a457-dab6-4567-88fc-0531820781f5"/>
            <meta>
               <profile value="http://hl7.eu/fhir/laboratory/StructureDefinition/Specimen-eu-lab"/>
            </meta>
            <text>
               <status value="generated"/>
               <div xmlns="http://www.w3.org/1999/xhtml">
                  <table class="hl7__eu__lab__report">
                     <tr>
                        <th>Specimen</th>
                        <th>Collection Date</th>
                     </tr>
                     <tr>
                        <td>Urine sediment specimen (specimen)</td>
                        <td>
                           <span class="nb">27-Nov-2021</span>
                        </td>
                     </tr>
                  </table>
               </div>
            </text>
            <type>
               <coding>
                  <system value="http://snomed.info/sct"/>
                  <code value="122567009"/>
                  <display value="Urine sediment specimen (specimen)"/>
               </coding>
            </type>
            <collection>
               <collectedDateTime value="2021-11-27"/>
            </collection>
         </Specimen>
      </resource>
   </entry>
   <entry>
      <fullUrl value="urn:uuid:8707bc6c-8a38-46f1-ba7a-eb85e98dfc6b"/>
      <resource>
         <Observation>
            <id value="8707bc6c-8a38-46f1-ba7a-eb85e98dfc6b"/>
            <meta>
               <profile value="http://hl7.eu/fhir/laboratory/StructureDefinition/Observation-resultslab-eu-lab"/>
            </meta>
            <text>
               <status value="generated"/>
               <div xmlns="http://www.w3.org/1999/xhtml">
                  <table class="hl7__eu__lab__report">
                     <tr>
                        <th>Test</th>
                        <th>27-Nov-2021</th>
                        <th>Reference Range</th>
                        <th>Unit</th>
                     </tr>
                     <tr>
                        <td>Glucose [Mass/volume] in Urine by Test strip</td>
                        <td>12.7</td>
                        <td>0 - 0.8</td>
                        <td>H</td>
                        <td>mg/dL</td>
                     </tr>
                  </table>
               </div>
            </text>
            <status value="final"/>
            <category>
               <coding>
                  <system value="http://terminology.hl7.org/CodeSystem/observation-category"/>
                  <code value="laboratory"/>
               </coding>
            </category>
            <code>
               <coding>
                  <system value="http://loinc.org"/>
                  <code value="5792-7"/>
                  <display value="Glucose [Mass/volume] in Urine by Test strip"/>
               </coding>
               <text value="Glucose [Mass/volume] in Urine by Test strip"/>
            </code>
            <subject>
               <reference value="urn:uuid:313f35af-8c8e-405d-aae6-cc0eb45d2772"/>
               <display value="Stephen Weinhage"/>
            </subject>
            <effectiveDateTime value="2021-11-27T02:30:19Z"/>
            <performer>
               <display value="The Central European Lab"/>
            </performer>
            <valueQuantity>
               <value value="12.7"/>
               <unit value="mg/dL"/>
               <system value="http://unitsofmeasure.org"/>
               <code value="mg/dL"/>
            </valueQuantity>
            <interpretation>
               <coding>
                  <system value="http://terminology.hl7.org/CodeSystem/v3-ObservationInterpretation"/>
                  <code value="H"/>
                  <display value="High"/>
               </coding>
            </interpretation>
            <specimen>
               <reference value="urn:uuid:299216e6-fef0-4c20-b229-0597aa97808d"/>
            </specimen>
            <referenceRange>
               <low>
                  <value value="0"/>
                  <system value="http://unitsofmeasure.org"/>
                  <code value="mg/dL"/>
               </low>
            </referenceRange>
            <referenceRange>
               <high>
                  <value value="0.8"/>
                  <system value="http://unitsofmeasure.org"/>
                  <code value="mg/dL"/>
               </high>
            </referenceRange>
         </Observation>
      </resource>
   </entry>
   <entry>
      <fullUrl value="urn:uuid:7f1c5cb2-be8b-4594-8d4b-20160b976a92"/>
      <resource>
         <Observation>
            <id value="7f1c5cb2-be8b-4594-8d4b-20160b976a92"/>
            <meta>
               <profile value="http://hl7.eu/fhir/laboratory/StructureDefinition/Observation-resultslab-eu-lab"/>
            </meta>
            <text>
               <status value="generated"/>
               <div xmlns="http://www.w3.org/1999/xhtml">
                  <table class="hl7__eu__lab__report">
                     <tr>
                        <th>Test</th>
                        <th>27-Nov-2021</th>
                        <th>Reference Range</th>
                        <th>Unit</th>
                     </tr>
                     <tr>
                        <td>Ketones [Presence] in Urine by Test strip</td>
                     </tr>
                  </table>
               </div>
            </text>
            <status value="final"/>
            <category>
               <coding>
                  <system value="http://terminology.hl7.org/CodeSystem/observation-category"/>
                  <code value="laboratory"/>
               </coding>
            </category>
            <code>
               <coding>
                  <system value="http://loinc.org"/>
                  <code value="2514-8"/>
                  <display value="Ketones [Presence] in Urine by Test strip"/>
               </coding>
               <text value="Ketones [Presence] in Urine by Test strip"/>
            </code>
            <subject>
               <reference value="urn:uuid:313f35af-8c8e-405d-aae6-cc0eb45d2772"/>
               <display value="Stephen Weinhage"/>
            </subject>
            <effectiveDateTime value="2021-11-27T02:30:19Z"/>
            <performer>
               <display value="The Central European Lab"/>
            </performer>
            <specimen>
               <reference value="urn:uuid:299216e6-fef0-4c20-b229-0597aa97808d"/>
            </specimen>
         </Observation>
      </resource>
   </entry>
   <entry>
      <fullUrl value="urn:uuid:72b07159-bbba-462a-9c40-6f92f3f7d046"/>
      <resource>
         <Observation>
            <id value="72b07159-bbba-462a-9c40-6f92f3f7d046"/>
            <meta>
               <profile value="http://hl7.eu/fhir/laboratory/StructureDefinition/Observation-resultslab-eu-lab"/>
            </meta>
            <text>
               <status value="generated"/>
               <div xmlns="http://www.w3.org/1999/xhtml">
                  <table class="hl7__eu__lab__report">
                     <tr>
                        <th>Test</th>
                        <th>27-Nov-2021</th>
                        <th>Reference Range</th>
                        <th>Unit</th>
                     </tr>
                     <tr>
                        <td>Specific gravity of Urine by Test strip</td>
                        <td>1.0</td>
                        <td>1.005 - 1.03</td>
                        <td>L</td>
                        <td>{nominal}</td>
                     </tr>
                  </table>
               </div>
            </text>
            <status value="final"/>
            <category>
               <coding>
                  <system value="http://terminology.hl7.org/CodeSystem/observation-category"/>
                  <code value="laboratory"/>
               </coding>
            </category>
            <code>
               <coding>
                  <system value="http://loinc.org"/>
                  <code value="5811-5"/>
                  <display value="Specific gravity of Urine by Test strip"/>
               </coding>
               <text value="Specific gravity of Urine by Test strip"/>
            </code>
            <subject>
               <reference value="urn:uuid:313f35af-8c8e-405d-aae6-cc0eb45d2772"/>
               <display value="Stephen Weinhage"/>
            </subject>
            <effectiveDateTime value="2021-11-27T02:30:19Z"/>
            <performer>
               <display value="The Central European Lab"/>
            </performer>
            <valueQuantity>
               <value value="1"/>
               <unit value="{nominal}"/>
               <system value="http://unitsofmeasure.org"/>
               <code value="{nominal}"/>
            </valueQuantity>
            <interpretation>
               <coding>
                  <system value="http://terminology.hl7.org/CodeSystem/v3-ObservationInterpretation"/>
                  <code value="L"/>
                  <display value="Low"/>
               </coding>
            </interpretation>
            <specimen>
               <reference value="urn:uuid:299216e6-fef0-4c20-b229-0597aa97808d"/>
            </specimen>
            <referenceRange>
               <low>
                  <value value="1.005"/>
                  <system value="http://unitsofmeasure.org"/>
                  <code value="g/mL"/>
               </low>
            </referenceRange>
            <referenceRange>
               <high>
                  <value value="1.03"/>
                  <system value="http://unitsofmeasure.org"/>
                  <code value="g/mL"/>
               </high>
            </referenceRange>
         </Observation>
      </resource>
   </entry>
   <entry>
      <fullUrl value="urn:uuid:73007af4-35c3-4d63-9873-0887549dfbbf"/>
      <resource>
         <Observation>
            <id value="73007af4-35c3-4d63-9873-0887549dfbbf"/>
            <meta>
               <profile value="http://hl7.eu/fhir/laboratory/StructureDefinition/Observation-resultslab-eu-lab"/>
            </meta>
            <text>
               <status value="generated"/>
               <div xmlns="http://www.w3.org/1999/xhtml">
                  <table class="hl7__eu__lab__report">
                     <tr>
                        <th>Test</th>
                        <th>27-Nov-2021</th>
                        <th>Reference Range</th>
                        <th>Unit</th>
                     </tr>
                     <tr>
                        <td>pH of Urine by Test strip</td>
                        <td>5.7</td>
                        <td>4.5 - 7.5</td>
                        <td/>
                        <td>pH</td>
                     </tr>
                  </table>
               </div>
            </text>
            <status value="final"/>
            <category>
               <coding>
                  <system value="http://terminology.hl7.org/CodeSystem/observation-category"/>
                  <code value="laboratory"/>
               </coding>
            </category>
            <code>
               <coding>
                  <system value="http://loinc.org"/>
                  <code value="5803-2"/>
                  <display value="pH of Urine by Test strip"/>
               </coding>
               <text value="pH of Urine by Test strip"/>
            </code>
            <subject>
               <reference value="urn:uuid:313f35af-8c8e-405d-aae6-cc0eb45d2772"/>
               <display value="Stephen Weinhage"/>
            </subject>
            <effectiveDateTime value="2021-11-27T02:30:19Z"/>
            <performer>
               <display value="The Central European Lab"/>
            </performer>
            <valueQuantity>
               <value value="5.7"/>
               <unit value="pH"/>
               <system value="http://unitsofmeasure.org"/>
               <code value="pH"/>
            </valueQuantity>
            <specimen>
               <reference value="urn:uuid:299216e6-fef0-4c20-b229-0597aa97808d"/>
            </specimen>
            <referenceRange>
               <low>
                  <value value="4.5"/>
                  <system value="http://unitsofmeasure.org"/>
                  <code value="pH"/>
               </low>
            </referenceRange>
            <referenceRange>
               <high>
                  <value value="7.5"/>
                  <system value="http://unitsofmeasure.org"/>
                  <code value="pH"/>
               </high>
            </referenceRange>
         </Observation>
      </resource>
   </entry>
   <entry>
      <fullUrl value="urn:uuid:adda65e4-265c-4501-81f6-67ff72c18cac"/>
      <resource>
         <Observation>
            <id value="adda65e4-265c-4501-81f6-67ff72c18cac"/>
            <meta>
               <profile value="http://hl7.eu/fhir/laboratory/StructureDefinition/Observation-resultslab-eu-lab"/>
            </meta>
            <text>
               <status value="generated"/>
               <div xmlns="http://www.w3.org/1999/xhtml">
                  <table class="hl7__eu__lab__report">
                     <tr>
                        <th>Test</th>
                        <th>27-Nov-2021</th>
                        <th>Reference Range</th>
                        <th>Unit</th>
                     </tr>
                     <tr>
                        <td>Protein [Mass/volume] in Urine by Test strip</td>
                        <td>7.0</td>
                        <td>14 - 20</td>
                        <td>L</td>
                        <td>mg/dL</td>
                     </tr>
                  </table>
               </div>
            </text>
            <status value="final"/>
            <category>
               <coding>
                  <system value="http://terminology.hl7.org/CodeSystem/observation-category"/>
                  <code value="laboratory"/>
               </coding>
            </category>
            <code>
               <coding>
                  <system value="http://loinc.org"/>
                  <code value="5804-0"/>
                  <display value="Protein [Mass/volume] in Urine by Test strip"/>
               </coding>
               <text value="Protein [Mass/volume] in Urine by Test strip"/>
            </code>
            <subject>
               <reference value="urn:uuid:313f35af-8c8e-405d-aae6-cc0eb45d2772"/>
               <display value="Stephen Weinhage"/>
            </subject>
            <effectiveDateTime value="2021-11-27T02:30:19Z"/>
            <performer>
               <display value="The Central European Lab"/>
            </performer>
            <valueQuantity>
               <value value="7"/>
               <unit value="mg/dL"/>
               <system value="http://unitsofmeasure.org"/>
               <code value="mg/dL"/>
            </valueQuantity>
            <interpretation>
               <coding>
                  <system value="http://terminology.hl7.org/CodeSystem/v3-ObservationInterpretation"/>
                  <code value="L"/>
                  <display value="Low"/>
               </coding>
            </interpretation>
            <specimen>
               <reference value="urn:uuid:299216e6-fef0-4c20-b229-0597aa97808d"/>
            </specimen>
            <referenceRange>
               <low>
                  <value value="14"/>
                  <system value="http://unitsofmeasure.org"/>
                  <code value="mg/dL"/>
               </low>
            </referenceRange>
            <referenceRange>
               <high>
                  <value value="20"/>
                  <system value="http://unitsofmeasure.org"/>
                  <code value="mg/dL"/>
               </high>
            </referenceRange>
         </Observation>
      </resource>
   </entry>
   <entry>
      <fullUrl value="urn:uuid:56ec3435-1ed9-477b-bc6a-0af2cc1985ac"/>
      <resource>
         <Observation>
            <id value="56ec3435-1ed9-477b-bc6a-0af2cc1985ac"/>
            <meta>
               <profile value="http://hl7.eu/fhir/laboratory/StructureDefinition/Observation-resultslab-eu-lab"/>
            </meta>
            <text>
               <status value="generated"/>
               <div xmlns="http://www.w3.org/1999/xhtml">
                  <table class="hl7__eu__lab__report">
                     <tr>
                        <th>Test</th>
                        <th>27-Nov-2021</th>
                        <th>Reference Range</th>
                        <th>Unit</th>
                     </tr>
                     <tr>
                        <td>Nitrite [Presence] in Urine by Test strip</td>
                     </tr>
                  </table>
               </div>
            </text>
            <status value="final"/>
            <category>
               <coding>
                  <system value="http://terminology.hl7.org/CodeSystem/observation-category"/>
                  <code value="laboratory"/>
               </coding>
            </category>
            <code>
               <coding>
                  <system value="http://loinc.org"/>
                  <code value="5802-4"/>
                  <display value="Nitrite [Presence] in Urine by Test strip"/>
               </coding>
               <text value="Nitrite [Presence] in Urine by Test strip"/>
            </code>
            <subject>
               <reference value="urn:uuid:313f35af-8c8e-405d-aae6-cc0eb45d2772"/>
               <display value="Stephen Weinhage"/>
            </subject>
            <effectiveDateTime value="2021-11-27T02:30:19Z"/>
            <performer>
               <display value="The Central European Lab"/>
            </performer>
            <specimen>
               <reference value="urn:uuid:299216e6-fef0-4c20-b229-0597aa97808d"/>
            </specimen>
         </Observation>
      </resource>
   </entry>
   <entry>
      <fullUrl value="urn:uuid:d92ca43c-a750-45d3-bd51-398fcee8ecf1"/>
      <resource>
         <Observation>
            <id value="d92ca43c-a750-45d3-bd51-398fcee8ecf1"/>
            <meta>
               <profile value="http://hl7.eu/fhir/laboratory/StructureDefinition/Observation-resultslab-eu-lab"/>
            </meta>
            <text>
               <status value="generated"/>
               <div xmlns="http://www.w3.org/1999/xhtml">
                  <table class="hl7__eu__lab__report">
                     <tr>
                        <th>Test</th>
                        <th>27-Nov-2021</th>
                        <th>Reference Range</th>
                        <th>Unit</th>
                     </tr>
                     <tr>
                        <td>Hemoglobin [Presence] in Urine by Test strip</td>
                     </tr>
                  </table>
               </div>
            </text>
            <status value="final"/>
            <category>
               <coding>
                  <system value="http://terminology.hl7.org/CodeSystem/observation-category"/>
                  <code value="laboratory"/>
               </coding>
            </category>
            <code>
               <coding>
                  <system value="http://loinc.org"/>
                  <code value="5794-3"/>
                  <display value="Hemoglobin [Presence] in Urine by Test strip"/>
               </coding>
               <text value="Hemoglobin [Presence] in Urine by Test strip"/>
            </code>
            <subject>
               <reference value="urn:uuid:313f35af-8c8e-405d-aae6-cc0eb45d2772"/>
               <display value="Stephen Weinhage"/>
            </subject>
            <effectiveDateTime value="2021-11-27T02:30:19Z"/>
            <performer>
               <display value="The Central European Lab"/>
            </performer>
            <specimen>
               <reference value="urn:uuid:299216e6-fef0-4c20-b229-0597aa97808d"/>
            </specimen>
         </Observation>
      </resource>
   </entry>
   <entry>
      <fullUrl value="urn:uuid:3fbc4446-6b2c-4c20-bc8c-03eeffe3a9ff"/>
      <resource>
         <Observation>
            <id value="3fbc4446-6b2c-4c20-bc8c-03eeffe3a9ff"/>
            <meta>
               <profile value="http://hl7.eu/fhir/laboratory/StructureDefinition/Observation-resultslab-eu-lab"/>
            </meta>
            <text>
               <status value="generated"/>
               <div xmlns="http://www.w3.org/1999/xhtml">
                  <table class="hl7__eu__lab__report">
                     <tr>
                        <th>Test</th>
                        <th>27-Nov-2021</th>
                        <th>Reference Range</th>
                        <th>Unit</th>
                     </tr>
                     <tr>
                        <td>Leukocyte esterase [Presence] in Urine by Test strip</td>
                     </tr>
                  </table>
               </div>
            </text>
            <status value="final"/>
            <category>
               <coding>
                  <system value="http://terminology.hl7.org/CodeSystem/observation-category"/>
                  <code value="laboratory"/>
               </coding>
            </category>
            <code>
               <coding>
                  <system value="http://loinc.org"/>
                  <code value="5799-2"/>
                  <display value="Leukocyte esterase [Presence] in Urine by Test strip"/>
               </coding>
               <text value="Leukocyte esterase [Presence] in Urine by Test strip"/>
            </code>
            <subject>
               <reference value="urn:uuid:313f35af-8c8e-405d-aae6-cc0eb45d2772"/>
               <display value="Stephen Weinhage"/>
            </subject>
            <effectiveDateTime value="2021-11-27T02:30:19Z"/>
            <performer>
               <display value="The Central European Lab"/>
            </performer>
            <specimen>
               <reference value="urn:uuid:299216e6-fef0-4c20-b229-0597aa97808d"/>
            </specimen>
         </Observation>
      </resource>
   </entry>
   <entry>
      <fullUrl value="urn:uuid:e81101e7-6b66-4255-889a-625159c8dc4f"/>
      <resource>
         <Observation>
            <id value="e81101e7-6b66-4255-889a-625159c8dc4f"/>
            <meta>
               <profile value="http://hl7.eu/fhir/laboratory/StructureDefinition/Observation-resultslab-eu-lab"/>
            </meta>
            <text>
               <status value="generated"/>
               <div xmlns="http://www.w3.org/1999/xhtml">
                  <table class="hl7__eu__lab__report">
                     <tr>
                        <th>Test</th>
                        <th>27-Nov-2021</th>
                        <th>Reference Range</th>
                        <th>Unit</th>
                     </tr>
                     <tr>
                        <td>Leukocytes [#/area] in Urine sediment by Microscopy high power field</td>
                        <td>16.5</td>
                        <td>0 - 5</td>
                        <td>H</td>
                        <td>/[HPF]</td>
                     </tr>
                  </table>
               </div>
            </text>
            <status value="final"/>
            <category>
               <coding>
                  <system value="http://terminology.hl7.org/CodeSystem/observation-category"/>
                  <code value="laboratory"/>
               </coding>
            </category>
            <code>
               <coding>
                  <system value="http://loinc.org"/>
                  <code value="5821-4"/>
                  <display value="Leukocytes [#/area] in Urine sediment by Microscopy high power field"/>
               </coding>
               <text value="Leukocytes [#/area] in Urine sediment by Microscopy high power field"/>
            </code>
            <subject>
               <reference value="urn:uuid:313f35af-8c8e-405d-aae6-cc0eb45d2772"/>
               <display value="Stephen Weinhage"/>
            </subject>
            <effectiveDateTime value="2021-11-27T02:30:19Z"/>
            <performer>
               <display value="The Central European Lab"/>
            </performer>
            <valueQuantity>
               <value value="16.5"/>
               <unit value="/[HPF]"/>
               <system value="http://unitsofmeasure.org"/>
               <code value="/[HPF]"/>
            </valueQuantity>
            <interpretation>
               <coding>
                  <system value="http://terminology.hl7.org/CodeSystem/v3-ObservationInterpretation"/>
                  <code value="H"/>
                  <display value="High"/>
               </coding>
            </interpretation>
            <specimen>
               <reference value="urn:uuid:8833a457-dab6-4567-88fc-0531820781f5"/>
            </specimen>
            <referenceRange>
               <low>
                  <value value="0"/>
                  <system value="http://unitsofmeasure.org"/>
                  <code value="#/area"/>
               </low>
            </referenceRange>
            <referenceRange>
               <high>
                  <value value="5"/>
                  <system value="http://unitsofmeasure.org"/>
                  <code value="#/area"/>
               </high>
            </referenceRange>
         </Observation>
      </resource>
   </entry>
   <entry>
      <fullUrl value="urn:uuid:4a8f36c3-9c93-4f67-aa6c-fdafe192bf6d"/>
      <resource>
         <Observation>
            <id value="4a8f36c3-9c93-4f67-aa6c-fdafe192bf6d"/>
            <meta>
               <profile value="http://hl7.eu/fhir/laboratory/StructureDefinition/Observation-resultslab-eu-lab"/>
            </meta>
            <text>
               <status value="generated"/>
               <div xmlns="http://www.w3.org/1999/xhtml">
                  <table class="hl7__eu__lab__report">
                     <tr>
                        <th>Test</th>
                        <th>27-Nov-2021</th>
                        <th>Reference Range</th>
                        <th>Unit</th>
                     </tr>
                     <tr>
                        <td>Erythrocytes [#/area] in Urine sediment by Microscopy high power field</td>
                        <td>1.9</td>
                        <td>0 - 5</td>
                        <td/>
                        <td>/[HPF]</td>
                     </tr>
                  </table>
               </div>
            </text>
            <status value="final"/>
            <category>
               <coding>
                  <system value="http://terminology.hl7.org/CodeSystem/observation-category"/>
                  <code value="laboratory"/>
               </coding>
            </category>
            <code>
               <coding>
                  <system value="http://loinc.org"/>
                  <code value="13945-1"/>
                  <display value="Erythrocytes [#/area] in Urine sediment by Microscopy high power field"/>
               </coding>
               <text value="Erythrocytes [#/area] in Urine sediment by Microscopy high power field"/>
            </code>
            <subject>
               <reference value="urn:uuid:313f35af-8c8e-405d-aae6-cc0eb45d2772"/>
               <display value="Stephen Weinhage"/>
            </subject>
            <effectiveDateTime value="2021-11-27T02:30:19Z"/>
            <performer>
               <display value="The Central European Lab"/>
            </performer>
            <valueQuantity>
               <value value="1.9"/>
               <unit value="/[HPF]"/>
               <system value="http://unitsofmeasure.org"/>
               <code value="/[HPF]"/>
            </valueQuantity>
            <specimen>
               <reference value="urn:uuid:8833a457-dab6-4567-88fc-0531820781f5"/>
            </specimen>
            <referenceRange>
               <low>
                  <value value="0"/>
                  <system value="http://unitsofmeasure.org"/>
                  <code value="[#/area]"/>
               </low>
            </referenceRange>
            <referenceRange>
               <high>
                  <value value="5"/>
                  <system value="http://unitsofmeasure.org"/>
                  <code value="[#/area]"/>
               </high>
            </referenceRange>
         </Observation>
      </resource>
   </entry>
   <entry>
      <fullUrl value="urn:uuid:934e9586-9265-4382-adbd-c765f64d76bd"/>
      <resource>
         <Observation>
            <id value="934e9586-9265-4382-adbd-c765f64d76bd"/>
            <meta>
               <profile value="http://hl7.eu/fhir/laboratory/StructureDefinition/Observation-resultslab-eu-lab"/>
            </meta>
            <text>
               <status value="generated"/>
               <div xmlns="http://www.w3.org/1999/xhtml">
                  <table class="hl7__eu__lab__report">
                     <tr>
                        <th>Test</th>
                        <th>27-Nov-2021</th>
                        <th>Reference Range</th>
                        <th>Unit</th>
                     </tr>
                     <tr>
                        <td>Epithelial cells [#/area] in Urine sediment by Microscopy high power field</td>
                        <td>1.0</td>
                        <td>0 - 5</td>
                        <td/>
                        <td>/[HPF]</td>
                     </tr>
                  </table>
               </div>
            </text>
            <status value="final"/>
            <category>
               <coding>
                  <system value="http://terminology.hl7.org/CodeSystem/observation-category"/>
                  <code value="laboratory"/>
               </coding>
            </category>
            <code>
               <coding>
                  <system value="http://loinc.org"/>
                  <code value="5787-7"/>
                  <display value="Epithelial cells [#/area] in Urine sediment by Microscopy high power field"/>
               </coding>
               <text value="Epithelial cells [#/area] in Urine sediment by Microscopy high power field"/>
            </code>
            <subject>
               <reference value="urn:uuid:313f35af-8c8e-405d-aae6-cc0eb45d2772"/>
               <display value="Stephen Weinhage"/>
            </subject>
            <effectiveDateTime value="2021-11-27T02:30:19Z"/>
            <performer>
               <display value="The Central European Lab"/>
            </performer>
            <valueQuantity>
               <value value="1"/>
               <unit value="/[HPF]"/>
               <system value="http://unitsofmeasure.org"/>
               <code value="/[HPF]"/>
            </valueQuantity>
            <specimen>
               <reference value="urn:uuid:8833a457-dab6-4567-88fc-0531820781f5"/>
            </specimen>
            <referenceRange>
               <low>
                  <value value="0"/>
                  <system value="http://unitsofmeasure.org"/>
                  <code value="#/area"/>
               </low>
            </referenceRange>
            <referenceRange>
               <high>
                  <value value="5"/>
                  <system value="http://unitsofmeasure.org"/>
                  <code value="#/area"/>
               </high>
            </referenceRange>
         </Observation>
      </resource>
   </entry>
   <entry>
      <fullUrl value="urn:uuid:645c5413-6c88-4272-8210-f762522b6823"/>
      <resource>
         <Observation>
            <id value="645c5413-6c88-4272-8210-f762522b6823"/>
            <meta>
               <profile value="http://hl7.eu/fhir/laboratory/StructureDefinition/Observation-resultslab-eu-lab"/>
            </meta>
            <text>
               <status value="generated"/>
               <div xmlns="http://www.w3.org/1999/xhtml">
                  <table class="hl7__eu__lab__report">
                     <tr>
                        <th>Test</th>
                        <th>27-Nov-2021</th>
                        <th>Reference Range</th>
                        <th>Unit</th>
                     </tr>
                     <tr>
                        <td>Casts [Presence] in Urine sediment by Light microscopy</td>
                     </tr>
                  </table>
               </div>
            </text>
            <status value="final"/>
            <category>
               <coding>
                  <system value="http://terminology.hl7.org/CodeSystem/observation-category"/>
                  <code value="laboratory"/>
               </coding>
            </category>
            <code>
               <coding>
                  <system value="http://loinc.org"/>
                  <code value="24124-0"/>
                  <display value="Casts [Presence] in Urine sediment by Light microscopy"/>
               </coding>
               <text value="Casts [Presence] in Urine sediment by Light microscopy"/>
            </code>
            <subject>
               <reference value="urn:uuid:313f35af-8c8e-405d-aae6-cc0eb45d2772"/>
               <display value="Stephen Weinhage"/>
            </subject>
            <effectiveDateTime value="2021-11-27T02:30:19Z"/>
            <performer>
               <display value="The Central European Lab"/>
            </performer>
            <specimen>
               <reference value="urn:uuid:8833a457-dab6-4567-88fc-0531820781f5"/>
            </specimen>
         </Observation>
      </resource>
   </entry>
   <entry>
      <fullUrl value="urn:uuid:6af7b5be-f9fd-441e-93ae-9d98f7d3e28e"/>
      <resource>
         <Observation>
            <id value="6af7b5be-f9fd-441e-93ae-9d98f7d3e28e"/>
            <meta>
               <profile value="http://hl7.eu/fhir/laboratory/StructureDefinition/Observation-resultslab-eu-lab"/>
            </meta>
            <text>
               <status value="generated"/>
               <div xmlns="http://www.w3.org/1999/xhtml">
                  <table class="hl7__eu__lab__report">
                     <tr>
                        <th>Test</th>
                        <th>27-Nov-2021</th>
                        <th>Reference Range</th>
                        <th>Unit</th>
                     </tr>
                     <tr>
                        <td>Mucus [Presence] in Urine sediment by Light microscopy</td>
                     </tr>
                  </table>
               </div>
            </text>
            <status value="final"/>
            <category>
               <coding>
                  <system value="http://terminology.hl7.org/CodeSystem/observation-category"/>
                  <code value="laboratory"/>
               </coding>
            </category>
            <code>
               <coding>
                  <system value="http://loinc.org"/>
                  <code value="8247-9"/>
                  <display value="Mucus [Presence] in Urine sediment by Light microscopy"/>
               </coding>
               <text value="Mucus [Presence] in Urine sediment by Light microscopy"/>
            </code>
            <subject>
               <reference value="urn:uuid:313f35af-8c8e-405d-aae6-cc0eb45d2772"/>
               <display value="Stephen Weinhage"/>
            </subject>
            <effectiveDateTime value="2021-11-27T02:30:19Z"/>
            <performer>
               <display value="The Central European Lab"/>
            </performer>
            <specimen>
               <reference value="urn:uuid:8833a457-dab6-4567-88fc-0531820781f5"/>
            </specimen>
         </Observation>
      </resource>
   </entry>
   <entry>
      <fullUrl value="urn:uuid:b856eb57-3cb5-4f90-b788-b7f0551347d9"/>
      <resource>
         <Observation>
            <id value="b856eb57-3cb5-4f90-b788-b7f0551347d9"/>
            <meta>
               <profile value="http://hl7.eu/fhir/laboratory/StructureDefinition/Observation-resultslab-eu-lab"/>
            </meta>
            <text>
               <status value="generated"/>
               <div xmlns="http://www.w3.org/1999/xhtml">
                  <table class="hl7__eu__lab__report">
                     <tr>
                        <th>Test</th>
                        <th>27-Nov-2021</th>
                        <th>Reference Range</th>
                        <th>Unit</th>
                     </tr>
                     <tr>
                        <td>Bacteria [#/area] in Urine sediment by Microscopy high power field</td>
                     </tr>
                  </table>
               </div>
            </text>
            <status value="final"/>
            <category>
               <coding>
                  <system value="http://terminology.hl7.org/CodeSystem/observation-category"/>
                  <code value="laboratory"/>
               </coding>
            </category>
            <code>
               <coding>
                  <system value="http://loinc.org"/>
                  <code value="5769-5"/>
                  <display value="Bacteria [#/area] in Urine sediment by Microscopy high power field"/>
               </coding>
               <text value="Bacteria [#/area] in Urine sediment by Microscopy high power field"/>
            </code>
            <subject>
               <reference value="urn:uuid:313f35af-8c8e-405d-aae6-cc0eb45d2772"/>
               <display value="Stephen Weinhage"/>
            </subject>
            <effectiveDateTime value="2021-11-27T02:30:19Z"/>
            <performer>
               <display value="The Central European Lab"/>
            </performer>
            <specimen>
               <reference value="urn:uuid:8833a457-dab6-4567-88fc-0531820781f5"/>
            </specimen>
         </Observation>
      </resource>
   </entry>
   <entry>
      <fullUrl value="urn:uuid:be61f20f-813c-447c-9b71-8638365e291e"/>
      <resource>
         <Observation>
            <id value="be61f20f-813c-447c-9b71-8638365e291e"/>
            <meta>
               <profile value="http://hl7.eu/fhir/laboratory/StructureDefinition/Observation-resultslab-eu-lab"/>
            </meta>
            <text>
               <status value="generated"/>
               <div xmlns="http://www.w3.org/1999/xhtml">
                  <table class="hl7__eu__lab__report">
                     <tr>
                        <th>Test</th>
                        <th>27-Nov-2021</th>
                        <th>Reference Range</th>
                        <th>Unit</th>
                     </tr>
                     <tr>
                        <td>Bacteria identified in Urine by Culture</td>
                     </tr>
                  </table>
               </div>
            </text>
            <status value="final"/>
            <category>
               <coding>
                  <system value="http://terminology.hl7.org/CodeSystem/observation-category"/>
                  <code value="laboratory"/>
               </coding>
            </category>
            <code>
               <coding>
                  <system value="http://loinc.org"/>
                  <code value="630-4"/>
                  <display value="Bacteria identified in Urine by Culture"/>
               </coding>
               <text value="Bacteria identified in Urine by Culture"/>
            </code>
            <subject>
               <reference value="urn:uuid:313f35af-8c8e-405d-aae6-cc0eb45d2772"/>
               <display value="Stephen Weinhage"/>
            </subject>
            <effectiveDateTime value="2021-11-27T02:30:19Z"/>
            <performer>
               <display value="The Central European Lab"/>
            </performer>
            <specimen>
               <reference value="urn:uuid:299216e6-fef0-4c20-b229-0597aa97808d"/>
            </specimen>
         </Observation>
      </resource>
   </entry>
   <entry>
      <fullUrl value="urn:uuid:3ff2cc10-edfb-4c95-835e-86fc2d84c352"/>
      <resource>
         <Device>
            <id value="3ff2cc10-edfb-4c95-835e-86fc2d84c352"/>
            <text>
               <status value="generated"/>
               <div xmlns="http://www.w3.org/1999/xhtml">SYNDERAI Synthetic Generator v5.0</div>
            </text>
            <status value="active&#34;"/>
            <distinctIdentifier value="synderai-generator-50"/>
            <manufacturer value="SYNDERAI Project"/>
            <deviceName>
               <name value="SYNDERAI Synthetic Generator"/>
               <type value="manufacturer-name"/>
            </deviceName>
            <version>
               <value value="5.0"/>
            </version>
         </Device>
      </resource>
   </entry>
   <entry>
      <fullUrl value="urn:uuid:ece4296c-e210-4279-957e-7361e2a6a45a"/>
      <resource>
         <Provenance>
            <id value="ece4296c-e210-4279-957e-7361e2a6a45a"/>
            <text>
               <status value="generated"/>
               <div xmlns="http://www.w3.org/1999/xhtml">Provenance for SYNDERAI Synthetic Example Data Resource</div>
            </text>
            <target>
               <reference value="Patient/313f35af-8c8e-405d-aae6-cc0eb45d2772"/>
            </target>
            <target>
               <reference value="Bundle/db15eae2-db28-484d-9319-1f6f78925071"/>
            </target>
            <target>
               <reference value="Composition/78ec1fd6-4ef7-4458-8d33-1d88737e211a"/>
            </target>
            <target>
               <reference value="PractitionerRole/16f3b7ce-c763-421b-b668-6e687ccfbb9d"/>
            </target>
            <target>
               <reference value="Practitioner/a75d184e-0fed-4991-95fd-402f1e9e46ea"/>
            </target>
            <target>
               <reference value="PractitionerRole/8e27dd14-bfab-4cc5-93a5-580a494ac504"/>
            </target>
            <target>
               <reference value="Organization/90b4112c-373e-43b0-9e35-662475ff3f02"/>
            </target>
            <recorded value="2021-11-27T03:30:19Z"/>
            <policy value="https://synderai.net/synderai-synthetic-data-policy"/>
            <reason>
               <text value="Interoperability Testing and Training (non-clinical use)"/>
            </reason>
            <activity>
               <text value="Synthetic Example Data Generation"/>
            </activity>
            <agent>
               <type>
                  <text value="author"/>
               </type>
               <who>
                  <reference value="Device/3ff2cc10-edfb-4c95-835e-86fc2d84c352"/>
               </who>
            </agent>
         </Provenance>
      </resource>
   </entry>
   <entry>
      <fullUrl value="urn:uuid:16f3b7ce-c763-421b-b668-6e687ccfbb9d"/>
      <resource>
         <PractitionerRole>
            <id value="16f3b7ce-c763-421b-b668-6e687ccfbb9d"/>
            <meta>
               <profile value="http://hl7.eu/fhir/base/StructureDefinition/practitionerRole-eu"/>
            </meta>
            <text>
               <status value="generated"/>
               <div xmlns="http://www.w3.org/1999/xhtml">Laboratory Role Id: 16f3b7ce-c763-421b-b668-6e687ccfbb9d</div>
            </text>
            <practitioner>
               <reference value="urn:uuid:a75d184e-0fed-4991-95fd-402f1e9e46ea"/>
            </practitioner>
         </PractitionerRole>
      </resource>
   </entry>
   <entry>
      <fullUrl value="urn:uuid:a75d184e-0fed-4991-95fd-402f1e9e46ea"/>
      <resource>
         <Practitioner>
            <id value="a75d184e-0fed-4991-95fd-402f1e9e46ea"/>
            <meta>
               <profile value="http://hl7.eu/fhir/base/StructureDefinition/practitioner-eu"/>
            </meta>
            <text>
               <status value="generated"/>
               <div xmlns="http://www.w3.org/1999/xhtml">Laboratory: Laboratoire Central Européenne, 1000 Brussels, Belgium</div>
            </text>
            <identifier>
               <system value="urn:oid:2.16.840.1.113883.2.51.999"/>
               <value value="f60dfdb4-ac33-4703-922c-81aafc773f1f"/>
               <assigner>
                  <display value="HL7 Europe"/>
               </assigner>
            </identifier>
            <name>
               <family value="Ample"/>
               <given value="Ex"/>
               <prefix value="dr"/>
            </name>
            <address>
               <line value="Laboratoire Central Européenne"/>
               <line value="Boulevard du Jardin Botanique 32"/>
               <city value="Brussels"/>
               <postalCode value="1000"/>
               <country value="Belgium"/>
            </address>
         </Practitioner>
      </resource>
   </entry>
</Bundle>