{
  "resourceType": "Bundle",
  "id": "335570af-266b-40cd-8dde-173230cc41cb",
  "meta": {
    "profile": [
      "http://hl7.eu/fhir/laboratory/StructureDefinition/Bundle-eu-lab"
    ]
  },
  "identifier": {
    "assigner": {
      "display": "HL7 Europe"
    },
    "system": "urn:oid:2.16.840.1.113883.2.51.999",
    "value": "aea97ac4-98ef-4f41-95c2-3127c05e8cc9"
  },
  "entry": [
    {
      "fullUrl": "urn:uuid:a037d5f3-731f-4b11-a9f5-c1ee7a33147e",
      "resource": {
        "resourceType": "Composition",
        "id": "a037d5f3-731f-4b11-a9f5-c1ee7a33147e",
        "meta": {
          "profile": [
            "http://hl7.eu/fhir/laboratory/StructureDefinition/Composition-eu-lab"
          ]
        },
        "identifier": {
          "assigner": {
            "display": "HL7 Europe"
          },
          "system": "urn:oid:2.16.840.1.113883.2.51.999",
          "value": "12373d90-0131-4f6c-b54a-b6bf14044415"
        },
        "author": [
          {
            "reference": "urn:uuid:89cd3d04-2df2-4dea-9255-11f418e1b3b2"
          }
        ],
        "category": [
          {
            "coding": [
              {
                "code": "26436-6",
                "system": "http://loinc.org",
                "display": "Laboratory studies (set)"
              }
            ]
          }
        ],
        "type": {
          "coding": [
            {
              "code": "11502-2",
              "system": "http://loinc.org",
              "display": "Laboratory report"
            }
          ],
          "text": "Laboratory Report"
        },
        "section": [
          {
            "code": {
              "coding": [
                {
                  "code": "26436-6",
                  "system": "http://loinc.org",
                  "display": "Laboratory studies (set)"
                }
              ],
              "text": "Laboratory studies"
            },
            "section": [
              {
                "code": {
                  "coding": [
                    {
                      "code": "$18719-5",
                      "system": "http://loinc.org",
                      "display": "Chemistry studies (set)"
                    }
                  ],
                  "text": "Chemistry"
                },
                "entry": [
                  {
                    "reference": "urn:uuid:3805e798-dd03-4362-809b-2ac0e2dec5b8"
                  },
                  {
                    "reference": "urn:uuid:1fcffe2a-19f5-4c88-9b43-05e0d4945036"
                  },
                  {
                    "reference": "urn:uuid:0c3ba8ec-1fcd-49b0-9d09-d9192014a6dd"
                  },
                  {
                    "reference": "urn:uuid:246423cc-3639-4d6b-995f-7ec1cfbced5b"
                  },
                  {
                    "reference": "urn:uuid:9dd87e71-6223-420b-9131-c485dc682078"
                  },
                  {
                    "reference": "urn:uuid:f64acb46-fb1f-4480-97cd-809d3263140f"
                  },
                  {
                    "reference": "urn:uuid:416aceb1-20b4-45e2-9a17-7f3515fdd267"
                  },
                  {
                    "reference": "urn:uuid:ec4c5ac7-bacb-44b2-bf3e-6b2e5fbe8007"
                  },
                  {
                    "reference": "urn:uuid:19e2be55-28ed-4567-b9c6-786db280ae1a"
                  }
                ],
                "text": {
                  "status": "generated",
                  "div": "<div xmlns=\"http://www.w3.org/1999/xhtml\"><h3>Chemistry</h3><table class=\"hl7__eu__lab__report\"><thead><tr><th>Test</th><th>18-JUL-2024</th><th>Reference&#xA0;Range</th><th>Unit</th></tr></thead><tbody><tr><td>Hemoglobin A1c/Hemoglobin.total in Blood</td><td>5.8</td><td>4.5 - 6.4</td><td>%</td></tr><tr><td>Glucose [Mass/volume] in Blood</td><td>81.5</td><td>70 - 99</td><td>mg/dL</td></tr><tr><td>Urea nitrogen [Mass/volume] in Blood</td><td>10.6</td><td>7 - 20</td><td>mg/dL</td></tr><tr><td>Creatinine [Mass/volume] in Blood</td><td>1.0</td><td>0.7 - 1.3</td><td>mg/dL</td></tr><tr><td>Calcium [Mass/volume] in Blood</td><td>8.9</td><td>8.5 - 10.5</td><td>mg/dL</td></tr><tr><td>Sodium [Moles/volume] in Blood</td><td>136.2</td><td>135 - 145</td><td>mmol/L</td></tr><tr><td>Potassium [Moles/volume] in Blood</td><td>4.7</td><td>3.5 - 5.3</td><td>mmol/L</td></tr><tr><td>Chloride [Moles/volume] in Blood</td><td>103.7</td><td>98 - 110</td><td>mmol/L</td></tr><tr><td>Carbon dioxide, total [Moles/volume] in Blood</td><td>28.9</td><td>22 - 29</td><td>mmol/L</td></tr></tbody></table></div>"
                },
                "title": "Chemistry"
              }
            ],
            "title": "Laboratory Report"
          },
          {
            "text": {
              "status": "generated",
              "div": "<div xmlns=\"http://www.w3.org/1999/xhtml\"><h3>Annotation</h3><table class=\"hl7__eu__lab__report\"><tr><th>Conclusion and Recommendations based on this report and previous findings known to us</th></tr><tr><td>All measured parameters, including glucose, HbA1c, renal function, electrolytes, and calcium, are within normal limits. There is no laboratory evidence of diabetes, renal dysfunction, or electrolyte imbalance at this time. No acute or chronic metabolic disturbances are apparent from these results.</td></tr></table></div>"
            },
            "code": {
              "coding": [
                {
                  "system": "http://loinc.org",
                  "code": "48767-8",
                  "display": "Annotation comment"
                }
              ]
            },
            "title": "Annotation comment"
          }
        ],
        "status": "final",
        "subject": {
          "reference": "urn:uuid:ebee9855-8aaa-4762-b5b3-a08bdc779028",
          "display": "Alfred Rémy"
        },
        "date": "2024-07-18T08:54:36Z",
        "title": "Laboratory Report",
        "confidentiality": "N"
      }
    },
    {
      "fullUrl": "urn:uuid:893ecb23-59ce-4662-aac2-283d5372a8ff",
      "resource": {
        "resourceType": "DiagnosticReport",
        "id": "893ecb23-59ce-4662-aac2-283d5372a8ff",
        "meta": {
          "profile": [
            "http://hl7.eu/fhir/laboratory/StructureDefinition/DiagnosticReport-eu-lab"
          ]
        },
        "identifier": [
          {
            "assigner": {
              "display": "HL7 Europe"
            },
            "system": "urn:oid:2.16.840.1.113883.2.51.999",
            "value": "3b447538-f928-4b71-8009-f9ba26b708ff"
          }
        ],
        "extension": [
          {
            "url": "http://hl7.org/fhir/5.0/StructureDefinition/extension-DiagnosticReport.composition",
            "valueReference": {
              "reference": "urn:uuid:12373d90-0131-4f6c-b54a-b6bf14044415"
            }
          }
        ],
        "category": [
          {
            "coding": [
              {
                "code": "26436-6",
                "system": "http://loinc.org",
                "display": "Laboratory studies (set)"
              }
            ]
          }
        ],
        "specimen": [
          {
            "reference": "urn:uuid:58a04d85-6ad0-47aa-8190-12bde146d837"
          }
        ],
        "result": [
          {
            "reference": "urn:uuid:3805e798-dd03-4362-809b-2ac0e2dec5b8"
          },
          {
            "reference": "urn:uuid:1fcffe2a-19f5-4c88-9b43-05e0d4945036"
          },
          {
            "reference": "urn:uuid:0c3ba8ec-1fcd-49b0-9d09-d9192014a6dd"
          },
          {
            "reference": "urn:uuid:246423cc-3639-4d6b-995f-7ec1cfbced5b"
          },
          {
            "reference": "urn:uuid:9dd87e71-6223-420b-9131-c485dc682078"
          },
          {
            "reference": "urn:uuid:f64acb46-fb1f-4480-97cd-809d3263140f"
          },
          {
            "reference": "urn:uuid:416aceb1-20b4-45e2-9a17-7f3515fdd267"
          },
          {
            "reference": "urn:uuid:ec4c5ac7-bacb-44b2-bf3e-6b2e5fbe8007"
          },
          {
            "reference": "urn:uuid:19e2be55-28ed-4567-b9c6-786db280ae1a"
          }
        ],
        "status": "registered",
        "code": {
          "coding": [
            {
              "code": "11502-2",
              "system": "http://loinc.org",
              "display": "Laboratory report"
            }
          ]
        },
        "subject": {
          "reference": "urn:uuid:ebee9855-8aaa-4762-b5b3-a08bdc779028",
          "display": "Alfred Rémy"
        }
      }
    },
    {
      "fullUrl": "urn:uuid:ebee9855-8aaa-4762-b5b3-a08bdc779028",
      "resource": {
        "resourceType": "Patient",
        "id": "ebee9855-8aaa-4762-b5b3-a08bdc779028",
        "meta": {
          "security": [
            {
              "system": "http://terminology.hl7.org/CodeSystem/v3-ActReason",
              "code": "HTEST"
            },
            {
              "system": "http://terminology.hl7.org/CodeSystem/v3-ActReason",
              "code": "TRAIN"
            }
          ],
          "tag": [
            {
              "system": "https://synderai.net/fhir/CodeSystem/tags",
              "code": "synthetic",
              "display": "SYNDERAI Synthetic data"
            }
          ],
          "profile": [
            "http://hl7.eu/fhir/base/StructureDefinition/patient-eu-core"
          ]
        },
        "identifier": [
          {
            "type": {
              "coding": [
                {
                  "code": "PT",
                  "system": "http://terminology.hl7.org/CodeSystem/v2-0203"
                }
              ]
            },
            "system": "http://ec.europa.eu/identifier/eci",
            "value": "9962-084919-2"
          },
          {
            "type": {
              "coding": [
                {
                  "code": "MR",
                  "system": "http://terminology.hl7.org/CodeSystem/v2-0203"
                }
              ]
            },
            "system": "http://local.setting.eu/identifier",
            "value": "cc3b7d7f-bed4-5811-99b9-3468e2f4203c"
          }
        ],
        "name": [
          {
            "family": "Rémy"
          },
          {
            "given": [
              "Alfred"
            ]
          },
          {
            "text": "Alfred Rémy"
          }
        ],
        "address": [
          {
            "line": [
              "88, rue de Jacquot"
            ],
            "use": "home",
            "type": "physical",
            "postalCode": "75018",
            "city": "Paris",
            "country": "France"
          }
        ],
        "telecom": [
          {
            "system": "phone",
            "value": "+33 (0)4 73 74 17 67"
          }
        ],
        "extension": [
          {
            "url": "http://hl7.org/fhir/StructureDefinition/patient-nationality",
            "valueCodeableConcept": {
              "coding": [
                {
                  "code": "FR",
                  "system": "http://hl7.org/fhir/ValueSet/country"
                }
              ]
            }
          }
        ],
        "text": {
          "status": "generated",
          "div": "<div xmlns=\"http://www.w3.org/1999/xhtml\"><table class=\"hl7__ips\"><tr><td>Alfred Rémy</td><td>male</td><td>05-Jul-1967</td></tr></table></div>"
        },
        "gender": "male",
        "birthDate": "1967-07-05"
      }
    },
    {
      "fullUrl": "urn:uuid:08c1968f-6497-45f0-a0e0-a14b367bbae7",
      "resource": {
        "resourceType": "ServiceRequest",
        "id": "08c1968f-6497-45f0-a0e0-a14b367bbae7",
        "meta": {
          "profile": [
            "http://hl7.eu/fhir/laboratory/StructureDefinition/ServiceRequest-eu-lab"
          ]
        },
        "identifier": [
          {
            "system": "http://example.org",
            "value": "3d09cadc-3314-457f-bf7f-fca914c9a164"
          }
        ],
        "specimen": [
          {
            "reference": "urn:uuid:58a04d85-6ad0-47aa-8190-12bde146d837"
          }
        ],
        "reasonCode": [
          {
            "coding": [
              {
                "code": "271737000",
                "system": "http://snomed.info/sct",
                "display": "Anemia"
              }
            ]
          },
          {
            "coding": [
              {
                "code": "15777000",
                "system": "http://snomed.info/sct",
                "display": "Prediabetes"
              }
            ]
          }
        ],
        "status": "active",
        "intent": "order",
        "code": {
          "coding": [
            {
              "code": "108252007",
              "system": "http://snomed.info/sct",
              "display": "Laboratory procedure"
            }
          ]
        },
        "subject": {
          "reference": "urn:uuid:ebee9855-8aaa-4762-b5b3-a08bdc779028",
          "display": "Alfred Rémy"
        },
        "requester": {
          "reference": "urn:uuid:70c965ab-1673-405b-9d14-7162fa5acce8"
        }
      }
    },
    {
      "fullUrl": "urn:uuid:70c965ab-1673-405b-9d14-7162fa5acce8",
      "resource": {
        "resourceType": "PractitionerRole",
        "id": "70c965ab-1673-405b-9d14-7162fa5acce8",
        "meta": {
          "profile": [
            "http://hl7.eu/fhir/base/StructureDefinition/practitionerRole-eu"
          ]
        },
        "text": {
          "status": "generated",
          "div": "<div xmlns=\"http://www.w3.org/1999/xhtml\">Provider Role Id: 70c965ab-1673-405b-9d14-7162fa5acce8</div>"
        },
        "organization": {
          "reference": "urn:uuid:869a0687-e8d5-4423-8fb7-96e6f74a9a49"
        }
      }
    },
    {
      "fullUrl": "urn:uuid:869a0687-e8d5-4423-8fb7-96e6f74a9a49",
      "resource": {
        "resourceType": "Organization",
        "id": "869a0687-e8d5-4423-8fb7-96e6f74a9a49",
        "meta": {
          "profile": [
            "http://hl7.eu/fhir/base/StructureDefinition/organization-eu"
          ]
        },
        "identifier": [
          {
            "assigner": {
              "display": "HL7 Europe"
            },
            "system": "urn:oid:2.16.840.1.113883.2.51.999",
            "value": "c03df29d-ebea-44db-8447-77da07b2f3cc"
          }
        ],
        "address": [
          {
            "city": "Paris",
            "postalCode": "75005",
            "country": "France"
          }
        ],
        "text": {
          "status": "generated",
          "div": "<div xmlns=\"http://www.w3.org/1999/xhtml\">Provider Organization: Maison des parents Irène Joliot-Curie</div>"
        },
        "name": "Maison des parents Irène Joliot-Curie"
      }
    },
    {
      "fullUrl": "urn:uuid:58a04d85-6ad0-47aa-8190-12bde146d837",
      "resource": {
        "resourceType": "Specimen",
        "id": "58a04d85-6ad0-47aa-8190-12bde146d837",
        "meta": {
          "profile": [
            "http://hl7.eu/fhir/laboratory/StructureDefinition/Specimen-eu-lab"
          ]
        },
        "collection": {
          "collectedDateTime": "2024-07-18"
        },
        "text": {
          "status": "generated",
          "div": "<div xmlns=\"http://www.w3.org/1999/xhtml\"><table class=\"hl7__eu__lab__report\"><tr><th>Specimen</th><th>Collection Date</th></tr><tr><td>Whole blood specimen (specimen)</td><td><span class=\"nb\">18-Jul-2024</span></td></tr></table></div>"
        },
        "type": {
          "coding": [
            {
              "code": "258580003",
              "system": "http://snomed.info/sct",
              "display": "Whole blood specimen (specimen)"
            }
          ]
        }
      }
    },
    {
      "fullUrl": "urn:uuid:3805e798-dd03-4362-809b-2ac0e2dec5b8",
      "resource": {
        "resourceType": "Observation",
        "id": "3805e798-dd03-4362-809b-2ac0e2dec5b8",
        "meta": {
          "profile": [
            "http://hl7.eu/fhir/laboratory/StructureDefinition/Observation-resultslab-eu-lab"
          ]
        },
        "performer": [
          {
            "display": "The Central European Lab"
          }
        ],
        "category": [
          {
            "coding": [
              {
                "system": "http://terminology.hl7.org/CodeSystem/observation-category",
                "code": "laboratory"
              }
            ]
          }
        ],
        "code": {
          "coding": [
            {
              "code": "4548-4",
              "system": "http://loinc.org",
              "display": "Hemoglobin A1c/Hemoglobin.total in Blood"
            }
          ],
          "text": "Hemoglobin A1c/Hemoglobin.total in Blood"
        },
        "valueQuantity": {
          "system": "http://unitsofmeasure.org",
          "value": 5.8,
          "unit": "%",
          "code": "%"
        },
        "referenceRange": [
          {
            "low": {
              "value": 4.5,
              "code": "%",
              "system": "http://unitsofmeasure.org"
            }
          },
          {
            "high": {
              "value": 6.4,
              "code": "%",
              "system": "http://unitsofmeasure.org"
            }
          }
        ],
        "text": {
          "status": "generated",
          "div": "<div xmlns=\"http://www.w3.org/1999/xhtml\"><table class=\"hl7__eu__lab__report\"><tr><th>Test</th><th>18-Jul-2024</th><th>Reference&#xA0;Range</th><th>Unit</th></tr><tr><td>Hemoglobin A1c/Hemoglobin.total in Blood</td><td>5.8</td><td>4.5 - 6.4</td><td></td><td>%</td></tr></table></div>"
        },
        "status": "final",
        "subject": {
          "reference": "urn:uuid:ebee9855-8aaa-4762-b5b3-a08bdc779028",
          "display": "Alfred Rémy"
        },
        "effectiveDateTime": "2024-07-18T06:54:36Z",
        "specimen": {
          "reference": "urn:uuid:58a04d85-6ad0-47aa-8190-12bde146d837"
        }
      }
    },
    {
      "fullUrl": "urn:uuid:1fcffe2a-19f5-4c88-9b43-05e0d4945036",
      "resource": {
        "resourceType": "Observation",
        "id": "1fcffe2a-19f5-4c88-9b43-05e0d4945036",
        "meta": {
          "profile": [
            "http://hl7.eu/fhir/laboratory/StructureDefinition/Observation-resultslab-eu-lab"
          ]
        },
        "performer": [
          {
            "display": "The Central European Lab"
          }
        ],
        "category": [
          {
            "coding": [
              {
                "system": "http://terminology.hl7.org/CodeSystem/observation-category",
                "code": "laboratory"
              }
            ]
          }
        ],
        "code": {
          "coding": [
            {
              "code": "2339-0",
              "system": "http://loinc.org",
              "display": "Glucose [Mass/volume] in Blood"
            }
          ],
          "text": "Glucose [Mass/volume] in Blood"
        },
        "valueQuantity": {
          "system": "http://unitsofmeasure.org",
          "value": 81.5,
          "unit": "mg/dL",
          "code": "mg/dL"
        },
        "referenceRange": [
          {
            "low": {
              "value": 70,
              "code": "mg/dL",
              "system": "http://unitsofmeasure.org"
            }
          },
          {
            "high": {
              "value": 99,
              "code": "mg/dL",
              "system": "http://unitsofmeasure.org"
            }
          }
        ],
        "text": {
          "status": "generated",
          "div": "<div xmlns=\"http://www.w3.org/1999/xhtml\"><table class=\"hl7__eu__lab__report\"><tr><th>Test</th><th>18-Jul-2024</th><th>Reference&#xA0;Range</th><th>Unit</th></tr><tr><td>Glucose [Mass/volume] in Blood</td><td>81.5</td><td>70 - 99</td><td></td><td>mg/dL</td></tr></table></div>"
        },
        "status": "final",
        "subject": {
          "reference": "urn:uuid:ebee9855-8aaa-4762-b5b3-a08bdc779028",
          "display": "Alfred Rémy"
        },
        "effectiveDateTime": "2024-07-18T06:54:36Z",
        "specimen": {
          "reference": "urn:uuid:58a04d85-6ad0-47aa-8190-12bde146d837"
        }
      }
    },
    {
      "fullUrl": "urn:uuid:0c3ba8ec-1fcd-49b0-9d09-d9192014a6dd",
      "resource": {
        "resourceType": "Observation",
        "id": "0c3ba8ec-1fcd-49b0-9d09-d9192014a6dd",
        "meta": {
          "profile": [
            "http://hl7.eu/fhir/laboratory/StructureDefinition/Observation-resultslab-eu-lab"
          ]
        },
        "performer": [
          {
            "display": "The Central European Lab"
          }
        ],
        "category": [
          {
            "coding": [
              {
                "system": "http://terminology.hl7.org/CodeSystem/observation-category",
                "code": "laboratory"
              }
            ]
          }
        ],
        "code": {
          "coding": [
            {
              "code": "6299-2",
              "system": "http://loinc.org",
              "display": "Urea nitrogen [Mass/volume] in Blood"
            }
          ],
          "text": "Urea nitrogen [Mass/volume] in Blood"
        },
        "valueQuantity": {
          "system": "http://unitsofmeasure.org",
          "value": 10.6,
          "unit": "mg/dL",
          "code": "mg/dL"
        },
        "referenceRange": [
          {
            "low": {
              "value": 7,
              "code": "mg/dL",
              "system": "http://unitsofmeasure.org"
            }
          },
          {
            "high": {
              "value": 20,
              "code": "mg/dL",
              "system": "http://unitsofmeasure.org"
            }
          }
        ],
        "text": {
          "status": "generated",
          "div": "<div xmlns=\"http://www.w3.org/1999/xhtml\"><table class=\"hl7__eu__lab__report\"><tr><th>Test</th><th>18-Jul-2024</th><th>Reference&#xA0;Range</th><th>Unit</th></tr><tr><td>Urea nitrogen [Mass/volume] in Blood</td><td>10.6</td><td>7 - 20</td><td></td><td>mg/dL</td></tr></table></div>"
        },
        "status": "final",
        "subject": {
          "reference": "urn:uuid:ebee9855-8aaa-4762-b5b3-a08bdc779028",
          "display": "Alfred Rémy"
        },
        "effectiveDateTime": "2024-07-18T06:54:36Z",
        "specimen": {
          "reference": "urn:uuid:58a04d85-6ad0-47aa-8190-12bde146d837"
        }
      }
    },
    {
      "fullUrl": "urn:uuid:246423cc-3639-4d6b-995f-7ec1cfbced5b",
      "resource": {
        "resourceType": "Observation",
        "id": "246423cc-3639-4d6b-995f-7ec1cfbced5b",
        "meta": {
          "profile": [
            "http://hl7.eu/fhir/laboratory/StructureDefinition/Observation-resultslab-eu-lab"
          ]
        },
        "performer": [
          {
            "display": "The Central European Lab"
          }
        ],
        "category": [
          {
            "coding": [
              {
                "system": "http://terminology.hl7.org/CodeSystem/observation-category",
                "code": "laboratory"
              }
            ]
          }
        ],
        "code": {
          "coding": [
            {
              "code": "38483-4",
              "system": "http://loinc.org",
              "display": "Creatinine [Mass/volume] in Blood"
            }
          ],
          "text": "Creatinine [Mass/volume] in Blood"
        },
        "valueQuantity": {
          "system": "http://unitsofmeasure.org",
          "value": 1,
          "unit": "mg/dL",
          "code": "mg/dL"
        },
        "referenceRange": [
          {
            "low": {
              "value": 0.7,
              "code": "mg/dL",
              "system": "http://unitsofmeasure.org"
            }
          },
          {
            "high": {
              "value": 1.3,
              "code": "mg/dL",
              "system": "http://unitsofmeasure.org"
            }
          }
        ],
        "text": {
          "status": "generated",
          "div": "<div xmlns=\"http://www.w3.org/1999/xhtml\"><table class=\"hl7__eu__lab__report\"><tr><th>Test</th><th>18-Jul-2024</th><th>Reference&#xA0;Range</th><th>Unit</th></tr><tr><td>Creatinine [Mass/volume] in Blood</td><td>1.0</td><td>0.7 - 1.3</td><td></td><td>mg/dL</td></tr></table></div>"
        },
        "status": "final",
        "subject": {
          "reference": "urn:uuid:ebee9855-8aaa-4762-b5b3-a08bdc779028",
          "display": "Alfred Rémy"
        },
        "effectiveDateTime": "2024-07-18T06:54:36Z",
        "specimen": {
          "reference": "urn:uuid:58a04d85-6ad0-47aa-8190-12bde146d837"
        }
      }
    },
    {
      "fullUrl": "urn:uuid:9dd87e71-6223-420b-9131-c485dc682078",
      "resource": {
        "resourceType": "Observation",
        "id": "9dd87e71-6223-420b-9131-c485dc682078",
        "meta": {
          "profile": [
            "http://hl7.eu/fhir/laboratory/StructureDefinition/Observation-resultslab-eu-lab"
          ]
        },
        "performer": [
          {
            "display": "The Central European Lab"
          }
        ],
        "category": [
          {
            "coding": [
              {
                "system": "http://terminology.hl7.org/CodeSystem/observation-category",
                "code": "laboratory"
              }
            ]
          }
        ],
        "code": {
          "coding": [
            {
              "code": "49765-1",
              "system": "http://loinc.org",
              "display": "Calcium [Mass/volume] in Blood"
            }
          ],
          "text": "Calcium [Mass/volume] in Blood"
        },
        "valueQuantity": {
          "system": "http://unitsofmeasure.org",
          "value": 8.9,
          "unit": "mg/dL",
          "code": "mg/dL"
        },
        "referenceRange": [
          {
            "low": {
              "value": 8.5,
              "code": "mg/dL",
              "system": "http://unitsofmeasure.org"
            }
          },
          {
            "high": {
              "value": 10.5,
              "code": "mg/dL",
              "system": "http://unitsofmeasure.org"
            }
          }
        ],
        "text": {
          "status": "generated",
          "div": "<div xmlns=\"http://www.w3.org/1999/xhtml\"><table class=\"hl7__eu__lab__report\"><tr><th>Test</th><th>18-Jul-2024</th><th>Reference&#xA0;Range</th><th>Unit</th></tr><tr><td>Calcium [Mass/volume] in Blood</td><td>8.9</td><td>8.5 - 10.5</td><td></td><td>mg/dL</td></tr></table></div>"
        },
        "status": "final",
        "subject": {
          "reference": "urn:uuid:ebee9855-8aaa-4762-b5b3-a08bdc779028",
          "display": "Alfred Rémy"
        },
        "effectiveDateTime": "2024-07-18T06:54:36Z",
        "specimen": {
          "reference": "urn:uuid:58a04d85-6ad0-47aa-8190-12bde146d837"
        }
      }
    },
    {
      "fullUrl": "urn:uuid:f64acb46-fb1f-4480-97cd-809d3263140f",
      "resource": {
        "resourceType": "Observation",
        "id": "f64acb46-fb1f-4480-97cd-809d3263140f",
        "meta": {
          "profile": [
            "http://hl7.eu/fhir/laboratory/StructureDefinition/Observation-resultslab-eu-lab"
          ]
        },
        "performer": [
          {
            "display": "The Central European Lab"
          }
        ],
        "category": [
          {
            "coding": [
              {
                "system": "http://terminology.hl7.org/CodeSystem/observation-category",
                "code": "laboratory"
              }
            ]
          }
        ],
        "code": {
          "coding": [
            {
              "code": "2947-0",
              "system": "http://loinc.org",
              "display": "Sodium [Moles/volume] in Blood"
            }
          ],
          "text": "Sodium [Moles/volume] in Blood"
        },
        "valueQuantity": {
          "system": "http://unitsofmeasure.org",
          "value": 136.2,
          "unit": "mmol/L",
          "code": "mmol/L"
        },
        "referenceRange": [
          {
            "low": {
              "value": 135,
              "code": "mmol/L",
              "system": "http://unitsofmeasure.org"
            }
          },
          {
            "high": {
              "value": 145,
              "code": "mmol/L",
              "system": "http://unitsofmeasure.org"
            }
          }
        ],
        "text": {
          "status": "generated",
          "div": "<div xmlns=\"http://www.w3.org/1999/xhtml\"><table class=\"hl7__eu__lab__report\"><tr><th>Test</th><th>18-Jul-2024</th><th>Reference&#xA0;Range</th><th>Unit</th></tr><tr><td>Sodium [Moles/volume] in Blood</td><td>136.2</td><td>135 - 145</td><td></td><td>mmol/L</td></tr></table></div>"
        },
        "status": "final",
        "subject": {
          "reference": "urn:uuid:ebee9855-8aaa-4762-b5b3-a08bdc779028",
          "display": "Alfred Rémy"
        },
        "effectiveDateTime": "2024-07-18T06:54:36Z",
        "specimen": {
          "reference": "urn:uuid:58a04d85-6ad0-47aa-8190-12bde146d837"
        }
      }
    },
    {
      "fullUrl": "urn:uuid:416aceb1-20b4-45e2-9a17-7f3515fdd267",
      "resource": {
        "resourceType": "Observation",
        "id": "416aceb1-20b4-45e2-9a17-7f3515fdd267",
        "meta": {
          "profile": [
            "http://hl7.eu/fhir/laboratory/StructureDefinition/Observation-resultslab-eu-lab"
          ]
        },
        "performer": [
          {
            "display": "The Central European Lab"
          }
        ],
        "category": [
          {
            "coding": [
              {
                "system": "http://terminology.hl7.org/CodeSystem/observation-category",
                "code": "laboratory"
              }
            ]
          }
        ],
        "code": {
          "coding": [
            {
              "code": "6298-4",
              "system": "http://loinc.org",
              "display": "Potassium [Moles/volume] in Blood"
            }
          ],
          "text": "Potassium [Moles/volume] in Blood"
        },
        "valueQuantity": {
          "system": "http://unitsofmeasure.org",
          "value": 4.7,
          "unit": "mmol/L",
          "code": "mmol/L"
        },
        "referenceRange": [
          {
            "low": {
              "value": 3.5,
              "code": "mmol/L",
              "system": "http://unitsofmeasure.org"
            }
          },
          {
            "high": {
              "value": 5.3,
              "code": "mmol/L",
              "system": "http://unitsofmeasure.org"
            }
          }
        ],
        "text": {
          "status": "generated",
          "div": "<div xmlns=\"http://www.w3.org/1999/xhtml\"><table class=\"hl7__eu__lab__report\"><tr><th>Test</th><th>18-Jul-2024</th><th>Reference&#xA0;Range</th><th>Unit</th></tr><tr><td>Potassium [Moles/volume] in Blood</td><td>4.7</td><td>3.5 - 5.3</td><td></td><td>mmol/L</td></tr></table></div>"
        },
        "status": "final",
        "subject": {
          "reference": "urn:uuid:ebee9855-8aaa-4762-b5b3-a08bdc779028",
          "display": "Alfred Rémy"
        },
        "effectiveDateTime": "2024-07-18T06:54:36Z",
        "specimen": {
          "reference": "urn:uuid:58a04d85-6ad0-47aa-8190-12bde146d837"
        }
      }
    },
    {
      "fullUrl": "urn:uuid:ec4c5ac7-bacb-44b2-bf3e-6b2e5fbe8007",
      "resource": {
        "resourceType": "Observation",
        "id": "ec4c5ac7-bacb-44b2-bf3e-6b2e5fbe8007",
        "meta": {
          "profile": [
            "http://hl7.eu/fhir/laboratory/StructureDefinition/Observation-resultslab-eu-lab"
          ]
        },
        "performer": [
          {
            "display": "The Central European Lab"
          }
        ],
        "category": [
          {
            "coding": [
              {
                "system": "http://terminology.hl7.org/CodeSystem/observation-category",
                "code": "laboratory"
              }
            ]
          }
        ],
        "code": {
          "coding": [
            {
              "code": "2069-3",
              "system": "http://loinc.org",
              "display": "Chloride [Moles/volume] in Blood"
            }
          ],
          "text": "Chloride [Moles/volume] in Blood"
        },
        "valueQuantity": {
          "system": "http://unitsofmeasure.org",
          "value": 103.7,
          "unit": "mmol/L",
          "code": "mmol/L"
        },
        "referenceRange": [
          {
            "low": {
              "value": 98,
              "code": "mmol/L",
              "system": "http://unitsofmeasure.org"
            }
          },
          {
            "high": {
              "value": 110,
              "code": "mmol/L",
              "system": "http://unitsofmeasure.org"
            }
          }
        ],
        "text": {
          "status": "generated",
          "div": "<div xmlns=\"http://www.w3.org/1999/xhtml\"><table class=\"hl7__eu__lab__report\"><tr><th>Test</th><th>18-Jul-2024</th><th>Reference&#xA0;Range</th><th>Unit</th></tr><tr><td>Chloride [Moles/volume] in Blood</td><td>103.7</td><td>98 - 110</td><td></td><td>mmol/L</td></tr></table></div>"
        },
        "status": "final",
        "subject": {
          "reference": "urn:uuid:ebee9855-8aaa-4762-b5b3-a08bdc779028",
          "display": "Alfred Rémy"
        },
        "effectiveDateTime": "2024-07-18T06:54:36Z",
        "specimen": {
          "reference": "urn:uuid:58a04d85-6ad0-47aa-8190-12bde146d837"
        }
      }
    },
    {
      "fullUrl": "urn:uuid:19e2be55-28ed-4567-b9c6-786db280ae1a",
      "resource": {
        "resourceType": "Observation",
        "id": "19e2be55-28ed-4567-b9c6-786db280ae1a",
        "meta": {
          "profile": [
            "http://hl7.eu/fhir/laboratory/StructureDefinition/Observation-resultslab-eu-lab"
          ]
        },
        "performer": [
          {
            "display": "The Central European Lab"
          }
        ],
        "category": [
          {
            "coding": [
              {
                "system": "http://terminology.hl7.org/CodeSystem/observation-category",
                "code": "laboratory"
              }
            ]
          }
        ],
        "code": {
          "coding": [
            {
              "code": "20565-8",
              "system": "http://loinc.org",
              "display": "Carbon dioxide, total [Moles/volume] in Blood"
            }
          ],
          "text": "Carbon dioxide, total [Moles/volume] in Blood"
        },
        "valueQuantity": {
          "system": "http://unitsofmeasure.org",
          "value": 28.9,
          "unit": "mmol/L",
          "code": "mmol/L"
        },
        "referenceRange": [
          {
            "low": {
              "value": 22,
              "code": "mmol/L",
              "system": "http://unitsofmeasure.org"
            }
          },
          {
            "high": {
              "value": 29,
              "code": "mmol/L",
              "system": "http://unitsofmeasure.org"
            }
          }
        ],
        "text": {
          "status": "generated",
          "div": "<div xmlns=\"http://www.w3.org/1999/xhtml\"><table class=\"hl7__eu__lab__report\"><tr><th>Test</th><th>18-Jul-2024</th><th>Reference&#xA0;Range</th><th>Unit</th></tr><tr><td>Carbon dioxide, total [Moles/volume] in Blood</td><td>28.9</td><td>22 - 29</td><td></td><td>mmol/L</td></tr></table></div>"
        },
        "status": "final",
        "subject": {
          "reference": "urn:uuid:ebee9855-8aaa-4762-b5b3-a08bdc779028",
          "display": "Alfred Rémy"
        },
        "effectiveDateTime": "2024-07-18T06:54:36Z",
        "specimen": {
          "reference": "urn:uuid:58a04d85-6ad0-47aa-8190-12bde146d837"
        }
      }
    },
    {
      "fullUrl": "urn:uuid:680d94b5-cd6d-414a-ba56-ced85e8f8f77",
      "resource": {
        "resourceType": "Device",
        "id": "680d94b5-cd6d-414a-ba56-ced85e8f8f77",
        "deviceName": [
          {
            "name": "SYNDERAI Synthetic Generator",
            "type": "manufacturer-name"
          }
        ],
        "version": [
          {
            "value": "5.0"
          }
        ],
        "text": {
          "status": "generated",
          "div": "<div xmlns=\"http://www.w3.org/1999/xhtml\">SYNDERAI Synthetic Generator v5.0</div>"
        },
        "status": "active\"",
        "distinctIdentifier": "synderai-generator-50",
        "manufacturer": "SYNDERAI Project"
      }
    },
    {
      "fullUrl": "urn:uuid:32d20dfa-b064-481e-a096-3b13afc42202",
      "resource": {
        "resourceType": "Provenance",
        "id": "32d20dfa-b064-481e-a096-3b13afc42202",
        "target": [
          {
            "reference": "Patient/ebee9855-8aaa-4762-b5b3-a08bdc779028"
          },
          {
            "reference": "Bundle/335570af-266b-40cd-8dde-173230cc41cb"
          },
          {
            "reference": "Composition/a037d5f3-731f-4b11-a9f5-c1ee7a33147e"
          },
          {
            "reference": "PractitionerRole/89cd3d04-2df2-4dea-9255-11f418e1b3b2"
          },
          {
            "reference": "Practitioner/70f135dd-c9ca-4f2e-8a2a-a339d27efea9"
          },
          {
            "reference": "PractitionerRole/70c965ab-1673-405b-9d14-7162fa5acce8"
          },
          {
            "reference": "Organization/869a0687-e8d5-4423-8fb7-96e6f74a9a49"
          }
        ],
        "activity": {
          "text": "Synthetic Example Data Generation"
        },
        "policy": [
          "https://synderai.net/synderai-synthetic-data-policy"
        ],
        "agent": [
          {
            "type": {
              "text": "author"
            },
            "who": {
              "reference": "Device/680d94b5-cd6d-414a-ba56-ced85e8f8f77"
            }
          }
        ],
        "reason": [
          {
            "text": "Interoperability Testing and Training (non-clinical use)"
          }
        ],
        "text": {
          "status": "generated",
          "div": "<div xmlns=\"http://www.w3.org/1999/xhtml\">Provenance for SYNDERAI Synthetic Example Data Resource</div>"
        },
        "recorded": "2024-07-18T08:54:36Z"
      }
    },
    {
      "fullUrl": "urn:uuid:89cd3d04-2df2-4dea-9255-11f418e1b3b2",
      "resource": {
        "resourceType": "PractitionerRole",
        "id": "89cd3d04-2df2-4dea-9255-11f418e1b3b2",
        "meta": {
          "profile": [
            "http://hl7.eu/fhir/base/StructureDefinition/practitionerRole-eu"
          ]
        },
        "text": {
          "status": "generated",
          "div": "<div xmlns=\"http://www.w3.org/1999/xhtml\">Laboratory Role Id: 89cd3d04-2df2-4dea-9255-11f418e1b3b2</div>"
        },
        "practitioner": {
          "reference": "urn:uuid:70f135dd-c9ca-4f2e-8a2a-a339d27efea9"
        }
      }
    },
    {
      "fullUrl": "urn:uuid:70f135dd-c9ca-4f2e-8a2a-a339d27efea9",
      "resource": {
        "resourceType": "Practitioner",
        "id": "70f135dd-c9ca-4f2e-8a2a-a339d27efea9",
        "meta": {
          "profile": [
            "http://hl7.eu/fhir/base/StructureDefinition/practitioner-eu"
          ]
        },
        "identifier": [
          {
            "assigner": {
              "display": "HL7 Europe"
            },
            "system": "urn:oid:2.16.840.1.113883.2.51.999",
            "value": "5ec97f55-ed5f-42be-9638-a7f591c36961"
          }
        ],
        "name": [
          {
            "prefix": [
              "dr"
            ],
            "given": [
              "Ex"
            ],
            "family": "Ample"
          }
        ],
        "address": [
          {
            "line": [
              "Laboratoire Central Européenne",
              "Boulevard du Jardin Botanique 32"
            ],
            "postalCode": "1000",
            "city": "Brussels",
            "country": "Belgium"
          }
        ],
        "text": {
          "status": "generated",
          "div": "<div xmlns=\"http://www.w3.org/1999/xhtml\">Laboratory: Laboratoire Central Européenne, 1000 Brussels, Belgium</div>"
        }
      }
    }
  ],
  "type": "document",
  "timestamp": "2024-07-18T08:54:36Z"
}
