{
  "resourceType": "Bundle",
  "id": "4327ac42-6d53-431e-bc5a-0591a5e30dad",
  "meta": {
    "profile": [
      "http://hl7.eu/fhir/laboratory/StructureDefinition/Bundle-eu-lab"
    ]
  },
  "identifier": {
    "assigner": {
      "display": "HL7 Europe"
    },
    "system": "urn:oid:2.16.840.1.113883.2.51.999",
    "value": "d8460ef5-55c7-4ce4-89ba-fb27a5ced928"
  },
  "entry": [
    {
      "fullUrl": "urn:uuid:11a942be-a119-46c0-b14c-ca42c53dc3cf",
      "resource": {
        "resourceType": "Composition",
        "id": "11a942be-a119-46c0-b14c-ca42c53dc3cf",
        "meta": {
          "profile": [
            "http://hl7.eu/fhir/laboratory/StructureDefinition/Composition-eu-lab"
          ]
        },
        "identifier": {
          "assigner": {
            "display": "HL7 Europe"
          },
          "system": "urn:oid:2.16.840.1.113883.2.51.999",
          "value": "78ac8e7f-c951-428e-8ce7-4a2997ae243e"
        },
        "author": [
          {
            "reference": "urn:uuid:a98beed8-2440-4dbf-8d9f-c94fdcd7738f"
          }
        ],
        "category": [
          {
            "coding": [
              {
                "code": "26436-6",
                "system": "http://loinc.org",
                "display": "Laboratory studies (set)"
              }
            ]
          }
        ],
        "type": {
          "coding": [
            {
              "code": "11502-2",
              "system": "http://loinc.org",
              "display": "Laboratory report"
            }
          ],
          "text": "Laboratory Report"
        },
        "section": [
          {
            "code": {
              "coding": [
                {
                  "code": "26436-6",
                  "system": "http://loinc.org",
                  "display": "Laboratory studies (set)"
                }
              ],
              "text": "Laboratory studies"
            },
            "section": [
              {
                "code": {
                  "coding": [
                    {
                      "code": "$18719-5",
                      "system": "http://loinc.org",
                      "display": "Chemistry studies (set)"
                    }
                  ],
                  "text": "Chemistry"
                },
                "entry": [
                  {
                    "reference": "urn:uuid:ace2ddf4-66d5-4639-8f84-9841845ddaa6"
                  },
                  {
                    "reference": "urn:uuid:41f29a29-5d46-4730-b09d-493753f94fc6"
                  },
                  {
                    "reference": "urn:uuid:41174701-e9af-457d-94ba-2d11f6e9db4c"
                  },
                  {
                    "reference": "urn:uuid:de54401e-2936-4bf0-b3b0-7b1c7b9fedbb"
                  },
                  {
                    "reference": "urn:uuid:2c648b02-bd80-49f7-9b6c-17d9bf714b4b"
                  },
                  {
                    "reference": "urn:uuid:315d287b-a22e-4883-8a6e-a86e4553b3bf"
                  },
                  {
                    "reference": "urn:uuid:ad8f4d6a-599d-4cab-851e-f4e241db8857"
                  },
                  {
                    "reference": "urn:uuid:d94dfe38-a6f4-4602-9de7-e18f8d62fbae"
                  },
                  {
                    "reference": "urn:uuid:7450c45e-2225-4f5e-851b-7cf7a560ea30"
                  },
                  {
                    "reference": "urn:uuid:6f3e6f71-64e3-42a2-b733-4194cb54b9cd"
                  }
                ],
                "text": {
                  "status": "generated",
                  "div": "<div xmlns=\"http://www.w3.org/1999/xhtml\"><h3>Chemistry</h3><table class=\"hl7__eu__lab__report\"><thead><tr><th>Test</th><th>12-OCT-2021</th><th>Reference&#xA0;Range</th><th>Unit</th></tr></thead><tbody><tr><td>Glucose [Mass/volume] in Serum or Plasma</td><td>76.6</td><td>70 - 99</td><td>mg/dL</td></tr><tr><td>Urea nitrogen [Mass/volume] in Serum or Plasma</td><td>11.4</td><td>7 - 50</td><td>mg/dL</td></tr><tr><td>Creatinine [Mass/volume] in Serum or Plasma</td><td><strong>2.0 H</strong></td><td>0.6 - 1.1</td><td>mg/dL</td></tr><tr><td>Calcium [Mass/volume] in Serum or Plasma</td><td>10.2</td><td>8.6 - 10.4</td><td>mg/dL</td></tr><tr><td>Sodium [Moles/volume] in Serum or Plasma</td><td>137.7</td><td>135 - 145</td><td>mmol/L</td></tr><tr><td>Potassium [Moles/volume] in Serum or Plasma</td><td>4.4</td><td>3.5 - 5.1</td><td>mmol/L</td></tr><tr><td>Chloride [Moles/volume] in Serum or Plasma</td><td>104.9</td><td>98 - 108</td><td>mmol/L</td></tr><tr><td>Carbon dioxide, total [Moles/volume] in Serum or Plasma</td><td>24.2</td><td>22 - 32</td><td>mmol/L</td></tr><tr><td>Ketones [Presence] in Urine by Test strip</td><td>Urine ketone test = ++</td><td></td><td></td></tr><tr><td>Hemoglobin A1c/Hemoglobin.total in Blood</td><td><strong>3.4 L</strong></td><td>4 - 6.4</td><td>%</td></tr></tbody></table></div>"
                },
                "title": "Chemistry"
              },
              {
                "code": {
                  "coding": [
                    {
                      "code": "$18729-4",
                      "system": "http://loinc.org",
                      "display": "Urinalysis studies (set)"
                    }
                  ],
                  "text": "Urinalysis"
                },
                "entry": [
                  {
                    "reference": "urn:uuid:87afd4eb-95bb-4f47-b70b-1f83db70ae34"
                  },
                  {
                    "reference": "urn:uuid:23949779-7af5-4322-b293-01eb065cd157"
                  },
                  {
                    "reference": "urn:uuid:361a6404-6cda-40da-91f2-c75671c2d231"
                  },
                  {
                    "reference": "urn:uuid:740cfa7c-3151-4384-9a30-d3f63fec1c65"
                  },
                  {
                    "reference": "urn:uuid:6d12999a-7313-457e-abf2-c1254c43f407"
                  },
                  {
                    "reference": "urn:uuid:39cc4cba-edd0-42c8-95c8-005c60f562ef"
                  },
                  {
                    "reference": "urn:uuid:d56082a3-b565-47de-81ed-c95664e690f3"
                  },
                  {
                    "reference": "urn:uuid:0c043126-2b82-44a0-a10f-56b7e1469c13"
                  },
                  {
                    "reference": "urn:uuid:79474321-ca33-4627-b266-d5bece33acc2"
                  },
                  {
                    "reference": "urn:uuid:3b1d7f79-72dd-4d6b-984c-1cd372aa40c0"
                  },
                  {
                    "reference": "urn:uuid:3777e1f4-a588-456d-bf35-6411d62e0f49"
                  },
                  {
                    "reference": "urn:uuid:1b17479d-fd8d-43ef-bb77-0344d78f9e22"
                  }
                ],
                "text": {
                  "status": "generated",
                  "div": "<div xmlns=\"http://www.w3.org/1999/xhtml\"><h3>Urinalysis</h3><table class=\"hl7__eu__lab__report\"><thead><tr><th>Test</th><th>12-OCT-2021</th><th>Reference&#xA0;Range</th><th>Unit</th></tr></thead><tbody><tr><td>Glucose [Mass/volume] in Urine by Test strip</td><td><strong>0.5 L</strong></td><td>0.8 - 0</td><td>mg/dL</td></tr><tr><td>Glucose [Presence] in Urine by Test strip</td><td>++</td><td></td><td></td></tr><tr><td>Bilirubin.total [Mass/volume] in Urine by Test strip</td><td>0.4</td><td>0 - 1</td><td>mg/dL</td></tr><tr><td>Bilirubin.total [Presence] in Urine by Test strip</td><td>Finding of bilirubin in urine</td><td></td><td></td></tr><tr><td>Ketones [Mass/volume] in Urine by Test strip</td><td><strong>16.2 H</strong></td><td>0 - 4</td><td>mg/dL</td></tr><tr><td>Specific gravity of Urine by Test strip</td><td><strong>1.0 L</strong></td><td>1.005 - 1.03</td><td>{nominal}</td></tr><tr><td>pH of Urine by Test strip</td><td>6.5</td><td>4.6 - 7</td><td>pH</td></tr><tr><td>Protein [Mass/volume] in Urine by Test strip</td><td><strong>221.3 H</strong></td><td>0 - 14</td><td>mg/dL</td></tr><tr><td>Protein [Presence] in Urine by Test strip</td><td>Urine protein test = ++</td><td></td><td></td></tr><tr><td>Nitrite [Presence] in Urine by Test strip</td><td>Urine nitrite negative</td><td></td><td></td></tr><tr><td>Hemoglobin [Presence] in Urine by Test strip</td><td>Urine blood test = negative</td><td></td><td></td></tr><tr><td>Leukocyte esterase [Presence] in Urine by Test strip</td><td>Urine leukocyte test negative</td><td></td><td></td></tr></tbody></table></div>"
                },
                "title": "Urinalysis"
              },
              {
                "code": {
                  "coding": [
                    {
                      "code": "$LP7846-1",
                      "system": "http://loinc.org",
                      "display": "Specimen information"
                    }
                  ],
                  "text": "Specimen information"
                },
                "entry": [
                  {
                    "reference": "urn:uuid:f509963b-e8a6-449f-9a36-bf1d073a4d32"
                  },
                  {
                    "reference": "urn:uuid:3206fbbf-6bb9-494f-8ed9-29b896ed3f0f"
                  },
                  {
                    "reference": "urn:uuid:0b5960c1-45d8-4709-ab23-447390307930"
                  },
                  {
                    "reference": "urn:uuid:c5fe0079-9972-465c-8dc0-87fb0942b51a"
                  }
                ],
                "text": {
                  "status": "generated",
                  "div": "<div xmlns=\"http://www.w3.org/1999/xhtml\"><h3>Specimen information</h3><table class=\"hl7__eu__lab__report\"><thead><tr><th>Test</th><th>12-OCT-2021</th><th>Specimen</th><th></th></tr></thead><tbody><tr><td>Appearance of Urine</td><td>Cloudy urine</td><td>Urine</td><td></td></tr><tr><td>Odor of Urine</td><td>Urine smell ammoniacal</td><td>Urine</td><td></td></tr><tr><td>Clarity of Urine</td><td>Translucent</td><td>Urine</td><td></td></tr><tr><td>Color of Urine</td><td>Brown color</td><td>Urine</td><td></td></tr></tbody></table></div>"
                },
                "title": "Specimen information"
              }
            ],
            "title": "Laboratory Report"
          },
          {
            "text": {
              "status": "generated",
              "div": "<div xmlns=\"http://www.w3.org/1999/xhtml\"><h3>Annotation</h3><table class=\"hl7__eu__lab__report\"><tr><th>Conclusion and Recommendations based on this report and previous findings known to us</th></tr><tr><td>The patient shows elevated serum creatinine, significant proteinuria, ketonuria, glucosuria, and bilirubinuria, with low urine specific gravity and low HbA1c. These findings suggest impaired renal function, likely chronic kidney disease, with possible tubular dysfunction. The presence of ketones and glucose in urine despite low-normal blood glucose and low HbA1c may indicate a non-diabetic cause (e.g., starvation, renal glycosuria). Urine appearance and color may suggest underlying pathology. Recommend further nephrological evaluation and correlation with clinical findings.</td></tr></table></div>"
            },
            "code": {
              "coding": [
                {
                  "system": "http://loinc.org",
                  "code": "48767-8",
                  "display": "Annotation comment"
                }
              ]
            },
            "title": "Annotation comment"
          }
        ],
        "status": "final",
        "subject": {
          "reference": "urn:uuid:16fa71bf-57b6-4543-90c3-0c71512bb8fc",
          "display": "Meaghan Neary"
        },
        "date": "2021-10-12T00:11:04Z",
        "title": "Laboratory Report",
        "confidentiality": "N"
      }
    },
    {
      "fullUrl": "urn:uuid:33a6b6a0-d978-4b6c-bcf3-bb15fce5ed3c",
      "resource": {
        "resourceType": "DiagnosticReport",
        "id": "33a6b6a0-d978-4b6c-bcf3-bb15fce5ed3c",
        "meta": {
          "profile": [
            "http://hl7.eu/fhir/laboratory/StructureDefinition/DiagnosticReport-eu-lab"
          ]
        },
        "identifier": [
          {
            "assigner": {
              "display": "HL7 Europe"
            },
            "system": "urn:oid:2.16.840.1.113883.2.51.999",
            "value": "2138ffad-fbd7-4964-98e6-197d77d45c87"
          }
        ],
        "extension": [
          {
            "url": "http://hl7.org/fhir/5.0/StructureDefinition/extension-DiagnosticReport.composition",
            "valueReference": {
              "reference": "urn:uuid:78ac8e7f-c951-428e-8ce7-4a2997ae243e"
            }
          }
        ],
        "category": [
          {
            "coding": [
              {
                "code": "26436-6",
                "system": "http://loinc.org",
                "display": "Laboratory studies (set)"
              }
            ]
          }
        ],
        "specimen": [
          {
            "reference": "urn:uuid:f4411a49-9acf-4764-aa94-2262c2c2279d"
          },
          {
            "reference": "urn:uuid:99e5f335-ca66-44d4-b35d-a31a9acfcf7c"
          },
          {
            "reference": "urn:uuid:3c13091f-06c3-47ed-9f27-1f7fbf370998"
          }
        ],
        "result": [
          {
            "reference": "urn:uuid:ace2ddf4-66d5-4639-8f84-9841845ddaa6"
          },
          {
            "reference": "urn:uuid:41f29a29-5d46-4730-b09d-493753f94fc6"
          },
          {
            "reference": "urn:uuid:41174701-e9af-457d-94ba-2d11f6e9db4c"
          },
          {
            "reference": "urn:uuid:de54401e-2936-4bf0-b3b0-7b1c7b9fedbb"
          },
          {
            "reference": "urn:uuid:2c648b02-bd80-49f7-9b6c-17d9bf714b4b"
          },
          {
            "reference": "urn:uuid:315d287b-a22e-4883-8a6e-a86e4553b3bf"
          },
          {
            "reference": "urn:uuid:ad8f4d6a-599d-4cab-851e-f4e241db8857"
          },
          {
            "reference": "urn:uuid:d94dfe38-a6f4-4602-9de7-e18f8d62fbae"
          },
          {
            "reference": "urn:uuid:f509963b-e8a6-449f-9a36-bf1d073a4d32"
          },
          {
            "reference": "urn:uuid:3206fbbf-6bb9-494f-8ed9-29b896ed3f0f"
          },
          {
            "reference": "urn:uuid:0b5960c1-45d8-4709-ab23-447390307930"
          },
          {
            "reference": "urn:uuid:c5fe0079-9972-465c-8dc0-87fb0942b51a"
          },
          {
            "reference": "urn:uuid:87afd4eb-95bb-4f47-b70b-1f83db70ae34"
          },
          {
            "reference": "urn:uuid:23949779-7af5-4322-b293-01eb065cd157"
          },
          {
            "reference": "urn:uuid:361a6404-6cda-40da-91f2-c75671c2d231"
          },
          {
            "reference": "urn:uuid:740cfa7c-3151-4384-9a30-d3f63fec1c65"
          },
          {
            "reference": "urn:uuid:6d12999a-7313-457e-abf2-c1254c43f407"
          },
          {
            "reference": "urn:uuid:7450c45e-2225-4f5e-851b-7cf7a560ea30"
          },
          {
            "reference": "urn:uuid:39cc4cba-edd0-42c8-95c8-005c60f562ef"
          },
          {
            "reference": "urn:uuid:d56082a3-b565-47de-81ed-c95664e690f3"
          },
          {
            "reference": "urn:uuid:0c043126-2b82-44a0-a10f-56b7e1469c13"
          },
          {
            "reference": "urn:uuid:79474321-ca33-4627-b266-d5bece33acc2"
          },
          {
            "reference": "urn:uuid:3b1d7f79-72dd-4d6b-984c-1cd372aa40c0"
          },
          {
            "reference": "urn:uuid:3777e1f4-a588-456d-bf35-6411d62e0f49"
          },
          {
            "reference": "urn:uuid:1b17479d-fd8d-43ef-bb77-0344d78f9e22"
          },
          {
            "reference": "urn:uuid:6f3e6f71-64e3-42a2-b733-4194cb54b9cd"
          }
        ],
        "status": "registered",
        "code": {
          "coding": [
            {
              "code": "11502-2",
              "system": "http://loinc.org",
              "display": "Laboratory report"
            }
          ]
        },
        "subject": {
          "reference": "urn:uuid:16fa71bf-57b6-4543-90c3-0c71512bb8fc",
          "display": "Meaghan Neary"
        }
      }
    },
    {
      "fullUrl": "urn:uuid:16fa71bf-57b6-4543-90c3-0c71512bb8fc",
      "resource": {
        "resourceType": "Patient",
        "id": "16fa71bf-57b6-4543-90c3-0c71512bb8fc",
        "meta": {
          "security": [
            {
              "system": "http://terminology.hl7.org/CodeSystem/v3-ActReason",
              "code": "HTEST"
            },
            {
              "system": "http://terminology.hl7.org/CodeSystem/v3-ActReason",
              "code": "TRAIN"
            }
          ],
          "tag": [
            {
              "system": "https://synderai.net/fhir/CodeSystem/tags",
              "code": "synthetic",
              "display": "SYNDERAI Synthetic data"
            }
          ],
          "profile": [
            "http://hl7.eu/fhir/base/StructureDefinition/patient-eu-core"
          ]
        },
        "identifier": [
          {
            "type": {
              "coding": [
                {
                  "code": "PT",
                  "system": "http://terminology.hl7.org/CodeSystem/v2-0203"
                }
              ]
            },
            "system": "http://ec.europa.eu/identifier/eci",
            "value": "1586-567257-8"
          },
          {
            "type": {
              "coding": [
                {
                  "code": "MR",
                  "system": "http://terminology.hl7.org/CodeSystem/v2-0203"
                }
              ]
            },
            "system": "http://local.setting.eu/identifier",
            "value": "443e6379-f231-b364-3ccb-644740a1aa2a"
          }
        ],
        "name": [
          {
            "family": "Neary"
          },
          {
            "given": [
              "Meaghan"
            ]
          },
          {
            "text": "Meaghan Neary"
          }
        ],
        "address": [
          {
            "line": [
              "64 Linskey Street"
            ],
            "use": "home",
            "type": "physical",
            "postalCode": "D02",
            "city": "Dublin",
            "country": "Ireland"
          }
        ],
        "telecom": [
          {
            "system": "phone",
            "value": "001-967-573-0911x465"
          }
        ],
        "extension": [
          {
            "url": "http://hl7.org/fhir/StructureDefinition/patient-nationality",
            "valueCodeableConcept": {
              "coding": [
                {
                  "code": "IE",
                  "system": "http://hl7.org/fhir/ValueSet/country"
                }
              ]
            }
          }
        ],
        "text": {
          "status": "generated",
          "div": "<div xmlns=\"http://www.w3.org/1999/xhtml\"><table class=\"hl7__ips\"><tr><td>Meaghan Neary</td><td>female</td><td>19-Dec-1960</td></tr></table></div>"
        },
        "gender": "female",
        "birthDate": "1960-12-19"
      }
    },
    {
      "fullUrl": "urn:uuid:16e8f217-0aa2-45f4-ac64-ccd05e737123",
      "resource": {
        "resourceType": "ServiceRequest",
        "id": "16e8f217-0aa2-45f4-ac64-ccd05e737123",
        "meta": {
          "profile": [
            "http://hl7.eu/fhir/laboratory/StructureDefinition/ServiceRequest-eu-lab"
          ]
        },
        "identifier": [
          {
            "system": "http://example.org",
            "value": "ecbcb981-4c8d-4408-98af-f475cf9094c6"
          }
        ],
        "specimen": [
          {
            "reference": "urn:uuid:f4411a49-9acf-4764-aa94-2262c2c2279d"
          },
          {
            "reference": "urn:uuid:99e5f335-ca66-44d4-b35d-a31a9acfcf7c"
          },
          {
            "reference": "urn:uuid:3c13091f-06c3-47ed-9f27-1f7fbf370998"
          }
        ],
        "reasonCode": [
          {
            "coding": [
              {
                "code": "55822004",
                "system": "http://snomed.info/sct",
                "display": "Hyperlipidemia"
              }
            ]
          },
          {
            "coding": [
              {
                "code": "433144002",
                "system": "http://snomed.info/sct",
                "display": "Chronic kidney disease stage 3"
              }
            ]
          },
          {
            "coding": [
              {
                "code": "157141000119108",
                "system": "http://snomed.info/sct",
                "display": "Proteinuria due to type 2 diabetes mellitus"
              }
            ]
          },
          {
            "coding": [
              {
                "code": "431856006",
                "system": "http://snomed.info/sct",
                "display": "Chronic kidney disease stage 2"
              }
            ]
          },
          {
            "coding": [
              {
                "code": "90781000119102",
                "system": "http://snomed.info/sct",
                "display": "Microalbuminuria due to type 2 diabetes mellitus"
              }
            ]
          },
          {
            "coding": [
              {
                "code": "127013003",
                "system": "http://snomed.info/sct",
                "display": "Disorder of kidney due to diabetes mellitus"
              }
            ]
          },
          {
            "coding": [
              {
                "code": "431855005",
                "system": "http://snomed.info/sct",
                "display": "Chronic kidney disease stage 1"
              }
            ]
          },
          {
            "coding": [
              {
                "code": "237602007",
                "system": "http://snomed.info/sct",
                "display": "Metabolic syndrome X"
              }
            ]
          },
          {
            "coding": [
              {
                "code": "271737000",
                "system": "http://snomed.info/sct",
                "display": "Anemia"
              }
            ]
          },
          {
            "coding": [
              {
                "code": "15777000",
                "system": "http://snomed.info/sct",
                "display": "Prediabetes"
              }
            ]
          },
          {
            "coding": [
              {
                "code": "59621000",
                "system": "http://snomed.info/sct",
                "display": "Essential hypertension"
              }
            ]
          }
        ],
        "status": "active",
        "intent": "order",
        "code": {
          "coding": [
            {
              "code": "108252007",
              "system": "http://snomed.info/sct",
              "display": "Laboratory procedure"
            }
          ]
        },
        "subject": {
          "reference": "urn:uuid:16fa71bf-57b6-4543-90c3-0c71512bb8fc",
          "display": "Meaghan Neary"
        },
        "requester": {
          "reference": "urn:uuid:2f65563e-5aef-4a7a-b4ba-45ef76d2e6a0"
        }
      }
    },
    {
      "fullUrl": "urn:uuid:2f65563e-5aef-4a7a-b4ba-45ef76d2e6a0",
      "resource": {
        "resourceType": "PractitionerRole",
        "id": "2f65563e-5aef-4a7a-b4ba-45ef76d2e6a0",
        "meta": {
          "profile": [
            "http://hl7.eu/fhir/base/StructureDefinition/practitionerRole-eu"
          ]
        },
        "text": {
          "status": "generated",
          "div": "<div xmlns=\"http://www.w3.org/1999/xhtml\">Provider Role Id: 2f65563e-5aef-4a7a-b4ba-45ef76d2e6a0</div>"
        },
        "organization": {
          "reference": "urn:uuid:eabe612b-6cf1-42d5-a967-9bacbc44d3e3"
        }
      }
    },
    {
      "fullUrl": "urn:uuid:eabe612b-6cf1-42d5-a967-9bacbc44d3e3",
      "resource": {
        "resourceType": "Organization",
        "id": "eabe612b-6cf1-42d5-a967-9bacbc44d3e3",
        "meta": {
          "profile": [
            "http://hl7.eu/fhir/base/StructureDefinition/organization-eu"
          ]
        },
        "identifier": [
          {
            "assigner": {
              "display": "HL7 Europe"
            },
            "system": "urn:oid:2.16.840.1.113883.2.51.999",
            "value": "f28e0de5-2222-49df-8f23-63bc78cd116f"
          }
        ],
        "address": [
          {
            "line": [
              "Parnell Square West nan"
            ],
            "city": "Dublin",
            "postalCode": "D01",
            "country": "Ireland"
          }
        ],
        "text": {
          "status": "generated",
          "div": "<div xmlns=\"http://www.w3.org/1999/xhtml\">Provider Organization: Rotunda Hospital</div>"
        },
        "name": "Rotunda Hospital"
      }
    },
    {
      "fullUrl": "urn:uuid:f4411a49-9acf-4764-aa94-2262c2c2279d",
      "resource": {
        "resourceType": "Specimen",
        "id": "f4411a49-9acf-4764-aa94-2262c2c2279d",
        "meta": {
          "profile": [
            "http://hl7.eu/fhir/laboratory/StructureDefinition/Specimen-eu-lab"
          ]
        },
        "collection": {
          "collectedDateTime": "2021-10-11"
        },
        "text": {
          "status": "generated",
          "div": "<div xmlns=\"http://www.w3.org/1999/xhtml\"><table class=\"hl7__eu__lab__report\"><tr><th>Specimen</th><th>Collection Date</th></tr><tr><td>Acellular blood (serum or plasma) specimen</td><td><span class=\"nb\">11-Oct-2021</span></td></tr></table></div>"
        },
        "type": {
          "coding": [
            {
              "code": "122592007",
              "system": "http://snomed.info/sct",
              "display": "Acellular blood (serum or plasma) specimen"
            }
          ]
        }
      }
    },
    {
      "fullUrl": "urn:uuid:99e5f335-ca66-44d4-b35d-a31a9acfcf7c",
      "resource": {
        "resourceType": "Specimen",
        "id": "99e5f335-ca66-44d4-b35d-a31a9acfcf7c",
        "meta": {
          "profile": [
            "http://hl7.eu/fhir/laboratory/StructureDefinition/Specimen-eu-lab"
          ]
        },
        "collection": {
          "collectedDateTime": "2021-10-11"
        },
        "text": {
          "status": "generated",
          "div": "<div xmlns=\"http://www.w3.org/1999/xhtml\"><table class=\"hl7__eu__lab__report\"><tr><th>Specimen</th><th>Collection Date</th></tr><tr><td>Urine specimen</td><td><span class=\"nb\">11-Oct-2021</span></td></tr></table></div>"
        },
        "type": {
          "coding": [
            {
              "code": "122575003",
              "system": "http://snomed.info/sct",
              "display": "Urine specimen"
            }
          ]
        }
      }
    },
    {
      "fullUrl": "urn:uuid:3c13091f-06c3-47ed-9f27-1f7fbf370998",
      "resource": {
        "resourceType": "Specimen",
        "id": "3c13091f-06c3-47ed-9f27-1f7fbf370998",
        "meta": {
          "profile": [
            "http://hl7.eu/fhir/laboratory/StructureDefinition/Specimen-eu-lab"
          ]
        },
        "collection": {
          "collectedDateTime": "2021-10-11"
        },
        "text": {
          "status": "generated",
          "div": "<div xmlns=\"http://www.w3.org/1999/xhtml\"><table class=\"hl7__eu__lab__report\"><tr><th>Specimen</th><th>Collection Date</th></tr><tr><td>Whole blood specimen (specimen)</td><td><span class=\"nb\">11-Oct-2021</span></td></tr></table></div>"
        },
        "type": {
          "coding": [
            {
              "code": "258580003",
              "system": "http://snomed.info/sct",
              "display": "Whole blood specimen (specimen)"
            }
          ]
        }
      }
    },
    {
      "fullUrl": "urn:uuid:ace2ddf4-66d5-4639-8f84-9841845ddaa6",
      "resource": {
        "resourceType": "Observation",
        "id": "ace2ddf4-66d5-4639-8f84-9841845ddaa6",
        "meta": {
          "profile": [
            "http://hl7.eu/fhir/laboratory/StructureDefinition/Observation-resultslab-eu-lab"
          ]
        },
        "performer": [
          {
            "display": "The Central European Lab"
          }
        ],
        "category": [
          {
            "coding": [
              {
                "system": "http://terminology.hl7.org/CodeSystem/observation-category",
                "code": "laboratory"
              }
            ]
          }
        ],
        "code": {
          "coding": [
            {
              "code": "2345-7",
              "system": "http://loinc.org",
              "display": "Glucose [Mass/volume] in Serum or Plasma"
            }
          ],
          "text": "Glucose [Mass/volume] in Serum or Plasma"
        },
        "valueQuantity": {
          "system": "http://unitsofmeasure.org",
          "value": 76.6,
          "unit": "mg/dL",
          "code": "mg/dL"
        },
        "referenceRange": [
          {
            "low": {
              "value": 70,
              "code": "mg/dL",
              "system": "http://unitsofmeasure.org"
            }
          },
          {
            "high": {
              "value": 99,
              "code": "mg/dL",
              "system": "http://unitsofmeasure.org"
            }
          }
        ],
        "text": {
          "status": "generated",
          "div": "<div xmlns=\"http://www.w3.org/1999/xhtml\"><table class=\"hl7__eu__lab__report\"><tr><th>Test</th><th>12-Oct-2021</th><th>Reference&#xA0;Range</th><th>Unit</th></tr><tr><td>Glucose [Mass/volume] in Serum or Plasma</td><td>76.6</td><td>70 - 99</td><td></td><td>mg/dL</td></tr></table></div>"
        },
        "status": "final",
        "subject": {
          "reference": "urn:uuid:16fa71bf-57b6-4543-90c3-0c71512bb8fc",
          "display": "Meaghan Neary"
        },
        "effectiveDateTime": "2021-10-11T22:11:04Z",
        "specimen": {
          "reference": "urn:uuid:f4411a49-9acf-4764-aa94-2262c2c2279d"
        }
      }
    },
    {
      "fullUrl": "urn:uuid:41f29a29-5d46-4730-b09d-493753f94fc6",
      "resource": {
        "resourceType": "Observation",
        "id": "41f29a29-5d46-4730-b09d-493753f94fc6",
        "meta": {
          "profile": [
            "http://hl7.eu/fhir/laboratory/StructureDefinition/Observation-resultslab-eu-lab"
          ]
        },
        "performer": [
          {
            "display": "The Central European Lab"
          }
        ],
        "category": [
          {
            "coding": [
              {
                "system": "http://terminology.hl7.org/CodeSystem/observation-category",
                "code": "laboratory"
              }
            ]
          }
        ],
        "code": {
          "coding": [
            {
              "code": "3094-0",
              "system": "http://loinc.org",
              "display": "Urea nitrogen [Mass/volume] in Serum or Plasma"
            }
          ],
          "text": "Urea nitrogen [Mass/volume] in Serum or Plasma"
        },
        "valueQuantity": {
          "system": "http://unitsofmeasure.org",
          "value": 11.4,
          "unit": "mg/dL",
          "code": "mg/dL"
        },
        "referenceRange": [
          {
            "low": {
              "value": 7,
              "code": "mg/dL",
              "system": "http://unitsofmeasure.org"
            }
          },
          {
            "high": {
              "value": 50,
              "code": "mg/dL",
              "system": "http://unitsofmeasure.org"
            }
          }
        ],
        "text": {
          "status": "generated",
          "div": "<div xmlns=\"http://www.w3.org/1999/xhtml\"><table class=\"hl7__eu__lab__report\"><tr><th>Test</th><th>12-Oct-2021</th><th>Reference&#xA0;Range</th><th>Unit</th></tr><tr><td>Urea nitrogen [Mass/volume] in Serum or Plasma</td><td>11.4</td><td>7 - 50</td><td></td><td>mg/dL</td></tr></table></div>"
        },
        "status": "final",
        "subject": {
          "reference": "urn:uuid:16fa71bf-57b6-4543-90c3-0c71512bb8fc",
          "display": "Meaghan Neary"
        },
        "effectiveDateTime": "2021-10-11T22:11:04Z",
        "specimen": {
          "reference": "urn:uuid:f4411a49-9acf-4764-aa94-2262c2c2279d"
        }
      }
    },
    {
      "fullUrl": "urn:uuid:41174701-e9af-457d-94ba-2d11f6e9db4c",
      "resource": {
        "resourceType": "Observation",
        "id": "41174701-e9af-457d-94ba-2d11f6e9db4c",
        "meta": {
          "profile": [
            "http://hl7.eu/fhir/laboratory/StructureDefinition/Observation-resultslab-eu-lab"
          ]
        },
        "performer": [
          {
            "display": "The Central European Lab"
          }
        ],
        "category": [
          {
            "coding": [
              {
                "system": "http://terminology.hl7.org/CodeSystem/observation-category",
                "code": "laboratory"
              }
            ]
          }
        ],
        "code": {
          "coding": [
            {
              "code": "2160-0",
              "system": "http://loinc.org",
              "display": "Creatinine [Mass/volume] in Serum or Plasma"
            }
          ],
          "text": "Creatinine [Mass/volume] in Serum or Plasma"
        },
        "valueQuantity": {
          "system": "http://unitsofmeasure.org",
          "value": 2,
          "unit": "mg/dL",
          "code": "mg/dL"
        },
        "referenceRange": [
          {
            "low": {
              "value": 0.6,
              "code": "mg/dL",
              "system": "http://unitsofmeasure.org"
            }
          },
          {
            "high": {
              "value": 1.1,
              "code": "mg/dL",
              "system": "http://unitsofmeasure.org"
            }
          }
        ],
        "interpretation": [
          {
            "coding": [
              {
                "code": "H",
                "system": "http://terminology.hl7.org/CodeSystem/v3-ObservationInterpretation",
                "display": "High"
              }
            ]
          }
        ],
        "text": {
          "status": "generated",
          "div": "<div xmlns=\"http://www.w3.org/1999/xhtml\"><table class=\"hl7__eu__lab__report\"><tr><th>Test</th><th>12-Oct-2021</th><th>Reference&#xA0;Range</th><th>Unit</th></tr><tr><td>Creatinine [Mass/volume] in Serum or Plasma</td><td>2.0</td><td>0.6 - 1.1</td><td>H</td><td>mg/dL</td></tr></table></div>"
        },
        "status": "final",
        "subject": {
          "reference": "urn:uuid:16fa71bf-57b6-4543-90c3-0c71512bb8fc",
          "display": "Meaghan Neary"
        },
        "effectiveDateTime": "2021-10-11T22:11:04Z",
        "specimen": {
          "reference": "urn:uuid:f4411a49-9acf-4764-aa94-2262c2c2279d"
        }
      }
    },
    {
      "fullUrl": "urn:uuid:de54401e-2936-4bf0-b3b0-7b1c7b9fedbb",
      "resource": {
        "resourceType": "Observation",
        "id": "de54401e-2936-4bf0-b3b0-7b1c7b9fedbb",
        "meta": {
          "profile": [
            "http://hl7.eu/fhir/laboratory/StructureDefinition/Observation-resultslab-eu-lab"
          ]
        },
        "performer": [
          {
            "display": "The Central European Lab"
          }
        ],
        "category": [
          {
            "coding": [
              {
                "system": "http://terminology.hl7.org/CodeSystem/observation-category",
                "code": "laboratory"
              }
            ]
          }
        ],
        "code": {
          "coding": [
            {
              "code": "17861-6",
              "system": "http://loinc.org",
              "display": "Calcium [Mass/volume] in Serum or Plasma"
            }
          ],
          "text": "Calcium [Mass/volume] in Serum or Plasma"
        },
        "valueQuantity": {
          "system": "http://unitsofmeasure.org",
          "value": 10.2,
          "unit": "mg/dL",
          "code": "mg/dL"
        },
        "referenceRange": [
          {
            "low": {
              "value": 8.6,
              "code": "mg/dL",
              "system": "http://unitsofmeasure.org"
            }
          },
          {
            "high": {
              "value": 10.4,
              "code": "mg/dL",
              "system": "http://unitsofmeasure.org"
            }
          }
        ],
        "text": {
          "status": "generated",
          "div": "<div xmlns=\"http://www.w3.org/1999/xhtml\"><table class=\"hl7__eu__lab__report\"><tr><th>Test</th><th>12-Oct-2021</th><th>Reference&#xA0;Range</th><th>Unit</th></tr><tr><td>Calcium [Mass/volume] in Serum or Plasma</td><td>10.2</td><td>8.6 - 10.4</td><td></td><td>mg/dL</td></tr></table></div>"
        },
        "status": "final",
        "subject": {
          "reference": "urn:uuid:16fa71bf-57b6-4543-90c3-0c71512bb8fc",
          "display": "Meaghan Neary"
        },
        "effectiveDateTime": "2021-10-11T22:11:04Z",
        "specimen": {
          "reference": "urn:uuid:f4411a49-9acf-4764-aa94-2262c2c2279d"
        }
      }
    },
    {
      "fullUrl": "urn:uuid:2c648b02-bd80-49f7-9b6c-17d9bf714b4b",
      "resource": {
        "resourceType": "Observation",
        "id": "2c648b02-bd80-49f7-9b6c-17d9bf714b4b",
        "meta": {
          "profile": [
            "http://hl7.eu/fhir/laboratory/StructureDefinition/Observation-resultslab-eu-lab"
          ]
        },
        "performer": [
          {
            "display": "The Central European Lab"
          }
        ],
        "category": [
          {
            "coding": [
              {
                "system": "http://terminology.hl7.org/CodeSystem/observation-category",
                "code": "laboratory"
              }
            ]
          }
        ],
        "code": {
          "coding": [
            {
              "code": "2951-2",
              "system": "http://loinc.org",
              "display": "Sodium [Moles/volume] in Serum or Plasma"
            }
          ],
          "text": "Sodium [Moles/volume] in Serum or Plasma"
        },
        "valueQuantity": {
          "system": "http://unitsofmeasure.org",
          "value": 137.7,
          "unit": "mmol/L",
          "code": "mmol/L"
        },
        "referenceRange": [
          {
            "low": {
              "value": 135,
              "code": "mmol/L",
              "system": "http://unitsofmeasure.org"
            }
          },
          {
            "high": {
              "value": 145,
              "code": "mmol/L",
              "system": "http://unitsofmeasure.org"
            }
          }
        ],
        "text": {
          "status": "generated",
          "div": "<div xmlns=\"http://www.w3.org/1999/xhtml\"><table class=\"hl7__eu__lab__report\"><tr><th>Test</th><th>12-Oct-2021</th><th>Reference&#xA0;Range</th><th>Unit</th></tr><tr><td>Sodium [Moles/volume] in Serum or Plasma</td><td>137.7</td><td>135 - 145</td><td></td><td>mmol/L</td></tr></table></div>"
        },
        "status": "final",
        "subject": {
          "reference": "urn:uuid:16fa71bf-57b6-4543-90c3-0c71512bb8fc",
          "display": "Meaghan Neary"
        },
        "effectiveDateTime": "2021-10-11T22:11:04Z",
        "specimen": {
          "reference": "urn:uuid:f4411a49-9acf-4764-aa94-2262c2c2279d"
        }
      }
    },
    {
      "fullUrl": "urn:uuid:315d287b-a22e-4883-8a6e-a86e4553b3bf",
      "resource": {
        "resourceType": "Observation",
        "id": "315d287b-a22e-4883-8a6e-a86e4553b3bf",
        "meta": {
          "profile": [
            "http://hl7.eu/fhir/laboratory/StructureDefinition/Observation-resultslab-eu-lab"
          ]
        },
        "performer": [
          {
            "display": "The Central European Lab"
          }
        ],
        "category": [
          {
            "coding": [
              {
                "system": "http://terminology.hl7.org/CodeSystem/observation-category",
                "code": "laboratory"
              }
            ]
          }
        ],
        "code": {
          "coding": [
            {
              "code": "2823-3",
              "system": "http://loinc.org",
              "display": "Potassium [Moles/volume] in Serum or Plasma"
            }
          ],
          "text": "Potassium [Moles/volume] in Serum or Plasma"
        },
        "valueQuantity": {
          "system": "http://unitsofmeasure.org",
          "value": 4.4,
          "unit": "mmol/L",
          "code": "mmol/L"
        },
        "referenceRange": [
          {
            "low": {
              "value": 3.5,
              "code": "mmol/L",
              "system": "http://unitsofmeasure.org"
            }
          },
          {
            "high": {
              "value": 5.1,
              "code": "mmol/L",
              "system": "http://unitsofmeasure.org"
            }
          }
        ],
        "text": {
          "status": "generated",
          "div": "<div xmlns=\"http://www.w3.org/1999/xhtml\"><table class=\"hl7__eu__lab__report\"><tr><th>Test</th><th>12-Oct-2021</th><th>Reference&#xA0;Range</th><th>Unit</th></tr><tr><td>Potassium [Moles/volume] in Serum or Plasma</td><td>4.4</td><td>3.5 - 5.1</td><td></td><td>mmol/L</td></tr></table></div>"
        },
        "status": "final",
        "subject": {
          "reference": "urn:uuid:16fa71bf-57b6-4543-90c3-0c71512bb8fc",
          "display": "Meaghan Neary"
        },
        "effectiveDateTime": "2021-10-11T22:11:04Z",
        "specimen": {
          "reference": "urn:uuid:f4411a49-9acf-4764-aa94-2262c2c2279d"
        }
      }
    },
    {
      "fullUrl": "urn:uuid:ad8f4d6a-599d-4cab-851e-f4e241db8857",
      "resource": {
        "resourceType": "Observation",
        "id": "ad8f4d6a-599d-4cab-851e-f4e241db8857",
        "meta": {
          "profile": [
            "http://hl7.eu/fhir/laboratory/StructureDefinition/Observation-resultslab-eu-lab"
          ]
        },
        "performer": [
          {
            "display": "The Central European Lab"
          }
        ],
        "category": [
          {
            "coding": [
              {
                "system": "http://terminology.hl7.org/CodeSystem/observation-category",
                "code": "laboratory"
              }
            ]
          }
        ],
        "code": {
          "coding": [
            {
              "code": "2075-0",
              "system": "http://loinc.org",
              "display": "Chloride [Moles/volume] in Serum or Plasma"
            }
          ],
          "text": "Chloride [Moles/volume] in Serum or Plasma"
        },
        "valueQuantity": {
          "system": "http://unitsofmeasure.org",
          "value": 104.9,
          "unit": "mmol/L",
          "code": "mmol/L"
        },
        "referenceRange": [
          {
            "low": {
              "value": 98,
              "code": "mmol/L",
              "system": "http://unitsofmeasure.org"
            }
          },
          {
            "high": {
              "value": 108,
              "code": "mmol/L",
              "system": "http://unitsofmeasure.org"
            }
          }
        ],
        "text": {
          "status": "generated",
          "div": "<div xmlns=\"http://www.w3.org/1999/xhtml\"><table class=\"hl7__eu__lab__report\"><tr><th>Test</th><th>12-Oct-2021</th><th>Reference&#xA0;Range</th><th>Unit</th></tr><tr><td>Chloride [Moles/volume] in Serum or Plasma</td><td>104.9</td><td>98 - 108</td><td></td><td>mmol/L</td></tr></table></div>"
        },
        "status": "final",
        "subject": {
          "reference": "urn:uuid:16fa71bf-57b6-4543-90c3-0c71512bb8fc",
          "display": "Meaghan Neary"
        },
        "effectiveDateTime": "2021-10-11T22:11:04Z",
        "specimen": {
          "reference": "urn:uuid:f4411a49-9acf-4764-aa94-2262c2c2279d"
        }
      }
    },
    {
      "fullUrl": "urn:uuid:d94dfe38-a6f4-4602-9de7-e18f8d62fbae",
      "resource": {
        "resourceType": "Observation",
        "id": "d94dfe38-a6f4-4602-9de7-e18f8d62fbae",
        "meta": {
          "profile": [
            "http://hl7.eu/fhir/laboratory/StructureDefinition/Observation-resultslab-eu-lab"
          ]
        },
        "performer": [
          {
            "display": "The Central European Lab"
          }
        ],
        "category": [
          {
            "coding": [
              {
                "system": "http://terminology.hl7.org/CodeSystem/observation-category",
                "code": "laboratory"
              }
            ]
          }
        ],
        "code": {
          "coding": [
            {
              "code": "2028-9",
              "system": "http://loinc.org",
              "display": "Carbon dioxide, total [Moles/volume] in Serum or Plasma"
            }
          ],
          "text": "Carbon dioxide, total [Moles/volume] in Serum or Plasma"
        },
        "valueQuantity": {
          "system": "http://unitsofmeasure.org",
          "value": 24.2,
          "unit": "mmol/L",
          "code": "mmol/L"
        },
        "referenceRange": [
          {
            "low": {
              "value": 22,
              "code": "mmol/L",
              "system": "http://unitsofmeasure.org"
            }
          },
          {
            "high": {
              "value": 32,
              "code": "mmol/L",
              "system": "http://unitsofmeasure.org"
            }
          }
        ],
        "text": {
          "status": "generated",
          "div": "<div xmlns=\"http://www.w3.org/1999/xhtml\"><table class=\"hl7__eu__lab__report\"><tr><th>Test</th><th>12-Oct-2021</th><th>Reference&#xA0;Range</th><th>Unit</th></tr><tr><td>Carbon dioxide, total [Moles/volume] in Serum or Plasma</td><td>24.2</td><td>22 - 32</td><td></td><td>mmol/L</td></tr></table></div>"
        },
        "status": "final",
        "subject": {
          "reference": "urn:uuid:16fa71bf-57b6-4543-90c3-0c71512bb8fc",
          "display": "Meaghan Neary"
        },
        "effectiveDateTime": "2021-10-11T22:11:04Z",
        "specimen": {
          "reference": "urn:uuid:f4411a49-9acf-4764-aa94-2262c2c2279d"
        }
      }
    },
    {
      "fullUrl": "urn:uuid:f509963b-e8a6-449f-9a36-bf1d073a4d32",
      "resource": {
        "resourceType": "Observation",
        "id": "f509963b-e8a6-449f-9a36-bf1d073a4d32",
        "meta": {
          "profile": [
            "http://hl7.eu/fhir/laboratory/StructureDefinition/Observation-resultslab-eu-lab"
          ]
        },
        "performer": [
          {
            "display": "The Central European Lab"
          }
        ],
        "category": [
          {
            "coding": [
              {
                "system": "http://terminology.hl7.org/CodeSystem/observation-category",
                "code": "laboratory"
              }
            ]
          }
        ],
        "code": {
          "coding": [
            {
              "code": "5767-9",
              "system": "http://loinc.org",
              "display": "Appearance of Urine"
            }
          ],
          "text": "Appearance of Urine"
        },
        "text": {
          "status": "generated",
          "div": "<div xmlns=\"http://www.w3.org/1999/xhtml\"><table class=\"hl7__eu__lab__report\"><tr><th>Test</th><th>12-Oct-2021</th><th>Reference&#xA0;Range</th><th>Unit</th></tr><tr><td>Appearance of Urine</td></tr></table></div>"
        },
        "status": "final",
        "subject": {
          "reference": "urn:uuid:16fa71bf-57b6-4543-90c3-0c71512bb8fc",
          "display": "Meaghan Neary"
        },
        "effectiveDateTime": "2021-10-11T22:11:04Z",
        "specimen": {
          "reference": "urn:uuid:99e5f335-ca66-44d4-b35d-a31a9acfcf7c"
        }
      }
    },
    {
      "fullUrl": "urn:uuid:3206fbbf-6bb9-494f-8ed9-29b896ed3f0f",
      "resource": {
        "resourceType": "Observation",
        "id": "3206fbbf-6bb9-494f-8ed9-29b896ed3f0f",
        "meta": {
          "profile": [
            "http://hl7.eu/fhir/laboratory/StructureDefinition/Observation-resultslab-eu-lab"
          ]
        },
        "performer": [
          {
            "display": "The Central European Lab"
          }
        ],
        "category": [
          {
            "coding": [
              {
                "system": "http://terminology.hl7.org/CodeSystem/observation-category",
                "code": "laboratory"
              }
            ]
          }
        ],
        "code": {
          "coding": [
            {
              "code": "34533-0",
              "system": "http://loinc.org",
              "display": "Odor of Urine"
            }
          ],
          "text": "Odor of Urine"
        },
        "text": {
          "status": "generated",
          "div": "<div xmlns=\"http://www.w3.org/1999/xhtml\"><table class=\"hl7__eu__lab__report\"><tr><th>Test</th><th>12-Oct-2021</th><th>Reference&#xA0;Range</th><th>Unit</th></tr><tr><td>Odor of Urine</td></tr></table></div>"
        },
        "status": "final",
        "subject": {
          "reference": "urn:uuid:16fa71bf-57b6-4543-90c3-0c71512bb8fc",
          "display": "Meaghan Neary"
        },
        "effectiveDateTime": "2021-10-11T22:11:04Z",
        "specimen": {
          "reference": "urn:uuid:99e5f335-ca66-44d4-b35d-a31a9acfcf7c"
        }
      }
    },
    {
      "fullUrl": "urn:uuid:0b5960c1-45d8-4709-ab23-447390307930",
      "resource": {
        "resourceType": "Observation",
        "id": "0b5960c1-45d8-4709-ab23-447390307930",
        "meta": {
          "profile": [
            "http://hl7.eu/fhir/laboratory/StructureDefinition/Observation-resultslab-eu-lab"
          ]
        },
        "performer": [
          {
            "display": "The Central European Lab"
          }
        ],
        "category": [
          {
            "coding": [
              {
                "system": "http://terminology.hl7.org/CodeSystem/observation-category",
                "code": "laboratory"
              }
            ]
          }
        ],
        "code": {
          "coding": [
            {
              "code": "32167-9",
              "system": "http://loinc.org",
              "display": "Clarity of Urine"
            }
          ],
          "text": "Clarity of Urine"
        },
        "text": {
          "status": "generated",
          "div": "<div xmlns=\"http://www.w3.org/1999/xhtml\"><table class=\"hl7__eu__lab__report\"><tr><th>Test</th><th>12-Oct-2021</th><th>Reference&#xA0;Range</th><th>Unit</th></tr><tr><td>Clarity of Urine</td></tr></table></div>"
        },
        "status": "final",
        "subject": {
          "reference": "urn:uuid:16fa71bf-57b6-4543-90c3-0c71512bb8fc",
          "display": "Meaghan Neary"
        },
        "effectiveDateTime": "2021-10-11T22:11:04Z",
        "specimen": {
          "reference": "urn:uuid:99e5f335-ca66-44d4-b35d-a31a9acfcf7c"
        }
      }
    },
    {
      "fullUrl": "urn:uuid:c5fe0079-9972-465c-8dc0-87fb0942b51a",
      "resource": {
        "resourceType": "Observation",
        "id": "c5fe0079-9972-465c-8dc0-87fb0942b51a",
        "meta": {
          "profile": [
            "http://hl7.eu/fhir/laboratory/StructureDefinition/Observation-resultslab-eu-lab"
          ]
        },
        "performer": [
          {
            "display": "The Central European Lab"
          }
        ],
        "category": [
          {
            "coding": [
              {
                "system": "http://terminology.hl7.org/CodeSystem/observation-category",
                "code": "laboratory"
              }
            ]
          }
        ],
        "code": {
          "coding": [
            {
              "code": "5778-6",
              "system": "http://loinc.org",
              "display": "Color of Urine"
            }
          ],
          "text": "Color of Urine"
        },
        "text": {
          "status": "generated",
          "div": "<div xmlns=\"http://www.w3.org/1999/xhtml\"><table class=\"hl7__eu__lab__report\"><tr><th>Test</th><th>12-Oct-2021</th><th>Reference&#xA0;Range</th><th>Unit</th></tr><tr><td>Color of Urine</td></tr></table></div>"
        },
        "status": "final",
        "subject": {
          "reference": "urn:uuid:16fa71bf-57b6-4543-90c3-0c71512bb8fc",
          "display": "Meaghan Neary"
        },
        "effectiveDateTime": "2021-10-11T22:11:04Z",
        "specimen": {
          "reference": "urn:uuid:99e5f335-ca66-44d4-b35d-a31a9acfcf7c"
        }
      }
    },
    {
      "fullUrl": "urn:uuid:87afd4eb-95bb-4f47-b70b-1f83db70ae34",
      "resource": {
        "resourceType": "Observation",
        "id": "87afd4eb-95bb-4f47-b70b-1f83db70ae34",
        "meta": {
          "profile": [
            "http://hl7.eu/fhir/laboratory/StructureDefinition/Observation-resultslab-eu-lab"
          ]
        },
        "performer": [
          {
            "display": "The Central European Lab"
          }
        ],
        "category": [
          {
            "coding": [
              {
                "system": "http://terminology.hl7.org/CodeSystem/observation-category",
                "code": "laboratory"
              }
            ]
          }
        ],
        "code": {
          "coding": [
            {
              "code": "5792-7",
              "system": "http://loinc.org",
              "display": "Glucose [Mass/volume] in Urine by Test strip"
            }
          ],
          "text": "Glucose [Mass/volume] in Urine by Test strip"
        },
        "valueQuantity": {
          "system": "http://unitsofmeasure.org",
          "value": 0.5,
          "unit": "mg/dL",
          "code": "mg/dL"
        },
        "referenceRange": [
          {
            "low": {
              "value": 0.8,
              "code": "mg/dL",
              "system": "http://unitsofmeasure.org"
            }
          },
          {
            "high": {
              "value": 0,
              "code": "mg/dL",
              "system": "http://unitsofmeasure.org"
            }
          }
        ],
        "interpretation": [
          {
            "coding": [
              {
                "code": "L",
                "system": "http://terminology.hl7.org/CodeSystem/v3-ObservationInterpretation",
                "display": "Low"
              }
            ]
          }
        ],
        "text": {
          "status": "generated",
          "div": "<div xmlns=\"http://www.w3.org/1999/xhtml\"><table class=\"hl7__eu__lab__report\"><tr><th>Test</th><th>12-Oct-2021</th><th>Reference&#xA0;Range</th><th>Unit</th></tr><tr><td>Glucose [Mass/volume] in Urine by Test strip</td><td>0.5</td><td>0.8 - 0</td><td>L</td><td>mg/dL</td></tr></table></div>"
        },
        "status": "final",
        "subject": {
          "reference": "urn:uuid:16fa71bf-57b6-4543-90c3-0c71512bb8fc",
          "display": "Meaghan Neary"
        },
        "effectiveDateTime": "2021-10-11T22:11:04Z",
        "specimen": {
          "reference": "urn:uuid:99e5f335-ca66-44d4-b35d-a31a9acfcf7c"
        }
      }
    },
    {
      "fullUrl": "urn:uuid:23949779-7af5-4322-b293-01eb065cd157",
      "resource": {
        "resourceType": "Observation",
        "id": "23949779-7af5-4322-b293-01eb065cd157",
        "meta": {
          "profile": [
            "http://hl7.eu/fhir/laboratory/StructureDefinition/Observation-resultslab-eu-lab"
          ]
        },
        "performer": [
          {
            "display": "The Central European Lab"
          }
        ],
        "category": [
          {
            "coding": [
              {
                "system": "http://terminology.hl7.org/CodeSystem/observation-category",
                "code": "laboratory"
              }
            ]
          }
        ],
        "code": {
          "coding": [
            {
              "code": "25428-4",
              "system": "http://loinc.org",
              "display": "Glucose [Presence] in Urine by Test strip"
            }
          ],
          "text": "Glucose [Presence] in Urine by Test strip"
        },
        "text": {
          "status": "generated",
          "div": "<div xmlns=\"http://www.w3.org/1999/xhtml\"><table class=\"hl7__eu__lab__report\"><tr><th>Test</th><th>12-Oct-2021</th><th>Reference&#xA0;Range</th><th>Unit</th></tr><tr><td>Glucose [Presence] in Urine by Test strip</td></tr></table></div>"
        },
        "status": "final",
        "subject": {
          "reference": "urn:uuid:16fa71bf-57b6-4543-90c3-0c71512bb8fc",
          "display": "Meaghan Neary"
        },
        "effectiveDateTime": "2021-10-11T22:11:04Z",
        "specimen": {
          "reference": "urn:uuid:99e5f335-ca66-44d4-b35d-a31a9acfcf7c"
        }
      }
    },
    {
      "fullUrl": "urn:uuid:361a6404-6cda-40da-91f2-c75671c2d231",
      "resource": {
        "resourceType": "Observation",
        "id": "361a6404-6cda-40da-91f2-c75671c2d231",
        "meta": {
          "profile": [
            "http://hl7.eu/fhir/laboratory/StructureDefinition/Observation-resultslab-eu-lab"
          ]
        },
        "performer": [
          {
            "display": "The Central European Lab"
          }
        ],
        "category": [
          {
            "coding": [
              {
                "system": "http://terminology.hl7.org/CodeSystem/observation-category",
                "code": "laboratory"
              }
            ]
          }
        ],
        "code": {
          "coding": [
            {
              "code": "20505-4",
              "system": "http://loinc.org",
              "display": "Bilirubin.total [Mass/volume] in Urine by Test strip"
            }
          ],
          "text": "Bilirubin.total [Mass/volume] in Urine by Test strip"
        },
        "valueQuantity": {
          "system": "http://unitsofmeasure.org",
          "value": 0.4,
          "unit": "mg/dL",
          "code": "mg/dL"
        },
        "referenceRange": [
          {
            "low": {
              "value": 0,
              "code": "mg/dL",
              "system": "http://unitsofmeasure.org"
            }
          },
          {
            "high": {
              "value": 1,
              "code": "mg/dL",
              "system": "http://unitsofmeasure.org"
            }
          }
        ],
        "text": {
          "status": "generated",
          "div": "<div xmlns=\"http://www.w3.org/1999/xhtml\"><table class=\"hl7__eu__lab__report\"><tr><th>Test</th><th>12-Oct-2021</th><th>Reference&#xA0;Range</th><th>Unit</th></tr><tr><td>Bilirubin.total [Mass/volume] in Urine by Test strip</td><td>0.4</td><td>0 - 1</td><td></td><td>mg/dL</td></tr></table></div>"
        },
        "status": "final",
        "subject": {
          "reference": "urn:uuid:16fa71bf-57b6-4543-90c3-0c71512bb8fc",
          "display": "Meaghan Neary"
        },
        "effectiveDateTime": "2021-10-11T22:11:04Z",
        "specimen": {
          "reference": "urn:uuid:99e5f335-ca66-44d4-b35d-a31a9acfcf7c"
        }
      }
    },
    {
      "fullUrl": "urn:uuid:740cfa7c-3151-4384-9a30-d3f63fec1c65",
      "resource": {
        "resourceType": "Observation",
        "id": "740cfa7c-3151-4384-9a30-d3f63fec1c65",
        "meta": {
          "profile": [
            "http://hl7.eu/fhir/laboratory/StructureDefinition/Observation-resultslab-eu-lab"
          ]
        },
        "performer": [
          {
            "display": "The Central European Lab"
          }
        ],
        "category": [
          {
            "coding": [
              {
                "system": "http://terminology.hl7.org/CodeSystem/observation-category",
                "code": "laboratory"
              }
            ]
          }
        ],
        "code": {
          "coding": [
            {
              "code": "5770-3",
              "system": "http://loinc.org",
              "display": "Bilirubin.total [Presence] in Urine by Test strip"
            }
          ],
          "text": "Bilirubin.total [Presence] in Urine by Test strip"
        },
        "text": {
          "status": "generated",
          "div": "<div xmlns=\"http://www.w3.org/1999/xhtml\"><table class=\"hl7__eu__lab__report\"><tr><th>Test</th><th>12-Oct-2021</th><th>Reference&#xA0;Range</th><th>Unit</th></tr><tr><td>Bilirubin.total [Presence] in Urine by Test strip</td></tr></table></div>"
        },
        "status": "final",
        "subject": {
          "reference": "urn:uuid:16fa71bf-57b6-4543-90c3-0c71512bb8fc",
          "display": "Meaghan Neary"
        },
        "effectiveDateTime": "2021-10-11T22:11:04Z",
        "specimen": {
          "reference": "urn:uuid:99e5f335-ca66-44d4-b35d-a31a9acfcf7c"
        }
      }
    },
    {
      "fullUrl": "urn:uuid:6d12999a-7313-457e-abf2-c1254c43f407",
      "resource": {
        "resourceType": "Observation",
        "id": "6d12999a-7313-457e-abf2-c1254c43f407",
        "meta": {
          "profile": [
            "http://hl7.eu/fhir/laboratory/StructureDefinition/Observation-resultslab-eu-lab"
          ]
        },
        "performer": [
          {
            "display": "The Central European Lab"
          }
        ],
        "category": [
          {
            "coding": [
              {
                "system": "http://terminology.hl7.org/CodeSystem/observation-category",
                "code": "laboratory"
              }
            ]
          }
        ],
        "code": {
          "coding": [
            {
              "code": "5797-6",
              "system": "http://loinc.org",
              "display": "Ketones [Mass/volume] in Urine by Test strip"
            }
          ],
          "text": "Ketones [Mass/volume] in Urine by Test strip"
        },
        "valueQuantity": {
          "system": "http://unitsofmeasure.org",
          "value": 16.2,
          "unit": "mg/dL",
          "code": "mg/dL"
        },
        "referenceRange": [
          {
            "low": {
              "value": 0,
              "code": "mg/dL",
              "system": "http://unitsofmeasure.org"
            }
          },
          {
            "high": {
              "value": 4,
              "code": "mg/dL",
              "system": "http://unitsofmeasure.org"
            }
          }
        ],
        "interpretation": [
          {
            "coding": [
              {
                "code": "H",
                "system": "http://terminology.hl7.org/CodeSystem/v3-ObservationInterpretation",
                "display": "High"
              }
            ]
          }
        ],
        "text": {
          "status": "generated",
          "div": "<div xmlns=\"http://www.w3.org/1999/xhtml\"><table class=\"hl7__eu__lab__report\"><tr><th>Test</th><th>12-Oct-2021</th><th>Reference&#xA0;Range</th><th>Unit</th></tr><tr><td>Ketones [Mass/volume] in Urine by Test strip</td><td>16.2</td><td>0 - 4</td><td>H</td><td>mg/dL</td></tr></table></div>"
        },
        "status": "final",
        "subject": {
          "reference": "urn:uuid:16fa71bf-57b6-4543-90c3-0c71512bb8fc",
          "display": "Meaghan Neary"
        },
        "effectiveDateTime": "2021-10-11T22:11:04Z",
        "specimen": {
          "reference": "urn:uuid:99e5f335-ca66-44d4-b35d-a31a9acfcf7c"
        }
      }
    },
    {
      "fullUrl": "urn:uuid:7450c45e-2225-4f5e-851b-7cf7a560ea30",
      "resource": {
        "resourceType": "Observation",
        "id": "7450c45e-2225-4f5e-851b-7cf7a560ea30",
        "meta": {
          "profile": [
            "http://hl7.eu/fhir/laboratory/StructureDefinition/Observation-resultslab-eu-lab"
          ]
        },
        "performer": [
          {
            "display": "The Central European Lab"
          }
        ],
        "category": [
          {
            "coding": [
              {
                "system": "http://terminology.hl7.org/CodeSystem/observation-category",
                "code": "laboratory"
              }
            ]
          }
        ],
        "code": {
          "coding": [
            {
              "code": "2514-8",
              "system": "http://loinc.org",
              "display": "Ketones [Presence] in Urine by Test strip"
            }
          ],
          "text": "Ketones [Presence] in Urine by Test strip"
        },
        "text": {
          "status": "generated",
          "div": "<div xmlns=\"http://www.w3.org/1999/xhtml\"><table class=\"hl7__eu__lab__report\"><tr><th>Test</th><th>12-Oct-2021</th><th>Reference&#xA0;Range</th><th>Unit</th></tr><tr><td>Ketones [Presence] in Urine by Test strip</td></tr></table></div>"
        },
        "status": "final",
        "subject": {
          "reference": "urn:uuid:16fa71bf-57b6-4543-90c3-0c71512bb8fc",
          "display": "Meaghan Neary"
        },
        "effectiveDateTime": "2021-10-11T22:11:04Z",
        "specimen": {
          "reference": "urn:uuid:99e5f335-ca66-44d4-b35d-a31a9acfcf7c"
        }
      }
    },
    {
      "fullUrl": "urn:uuid:39cc4cba-edd0-42c8-95c8-005c60f562ef",
      "resource": {
        "resourceType": "Observation",
        "id": "39cc4cba-edd0-42c8-95c8-005c60f562ef",
        "meta": {
          "profile": [
            "http://hl7.eu/fhir/laboratory/StructureDefinition/Observation-resultslab-eu-lab"
          ]
        },
        "performer": [
          {
            "display": "The Central European Lab"
          }
        ],
        "category": [
          {
            "coding": [
              {
                "system": "http://terminology.hl7.org/CodeSystem/observation-category",
                "code": "laboratory"
              }
            ]
          }
        ],
        "code": {
          "coding": [
            {
              "code": "5811-5",
              "system": "http://loinc.org",
              "display": "Specific gravity of Urine by Test strip"
            }
          ],
          "text": "Specific gravity of Urine by Test strip"
        },
        "valueQuantity": {
          "system": "http://unitsofmeasure.org",
          "value": 1,
          "unit": "{nominal}",
          "code": "{nominal}"
        },
        "referenceRange": [
          {
            "low": {
              "value": 1.005,
              "code": "g/mL",
              "system": "http://unitsofmeasure.org"
            }
          },
          {
            "high": {
              "value": 1.03,
              "code": "g/mL",
              "system": "http://unitsofmeasure.org"
            }
          }
        ],
        "interpretation": [
          {
            "coding": [
              {
                "code": "L",
                "system": "http://terminology.hl7.org/CodeSystem/v3-ObservationInterpretation",
                "display": "Low"
              }
            ]
          }
        ],
        "text": {
          "status": "generated",
          "div": "<div xmlns=\"http://www.w3.org/1999/xhtml\"><table class=\"hl7__eu__lab__report\"><tr><th>Test</th><th>12-Oct-2021</th><th>Reference&#xA0;Range</th><th>Unit</th></tr><tr><td>Specific gravity of Urine by Test strip</td><td>1.0</td><td>1.005 - 1.03</td><td>L</td><td>{nominal}</td></tr></table></div>"
        },
        "status": "final",
        "subject": {
          "reference": "urn:uuid:16fa71bf-57b6-4543-90c3-0c71512bb8fc",
          "display": "Meaghan Neary"
        },
        "effectiveDateTime": "2021-10-11T22:11:04Z",
        "specimen": {
          "reference": "urn:uuid:99e5f335-ca66-44d4-b35d-a31a9acfcf7c"
        }
      }
    },
    {
      "fullUrl": "urn:uuid:d56082a3-b565-47de-81ed-c95664e690f3",
      "resource": {
        "resourceType": "Observation",
        "id": "d56082a3-b565-47de-81ed-c95664e690f3",
        "meta": {
          "profile": [
            "http://hl7.eu/fhir/laboratory/StructureDefinition/Observation-resultslab-eu-lab"
          ]
        },
        "performer": [
          {
            "display": "The Central European Lab"
          }
        ],
        "category": [
          {
            "coding": [
              {
                "system": "http://terminology.hl7.org/CodeSystem/observation-category",
                "code": "laboratory"
              }
            ]
          }
        ],
        "code": {
          "coding": [
            {
              "code": "5803-2",
              "system": "http://loinc.org",
              "display": "pH of Urine by Test strip"
            }
          ],
          "text": "pH of Urine by Test strip"
        },
        "valueQuantity": {
          "system": "http://unitsofmeasure.org",
          "value": 6.5,
          "unit": "pH",
          "code": "pH"
        },
        "referenceRange": [
          {
            "low": {
              "value": 4.6,
              "code": "pH",
              "system": "http://unitsofmeasure.org"
            }
          },
          {
            "high": {
              "value": 7,
              "code": "pH",
              "system": "http://unitsofmeasure.org"
            }
          }
        ],
        "text": {
          "status": "generated",
          "div": "<div xmlns=\"http://www.w3.org/1999/xhtml\"><table class=\"hl7__eu__lab__report\"><tr><th>Test</th><th>12-Oct-2021</th><th>Reference&#xA0;Range</th><th>Unit</th></tr><tr><td>pH of Urine by Test strip</td><td>6.5</td><td>4.6 - 7</td><td></td><td>pH</td></tr></table></div>"
        },
        "status": "final",
        "subject": {
          "reference": "urn:uuid:16fa71bf-57b6-4543-90c3-0c71512bb8fc",
          "display": "Meaghan Neary"
        },
        "effectiveDateTime": "2021-10-11T22:11:04Z",
        "specimen": {
          "reference": "urn:uuid:99e5f335-ca66-44d4-b35d-a31a9acfcf7c"
        }
      }
    },
    {
      "fullUrl": "urn:uuid:0c043126-2b82-44a0-a10f-56b7e1469c13",
      "resource": {
        "resourceType": "Observation",
        "id": "0c043126-2b82-44a0-a10f-56b7e1469c13",
        "meta": {
          "profile": [
            "http://hl7.eu/fhir/laboratory/StructureDefinition/Observation-resultslab-eu-lab"
          ]
        },
        "performer": [
          {
            "display": "The Central European Lab"
          }
        ],
        "category": [
          {
            "coding": [
              {
                "system": "http://terminology.hl7.org/CodeSystem/observation-category",
                "code": "laboratory"
              }
            ]
          }
        ],
        "code": {
          "coding": [
            {
              "code": "5804-0",
              "system": "http://loinc.org",
              "display": "Protein [Mass/volume] in Urine by Test strip"
            }
          ],
          "text": "Protein [Mass/volume] in Urine by Test strip"
        },
        "valueQuantity": {
          "system": "http://unitsofmeasure.org",
          "value": 221.3,
          "unit": "mg/dL",
          "code": "mg/dL"
        },
        "referenceRange": [
          {
            "low": {
              "value": 0,
              "code": "mg/dL",
              "system": "http://unitsofmeasure.org"
            }
          },
          {
            "high": {
              "value": 14,
              "code": "mg/dL",
              "system": "http://unitsofmeasure.org"
            }
          }
        ],
        "interpretation": [
          {
            "coding": [
              {
                "code": "H",
                "system": "http://terminology.hl7.org/CodeSystem/v3-ObservationInterpretation",
                "display": "High"
              }
            ]
          }
        ],
        "text": {
          "status": "generated",
          "div": "<div xmlns=\"http://www.w3.org/1999/xhtml\"><table class=\"hl7__eu__lab__report\"><tr><th>Test</th><th>12-Oct-2021</th><th>Reference&#xA0;Range</th><th>Unit</th></tr><tr><td>Protein [Mass/volume] in Urine by Test strip</td><td>221.3</td><td>0 - 14</td><td>H</td><td>mg/dL</td></tr></table></div>"
        },
        "status": "final",
        "subject": {
          "reference": "urn:uuid:16fa71bf-57b6-4543-90c3-0c71512bb8fc",
          "display": "Meaghan Neary"
        },
        "effectiveDateTime": "2021-10-11T22:11:04Z",
        "specimen": {
          "reference": "urn:uuid:99e5f335-ca66-44d4-b35d-a31a9acfcf7c"
        }
      }
    },
    {
      "fullUrl": "urn:uuid:79474321-ca33-4627-b266-d5bece33acc2",
      "resource": {
        "resourceType": "Observation",
        "id": "79474321-ca33-4627-b266-d5bece33acc2",
        "meta": {
          "profile": [
            "http://hl7.eu/fhir/laboratory/StructureDefinition/Observation-resultslab-eu-lab"
          ]
        },
        "performer": [
          {
            "display": "The Central European Lab"
          }
        ],
        "category": [
          {
            "coding": [
              {
                "system": "http://terminology.hl7.org/CodeSystem/observation-category",
                "code": "laboratory"
              }
            ]
          }
        ],
        "code": {
          "coding": [
            {
              "code": "20454-5",
              "system": "http://loinc.org",
              "display": "Protein [Presence] in Urine by Test strip"
            }
          ],
          "text": "Protein [Presence] in Urine by Test strip"
        },
        "text": {
          "status": "generated",
          "div": "<div xmlns=\"http://www.w3.org/1999/xhtml\"><table class=\"hl7__eu__lab__report\"><tr><th>Test</th><th>12-Oct-2021</th><th>Reference&#xA0;Range</th><th>Unit</th></tr><tr><td>Protein [Presence] in Urine by Test strip</td></tr></table></div>"
        },
        "status": "final",
        "subject": {
          "reference": "urn:uuid:16fa71bf-57b6-4543-90c3-0c71512bb8fc",
          "display": "Meaghan Neary"
        },
        "effectiveDateTime": "2021-10-11T22:11:04Z",
        "specimen": {
          "reference": "urn:uuid:99e5f335-ca66-44d4-b35d-a31a9acfcf7c"
        }
      }
    },
    {
      "fullUrl": "urn:uuid:3b1d7f79-72dd-4d6b-984c-1cd372aa40c0",
      "resource": {
        "resourceType": "Observation",
        "id": "3b1d7f79-72dd-4d6b-984c-1cd372aa40c0",
        "meta": {
          "profile": [
            "http://hl7.eu/fhir/laboratory/StructureDefinition/Observation-resultslab-eu-lab"
          ]
        },
        "performer": [
          {
            "display": "The Central European Lab"
          }
        ],
        "category": [
          {
            "coding": [
              {
                "system": "http://terminology.hl7.org/CodeSystem/observation-category",
                "code": "laboratory"
              }
            ]
          }
        ],
        "code": {
          "coding": [
            {
              "code": "5802-4",
              "system": "http://loinc.org",
              "display": "Nitrite [Presence] in Urine by Test strip"
            }
          ],
          "text": "Nitrite [Presence] in Urine by Test strip"
        },
        "text": {
          "status": "generated",
          "div": "<div xmlns=\"http://www.w3.org/1999/xhtml\"><table class=\"hl7__eu__lab__report\"><tr><th>Test</th><th>12-Oct-2021</th><th>Reference&#xA0;Range</th><th>Unit</th></tr><tr><td>Nitrite [Presence] in Urine by Test strip</td></tr></table></div>"
        },
        "status": "final",
        "subject": {
          "reference": "urn:uuid:16fa71bf-57b6-4543-90c3-0c71512bb8fc",
          "display": "Meaghan Neary"
        },
        "effectiveDateTime": "2021-10-11T22:11:04Z",
        "specimen": {
          "reference": "urn:uuid:99e5f335-ca66-44d4-b35d-a31a9acfcf7c"
        }
      }
    },
    {
      "fullUrl": "urn:uuid:3777e1f4-a588-456d-bf35-6411d62e0f49",
      "resource": {
        "resourceType": "Observation",
        "id": "3777e1f4-a588-456d-bf35-6411d62e0f49",
        "meta": {
          "profile": [
            "http://hl7.eu/fhir/laboratory/StructureDefinition/Observation-resultslab-eu-lab"
          ]
        },
        "performer": [
          {
            "display": "The Central European Lab"
          }
        ],
        "category": [
          {
            "coding": [
              {
                "system": "http://terminology.hl7.org/CodeSystem/observation-category",
                "code": "laboratory"
              }
            ]
          }
        ],
        "code": {
          "coding": [
            {
              "code": "5794-3",
              "system": "http://loinc.org",
              "display": "Hemoglobin [Presence] in Urine by Test strip"
            }
          ],
          "text": "Hemoglobin [Presence] in Urine by Test strip"
        },
        "text": {
          "status": "generated",
          "div": "<div xmlns=\"http://www.w3.org/1999/xhtml\"><table class=\"hl7__eu__lab__report\"><tr><th>Test</th><th>12-Oct-2021</th><th>Reference&#xA0;Range</th><th>Unit</th></tr><tr><td>Hemoglobin [Presence] in Urine by Test strip</td></tr></table></div>"
        },
        "status": "final",
        "subject": {
          "reference": "urn:uuid:16fa71bf-57b6-4543-90c3-0c71512bb8fc",
          "display": "Meaghan Neary"
        },
        "effectiveDateTime": "2021-10-11T22:11:04Z",
        "specimen": {
          "reference": "urn:uuid:99e5f335-ca66-44d4-b35d-a31a9acfcf7c"
        }
      }
    },
    {
      "fullUrl": "urn:uuid:1b17479d-fd8d-43ef-bb77-0344d78f9e22",
      "resource": {
        "resourceType": "Observation",
        "id": "1b17479d-fd8d-43ef-bb77-0344d78f9e22",
        "meta": {
          "profile": [
            "http://hl7.eu/fhir/laboratory/StructureDefinition/Observation-resultslab-eu-lab"
          ]
        },
        "performer": [
          {
            "display": "The Central European Lab"
          }
        ],
        "category": [
          {
            "coding": [
              {
                "system": "http://terminology.hl7.org/CodeSystem/observation-category",
                "code": "laboratory"
              }
            ]
          }
        ],
        "code": {
          "coding": [
            {
              "code": "5799-2",
              "system": "http://loinc.org",
              "display": "Leukocyte esterase [Presence] in Urine by Test strip"
            }
          ],
          "text": "Leukocyte esterase [Presence] in Urine by Test strip"
        },
        "text": {
          "status": "generated",
          "div": "<div xmlns=\"http://www.w3.org/1999/xhtml\"><table class=\"hl7__eu__lab__report\"><tr><th>Test</th><th>12-Oct-2021</th><th>Reference&#xA0;Range</th><th>Unit</th></tr><tr><td>Leukocyte esterase [Presence] in Urine by Test strip</td></tr></table></div>"
        },
        "status": "final",
        "subject": {
          "reference": "urn:uuid:16fa71bf-57b6-4543-90c3-0c71512bb8fc",
          "display": "Meaghan Neary"
        },
        "effectiveDateTime": "2021-10-11T22:11:04Z",
        "specimen": {
          "reference": "urn:uuid:99e5f335-ca66-44d4-b35d-a31a9acfcf7c"
        }
      }
    },
    {
      "fullUrl": "urn:uuid:6f3e6f71-64e3-42a2-b733-4194cb54b9cd",
      "resource": {
        "resourceType": "Observation",
        "id": "6f3e6f71-64e3-42a2-b733-4194cb54b9cd",
        "meta": {
          "profile": [
            "http://hl7.eu/fhir/laboratory/StructureDefinition/Observation-resultslab-eu-lab"
          ]
        },
        "performer": [
          {
            "display": "The Central European Lab"
          }
        ],
        "category": [
          {
            "coding": [
              {
                "system": "http://terminology.hl7.org/CodeSystem/observation-category",
                "code": "laboratory"
              }
            ]
          }
        ],
        "code": {
          "coding": [
            {
              "code": "4548-4",
              "system": "http://loinc.org",
              "display": "Hemoglobin A1c/Hemoglobin.total in Blood"
            }
          ],
          "text": "Hemoglobin A1c/Hemoglobin.total in Blood"
        },
        "valueQuantity": {
          "system": "http://unitsofmeasure.org",
          "value": 3.4,
          "unit": "%",
          "code": "%"
        },
        "referenceRange": [
          {
            "low": {
              "value": 4,
              "code": "%",
              "system": "http://unitsofmeasure.org"
            }
          },
          {
            "high": {
              "value": 6.4,
              "code": "%",
              "system": "http://unitsofmeasure.org"
            }
          }
        ],
        "interpretation": [
          {
            "coding": [
              {
                "code": "L",
                "system": "http://terminology.hl7.org/CodeSystem/v3-ObservationInterpretation",
                "display": "Low"
              }
            ]
          }
        ],
        "text": {
          "status": "generated",
          "div": "<div xmlns=\"http://www.w3.org/1999/xhtml\"><table class=\"hl7__eu__lab__report\"><tr><th>Test</th><th>12-Oct-2021</th><th>Reference&#xA0;Range</th><th>Unit</th></tr><tr><td>Hemoglobin A1c/Hemoglobin.total in Blood</td><td>3.4</td><td>4 - 6.4</td><td>L</td><td>%</td></tr></table></div>"
        },
        "status": "final",
        "subject": {
          "reference": "urn:uuid:16fa71bf-57b6-4543-90c3-0c71512bb8fc",
          "display": "Meaghan Neary"
        },
        "effectiveDateTime": "2021-10-11T22:11:04Z",
        "specimen": {
          "reference": "urn:uuid:3c13091f-06c3-47ed-9f27-1f7fbf370998"
        }
      }
    },
    {
      "fullUrl": "urn:uuid:8b489bdb-105b-4fd6-9613-cb994c79d776",
      "resource": {
        "resourceType": "Device",
        "id": "8b489bdb-105b-4fd6-9613-cb994c79d776",
        "deviceName": [
          {
            "name": "SYNDERAI Synthetic Generator",
            "type": "manufacturer-name"
          }
        ],
        "version": [
          {
            "value": "5.0"
          }
        ],
        "text": {
          "status": "generated",
          "div": "<div xmlns=\"http://www.w3.org/1999/xhtml\">SYNDERAI Synthetic Generator v5.0</div>"
        },
        "status": "active\"",
        "distinctIdentifier": "synderai-generator-50",
        "manufacturer": "SYNDERAI Project"
      }
    },
    {
      "fullUrl": "urn:uuid:e6816959-1a1a-4f71-8163-ee8ee8a8b451",
      "resource": {
        "resourceType": "Provenance",
        "id": "e6816959-1a1a-4f71-8163-ee8ee8a8b451",
        "target": [
          {
            "reference": "Patient/16fa71bf-57b6-4543-90c3-0c71512bb8fc"
          },
          {
            "reference": "Bundle/4327ac42-6d53-431e-bc5a-0591a5e30dad"
          },
          {
            "reference": "Composition/11a942be-a119-46c0-b14c-ca42c53dc3cf"
          },
          {
            "reference": "PractitionerRole/a98beed8-2440-4dbf-8d9f-c94fdcd7738f"
          },
          {
            "reference": "Practitioner/616802ec-8fab-46d4-92d8-738f72413f66"
          },
          {
            "reference": "PractitionerRole/2f65563e-5aef-4a7a-b4ba-45ef76d2e6a0"
          },
          {
            "reference": "Organization/eabe612b-6cf1-42d5-a967-9bacbc44d3e3"
          }
        ],
        "activity": {
          "text": "Synthetic Example Data Generation"
        },
        "policy": [
          "https://synderai.net/synderai-synthetic-data-policy"
        ],
        "agent": [
          {
            "type": {
              "text": "author"
            },
            "who": {
              "reference": "Device/8b489bdb-105b-4fd6-9613-cb994c79d776"
            }
          }
        ],
        "reason": [
          {
            "text": "Interoperability Testing and Training (non-clinical use)"
          }
        ],
        "text": {
          "status": "generated",
          "div": "<div xmlns=\"http://www.w3.org/1999/xhtml\">Provenance for SYNDERAI Synthetic Example Data Resource</div>"
        },
        "recorded": "2021-10-12T00:11:04Z"
      }
    },
    {
      "fullUrl": "urn:uuid:a98beed8-2440-4dbf-8d9f-c94fdcd7738f",
      "resource": {
        "resourceType": "PractitionerRole",
        "id": "a98beed8-2440-4dbf-8d9f-c94fdcd7738f",
        "meta": {
          "profile": [
            "http://hl7.eu/fhir/base/StructureDefinition/practitionerRole-eu"
          ]
        },
        "text": {
          "status": "generated",
          "div": "<div xmlns=\"http://www.w3.org/1999/xhtml\">Laboratory Role Id: a98beed8-2440-4dbf-8d9f-c94fdcd7738f</div>"
        },
        "practitioner": {
          "reference": "urn:uuid:616802ec-8fab-46d4-92d8-738f72413f66"
        }
      }
    },
    {
      "fullUrl": "urn:uuid:616802ec-8fab-46d4-92d8-738f72413f66",
      "resource": {
        "resourceType": "Practitioner",
        "id": "616802ec-8fab-46d4-92d8-738f72413f66",
        "meta": {
          "profile": [
            "http://hl7.eu/fhir/base/StructureDefinition/practitioner-eu"
          ]
        },
        "identifier": [
          {
            "assigner": {
              "display": "HL7 Europe"
            },
            "system": "urn:oid:2.16.840.1.113883.2.51.999",
            "value": "0ce47951-c52b-40ec-9e55-dbbee6f80d77"
          }
        ],
        "name": [
          {
            "prefix": [
              "dr"
            ],
            "given": [
              "Ex"
            ],
            "family": "Ample"
          }
        ],
        "address": [
          {
            "line": [
              "Laboratoire Central Europenne",
              "Boulevard du Jardin Botanique 32"
            ],
            "postalCode": "1000",
            "city": "Brussels",
            "country": "Belgium"
          }
        ],
        "text": {
          "status": "generated",
          "div": "<div xmlns=\"http://www.w3.org/1999/xhtml\">Laboratory: Laboratoire Central Europenne, 1000 Brussels, Belgium</div>"
        }
      }
    }
  ],
  "type": "document",
  "timestamp": "2021-10-12T00:11:04Z"
}
