{
  "resourceType": "Bundle",
  "id": "5cd36168-5163-4ccb-b1a3-7fb0666f98bc",
  "meta": {
    "profile": [
      "http://hl7.eu/fhir/laboratory/StructureDefinition/Bundle-eu-lab"
    ]
  },
  "identifier": {
    "assigner": {
      "display": "HL7 Europe"
    },
    "system": "urn:oid:2.16.840.1.113883.2.51.999",
    "value": "bf5d72e9-1b5c-4957-bdd0-f26c0770f22b"
  },
  "entry": [
    {
      "fullUrl": "urn:uuid:451e0d42-7039-486a-8854-546ad880c46c",
      "resource": {
        "resourceType": "Composition",
        "id": "451e0d42-7039-486a-8854-546ad880c46c",
        "meta": {
          "profile": [
            "http://hl7.eu/fhir/laboratory/StructureDefinition/Composition-eu-lab"
          ]
        },
        "identifier": {
          "assigner": {
            "display": "HL7 Europe"
          },
          "system": "urn:oid:2.16.840.1.113883.2.51.999",
          "value": "6a740d81-301a-4141-8aa1-13db3b93627e"
        },
        "author": [
          {
            "reference": "urn:uuid:8e528a25-b4f7-4d43-adf4-e3dc0cff244e"
          }
        ],
        "category": [
          {
            "coding": [
              {
                "code": "26436-6",
                "system": "http://loinc.org",
                "display": "Laboratory studies (set)"
              }
            ]
          }
        ],
        "type": {
          "coding": [
            {
              "code": "11502-2",
              "system": "http://loinc.org",
              "display": "Laboratory report"
            }
          ],
          "text": "Laboratory Report"
        },
        "section": [
          {
            "code": {
              "coding": [
                {
                  "code": "26436-6",
                  "system": "http://loinc.org",
                  "display": "Laboratory studies (set)"
                }
              ],
              "text": "Laboratory studies"
            },
            "section": [
              {
                "code": {
                  "coding": [
                    {
                      "code": "$18719-5",
                      "system": "http://loinc.org",
                      "display": "Chemistry studies (set)"
                    }
                  ],
                  "text": "Chemistry"
                },
                "entry": [
                  {
                    "reference": "urn:uuid:8df29f3c-2f36-4d8d-83b0-3da960f7b971"
                  },
                  {
                    "reference": "urn:uuid:4b10b261-212b-4925-bb89-6880117b7ae1"
                  },
                  {
                    "reference": "urn:uuid:7b05e56c-ae65-45cd-9c0c-bc52d4f8bfc0"
                  },
                  {
                    "reference": "urn:uuid:65bdaf61-41f4-4ac5-9cb3-6c631a1b0de1"
                  },
                  {
                    "reference": "urn:uuid:6da0d6cf-3d7b-4a8c-a692-5de83c06d38e"
                  },
                  {
                    "reference": "urn:uuid:29cca0c2-42b7-40be-993a-59abf40326ec"
                  },
                  {
                    "reference": "urn:uuid:bd3fce97-a776-433e-8bda-5b6544144ead"
                  },
                  {
                    "reference": "urn:uuid:6a4a3c64-bd3b-4866-a1ae-3ebe1ed9aada"
                  },
                  {
                    "reference": "urn:uuid:57bf1af1-6686-45ef-ab5e-5a0c1b6fbd2a"
                  },
                  {
                    "reference": "urn:uuid:157aea39-1325-4943-b08f-ee10936ea813"
                  },
                  {
                    "reference": "urn:uuid:f280f9b4-3fd7-4f85-8ca0-8962487a62ea"
                  },
                  {
                    "reference": "urn:uuid:1d1d885d-f5fd-4dba-a6be-1a45f0e43d8a"
                  },
                  {
                    "reference": "urn:uuid:ddc03f1e-d8fe-41f8-8ad3-b20f1c642480"
                  },
                  {
                    "reference": "urn:uuid:c69a584a-8954-4a38-bd27-14abf5c7c36f"
                  },
                  {
                    "reference": "urn:uuid:ad8d4037-281d-448c-8dc0-8aca9af8998d"
                  },
                  {
                    "reference": "urn:uuid:32e1116c-31f6-42ff-8b3d-cd77bf372df1"
                  },
                  {
                    "reference": "urn:uuid:2656cc08-2864-4723-b9fa-5ef0748e0c8d"
                  },
                  {
                    "reference": "urn:uuid:f9ba670e-321e-457c-b058-492226d21287"
                  }
                ],
                "text": {
                  "status": "generated",
                  "div": "<div xmlns=\"http://www.w3.org/1999/xhtml\"><h3>Chemistry</h3><table class=\"hl7__eu__lab__report\"><thead><tr><th>Test</th><th>18-SEP-2019</th><th>Reference&#xA0;Range</th><th>Unit</th></tr></thead><tbody><tr><td>Glucose [Mass/volume] in Serum or Plasma</td><td>89.4</td><td>70 - 140</td><td>mg/dL</td></tr><tr><td>Urea nitrogen [Mass/volume] in Serum or Plasma</td><td>12.2</td><td>7 - 20</td><td>mg/dL</td></tr><tr><td>Creatinine [Mass/volume] in Serum or Plasma</td><td><strong>2.1 H</strong></td><td>0.9 - 1.3</td><td>mg/dL</td></tr><tr><td>Calcium [Mass/volume] in Serum or Plasma</td><td>9.4</td><td>8.5 - 10.5</td><td>mg/dL</td></tr><tr><td>Sodium [Moles/volume] in Serum or Plasma</td><td>139.0</td><td>135 - 145</td><td>mmol/L</td></tr><tr><td>Potassium [Moles/volume] in Serum or Plasma</td><td>4.1</td><td>3.5 - 5</td><td>mmol/L</td></tr><tr><td>Chloride [Moles/volume] in Serum or Plasma</td><td><strong>111.0 H</strong></td><td>98 - 108</td><td>mmol/L</td></tr><tr><td>Carbon dioxide, total [Moles/volume] in Serum or Plasma</td><td>27.1</td><td>22 - 29</td><td>mmol/L</td></tr><tr><td>Ketones [Presence] in Urine by Test strip</td><td>Urine ketone test = ++</td><td></td><td></td></tr><tr><td>Hemoglobin A1c/Hemoglobin.total in Blood</td><td><strong>3.3 L</strong></td><td>4.3 - 6.4</td><td>%</td></tr><tr><td>Glucose [Mass/volume] in Blood</td><td>89.4</td><td>70 - 140</td><td>mg/dL</td></tr><tr><td>Urea nitrogen [Mass/volume] in Blood</td><td>12.2</td><td>7 - 20</td><td>mg/dL</td></tr><tr><td>Creatinine [Mass/volume] in Blood</td><td><strong>5.4 H</strong></td><td>0.6 - 1.3</td><td>mg/dL</td></tr><tr><td>Calcium [Mass/volume] in Blood</td><td>9.4</td><td>8.5 - 10.5</td><td>mg/dL</td></tr><tr><td>Sodium [Moles/volume] in Blood</td><td>139.0</td><td>135 - 145</td><td>mmol/L</td></tr><tr><td>Potassium [Moles/volume] in Blood</td><td>4.1</td><td>3.5 - 5.3</td><td>mmol/L</td></tr><tr><td>Chloride [Moles/volume] in Blood</td><td><strong>111.0 H</strong></td><td>98 - 110</td><td>mmol/L</td></tr><tr><td>Carbon dioxide, total [Moles/volume] in Blood</td><td>27.1</td><td>22 - 29</td><td>mmol/L</td></tr></tbody></table></div>"
                },
                "title": "Chemistry"
              },
              {
                "code": {
                  "coding": [
                    {
                      "code": "$18729-4",
                      "system": "http://loinc.org",
                      "display": "Urinalysis studies (set)"
                    }
                  ],
                  "text": "Urinalysis"
                },
                "entry": [
                  {
                    "reference": "urn:uuid:5f8f9a04-b786-4658-ada9-96df48dab633"
                  },
                  {
                    "reference": "urn:uuid:96d8bddd-f379-49ee-a978-5620ba5e728f"
                  },
                  {
                    "reference": "urn:uuid:d509b09d-4252-4d9a-8a40-896098e1f184"
                  },
                  {
                    "reference": "urn:uuid:ac8b21f3-5eb6-4618-b9d6-87fe0306bf58"
                  },
                  {
                    "reference": "urn:uuid:0362e4ff-c8bb-4484-8132-08787fdd5905"
                  },
                  {
                    "reference": "urn:uuid:2d6bf586-911c-4285-9b49-9ff226315846"
                  },
                  {
                    "reference": "urn:uuid:debeccca-2b46-42f9-9222-d4e3eb572b46"
                  },
                  {
                    "reference": "urn:uuid:5995b9d3-5740-4bb5-ac5a-60ea3d7ba6e1"
                  },
                  {
                    "reference": "urn:uuid:aaa5bc94-3322-47d2-b79b-aa7ee9a1d7fb"
                  },
                  {
                    "reference": "urn:uuid:484092a6-45e7-4db6-bde1-d9e00ce5642f"
                  },
                  {
                    "reference": "urn:uuid:21660941-6d4d-47e1-a52a-02f7290d6bdf"
                  },
                  {
                    "reference": "urn:uuid:2dde3032-a500-4fea-b89d-16bbcaad1bdd"
                  }
                ],
                "text": {
                  "status": "generated",
                  "div": "<div xmlns=\"http://www.w3.org/1999/xhtml\"><h3>Urinalysis</h3><table class=\"hl7__eu__lab__report\"><thead><tr><th>Test</th><th>18-SEP-2019</th><th>Reference&#xA0;Range</th><th>Unit</th></tr></thead><tbody><tr><td>Glucose [Mass/volume] in Urine by Test strip</td><td><strong>1.8 H</strong></td><td>0 - 0.8</td><td>mg/dL</td></tr><tr><td>Glucose [Presence] in Urine by Test strip</td><td>++</td><td></td><td></td></tr><tr><td>Bilirubin.total [Mass/volume] in Urine by Test strip</td><td>0.9</td><td>0.2 - 1</td><td>mg/dL</td></tr><tr><td>Bilirubin.total [Presence] in Urine by Test strip</td><td>Finding of bilirubin in urine</td><td></td><td></td></tr><tr><td>Ketones [Mass/volume] in Urine by Test strip</td><td><strong>14.9 H</strong></td><td>0 - 5</td><td>mg/dL</td></tr><tr><td>Specific gravity of Urine by Test strip</td><td><strong>1.0 L</strong></td><td>1.005 - 1.03</td><td>{nominal}</td></tr><tr><td>pH of Urine by Test strip</td><td>5.6</td><td>4.6 - 7</td><td>pH</td></tr><tr><td>Protein [Mass/volume] in Urine by Test strip</td><td><strong>241.0 H</strong></td><td>0 - 150</td><td>mg/dL</td></tr><tr><td>Protein [Presence] in Urine by Test strip</td><td>Urine protein test = ++</td><td></td><td></td></tr><tr><td>Nitrite [Presence] in Urine by Test strip</td><td>Urine nitrite negative</td><td></td><td></td></tr><tr><td>Hemoglobin [Presence] in Urine by Test strip</td><td>Urine blood test = negative</td><td></td><td></td></tr><tr><td>Leukocyte esterase [Presence] in Urine by Test strip</td><td>Urine leukocyte test negative</td><td></td><td></td></tr></tbody></table></div>"
                },
                "title": "Urinalysis"
              },
              {
                "code": {
                  "coding": [
                    {
                      "code": "$LP7846-1",
                      "system": "http://loinc.org",
                      "display": "Specimen information"
                    }
                  ],
                  "text": "Specimen information"
                },
                "entry": [
                  {
                    "reference": "urn:uuid:053be2bd-8e77-40e2-89bf-7fba51df50d1"
                  },
                  {
                    "reference": "urn:uuid:835c8009-57fb-41cb-b076-a3f486468989"
                  },
                  {
                    "reference": "urn:uuid:cf58b6b1-9b7a-460a-80fa-b63e808c11fe"
                  },
                  {
                    "reference": "urn:uuid:5e2ae4d9-f74f-4562-adbb-6fba9cc25aa1"
                  }
                ],
                "text": {
                  "status": "generated",
                  "div": "<div xmlns=\"http://www.w3.org/1999/xhtml\"><h3>Specimen information</h3><table class=\"hl7__eu__lab__report\"><thead><tr><th>Test</th><th>18-SEP-2019</th><th>Specimen</th><th></th></tr></thead><tbody><tr><td>Appearance of Urine</td><td>Cloudy urine</td><td>Urine</td><td></td></tr><tr><td>Odor of Urine</td><td>Urine smell ammoniacal</td><td>Urine</td><td></td></tr><tr><td>Clarity of Urine</td><td>Translucent</td><td>Urine</td><td></td></tr><tr><td>Color of Urine</td><td>Brown color</td><td>Urine</td><td></td></tr></tbody></table></div>"
                },
                "title": "Specimen information"
              }
            ],
            "title": "Laboratory Report"
          },
          {
            "text": {
              "status": "generated",
              "div": "<div xmlns=\"http://www.w3.org/1999/xhtml\"><h3>Annotation</h3><table class=\"hl7__eu__lab__report\"><tr><th>Conclusion and Recommendations based on this report and previous findings known to us</th></tr><tr><td>The patient shows significantly elevated creatinine, proteinuria, glycosuria, ketonuria, and low urine specific gravity, suggesting impaired renal function, likely acute or chronic kidney disease with possible tubular dysfunction. Blood glucose is normal but HbA1c is unexpectedly low, possibly due to anemia or altered red cell turnover. Urine is cloudy and brown, but no evidence of infection. Further nephrological evaluation and assessment for underlying causes (e.g., diabetes, glomerulonephritis) are recommended.</td></tr></table></div>"
            },
            "code": {
              "coding": [
                {
                  "system": "http://loinc.org",
                  "code": "48767-8",
                  "display": "Annotation comment"
                }
              ]
            },
            "title": "Annotation comment"
          }
        ],
        "status": "final",
        "subject": {
          "reference": "urn:uuid:b09db424-2b26-42bc-b43d-932e4f77cf56",
          "display": "Θεμιστοκλής Λιναρδάκη"
        },
        "date": "2019-09-18T08:16:00Z",
        "title": "Laboratory Report",
        "confidentiality": "N"
      }
    },
    {
      "fullUrl": "urn:uuid:e72c15e0-4c3c-4184-8815-6c31ab1472b9",
      "resource": {
        "resourceType": "DiagnosticReport",
        "id": "e72c15e0-4c3c-4184-8815-6c31ab1472b9",
        "meta": {
          "profile": [
            "http://hl7.eu/fhir/laboratory/StructureDefinition/DiagnosticReport-eu-lab"
          ]
        },
        "identifier": [
          {
            "assigner": {
              "display": "HL7 Europe"
            },
            "system": "urn:oid:2.16.840.1.113883.2.51.999",
            "value": "60d36b17-4f7c-4ff3-aa30-2fec94354249"
          }
        ],
        "extension": [
          {
            "url": "http://hl7.org/fhir/5.0/StructureDefinition/extension-DiagnosticReport.composition",
            "valueReference": {
              "reference": "urn:uuid:6a740d81-301a-4141-8aa1-13db3b93627e"
            }
          }
        ],
        "category": [
          {
            "coding": [
              {
                "code": "26436-6",
                "system": "http://loinc.org",
                "display": "Laboratory studies (set)"
              }
            ]
          }
        ],
        "specimen": [
          {
            "reference": "urn:uuid:8c15d73c-8f7f-4a53-b4ca-5c444fec3fac"
          },
          {
            "reference": "urn:uuid:ffd662eb-e7f3-419a-82bd-8b6f80c8ede9"
          },
          {
            "reference": "urn:uuid:387d4e1b-8726-4ccf-a1c2-c4216c0a25e1"
          }
        ],
        "result": [
          {
            "reference": "urn:uuid:8df29f3c-2f36-4d8d-83b0-3da960f7b971"
          },
          {
            "reference": "urn:uuid:4b10b261-212b-4925-bb89-6880117b7ae1"
          },
          {
            "reference": "urn:uuid:7b05e56c-ae65-45cd-9c0c-bc52d4f8bfc0"
          },
          {
            "reference": "urn:uuid:65bdaf61-41f4-4ac5-9cb3-6c631a1b0de1"
          },
          {
            "reference": "urn:uuid:6da0d6cf-3d7b-4a8c-a692-5de83c06d38e"
          },
          {
            "reference": "urn:uuid:29cca0c2-42b7-40be-993a-59abf40326ec"
          },
          {
            "reference": "urn:uuid:bd3fce97-a776-433e-8bda-5b6544144ead"
          },
          {
            "reference": "urn:uuid:6a4a3c64-bd3b-4866-a1ae-3ebe1ed9aada"
          },
          {
            "reference": "urn:uuid:053be2bd-8e77-40e2-89bf-7fba51df50d1"
          },
          {
            "reference": "urn:uuid:835c8009-57fb-41cb-b076-a3f486468989"
          },
          {
            "reference": "urn:uuid:cf58b6b1-9b7a-460a-80fa-b63e808c11fe"
          },
          {
            "reference": "urn:uuid:5e2ae4d9-f74f-4562-adbb-6fba9cc25aa1"
          },
          {
            "reference": "urn:uuid:5f8f9a04-b786-4658-ada9-96df48dab633"
          },
          {
            "reference": "urn:uuid:96d8bddd-f379-49ee-a978-5620ba5e728f"
          },
          {
            "reference": "urn:uuid:d509b09d-4252-4d9a-8a40-896098e1f184"
          },
          {
            "reference": "urn:uuid:ac8b21f3-5eb6-4618-b9d6-87fe0306bf58"
          },
          {
            "reference": "urn:uuid:0362e4ff-c8bb-4484-8132-08787fdd5905"
          },
          {
            "reference": "urn:uuid:57bf1af1-6686-45ef-ab5e-5a0c1b6fbd2a"
          },
          {
            "reference": "urn:uuid:2d6bf586-911c-4285-9b49-9ff226315846"
          },
          {
            "reference": "urn:uuid:debeccca-2b46-42f9-9222-d4e3eb572b46"
          },
          {
            "reference": "urn:uuid:5995b9d3-5740-4bb5-ac5a-60ea3d7ba6e1"
          },
          {
            "reference": "urn:uuid:aaa5bc94-3322-47d2-b79b-aa7ee9a1d7fb"
          },
          {
            "reference": "urn:uuid:484092a6-45e7-4db6-bde1-d9e00ce5642f"
          },
          {
            "reference": "urn:uuid:21660941-6d4d-47e1-a52a-02f7290d6bdf"
          },
          {
            "reference": "urn:uuid:2dde3032-a500-4fea-b89d-16bbcaad1bdd"
          },
          {
            "reference": "urn:uuid:157aea39-1325-4943-b08f-ee10936ea813"
          },
          {
            "reference": "urn:uuid:f280f9b4-3fd7-4f85-8ca0-8962487a62ea"
          },
          {
            "reference": "urn:uuid:1d1d885d-f5fd-4dba-a6be-1a45f0e43d8a"
          },
          {
            "reference": "urn:uuid:ddc03f1e-d8fe-41f8-8ad3-b20f1c642480"
          },
          {
            "reference": "urn:uuid:c69a584a-8954-4a38-bd27-14abf5c7c36f"
          },
          {
            "reference": "urn:uuid:ad8d4037-281d-448c-8dc0-8aca9af8998d"
          },
          {
            "reference": "urn:uuid:32e1116c-31f6-42ff-8b3d-cd77bf372df1"
          },
          {
            "reference": "urn:uuid:2656cc08-2864-4723-b9fa-5ef0748e0c8d"
          },
          {
            "reference": "urn:uuid:f9ba670e-321e-457c-b058-492226d21287"
          }
        ],
        "status": "registered",
        "code": {
          "coding": [
            {
              "code": "11502-2",
              "system": "http://loinc.org",
              "display": "Laboratory report"
            }
          ]
        },
        "subject": {
          "reference": "urn:uuid:b09db424-2b26-42bc-b43d-932e4f77cf56",
          "display": "Θεμιστοκλής Λιναρδάκη"
        }
      }
    },
    {
      "fullUrl": "urn:uuid:b09db424-2b26-42bc-b43d-932e4f77cf56",
      "resource": {
        "resourceType": "Patient",
        "id": "b09db424-2b26-42bc-b43d-932e4f77cf56",
        "meta": {
          "security": [
            {
              "system": "http://terminology.hl7.org/CodeSystem/v3-ActReason",
              "code": "HTEST"
            },
            {
              "system": "http://terminology.hl7.org/CodeSystem/v3-ActReason",
              "code": "TRAIN"
            }
          ],
          "tag": [
            {
              "system": "https://synderai.net/fhir/CodeSystem/tags",
              "code": "synthetic",
              "display": "SYNDERAI Synthetic data"
            }
          ],
          "profile": [
            "http://hl7.eu/fhir/base/StructureDefinition/patient-eu-core"
          ]
        },
        "identifier": [
          {
            "type": {
              "coding": [
                {
                  "code": "PT",
                  "system": "http://terminology.hl7.org/CodeSystem/v2-0203"
                }
              ]
            },
            "system": "http://ec.europa.eu/identifier/eci",
            "value": "5962-476889-7"
          },
          {
            "type": {
              "coding": [
                {
                  "code": "MR",
                  "system": "http://terminology.hl7.org/CodeSystem/v2-0203"
                }
              ]
            },
            "system": "http://local.setting.eu/identifier",
            "value": "925e2603-2ef9-6bdf-1330-2ebf526636c4"
          }
        ],
        "name": [
          {
            "family": "Λιναρδάκη"
          },
          {
            "given": [
              "Θεμιστοκλής"
            ]
          },
          {
            "text": "Θεμιστοκλής Λιναρδάκη"
          }
        ],
        "address": [
          {
            "line": [
              "Αμαρύνθου 54-58"
            ],
            "use": "home",
            "type": "physical",
            "postalCode": "262 21",
            "city": "Πάτρα",
            "country": "Greece"
          }
        ],
        "telecom": [
          {
            "system": "phone",
            "value": "+302226364480"
          }
        ],
        "extension": [
          {
            "url": "http://hl7.org/fhir/StructureDefinition/patient-nationality",
            "valueCodeableConcept": {
              "coding": [
                {
                  "code": "GR",
                  "system": "http://hl7.org/fhir/ValueSet/country"
                }
              ]
            }
          }
        ],
        "text": {
          "status": "generated",
          "div": "<div xmlns=\"http://www.w3.org/1999/xhtml\"><table class=\"hl7__ips\"><tr><td>Θεμιστοκλής Λιναρδάκη</td><td>male</td><td>21-Jan-1974</td></tr></table></div>"
        },
        "gender": "male",
        "birthDate": "1974-01-21"
      }
    },
    {
      "fullUrl": "urn:uuid:0747151c-3d81-4533-89cb-bc69edd9c9f5",
      "resource": {
        "resourceType": "ServiceRequest",
        "id": "0747151c-3d81-4533-89cb-bc69edd9c9f5",
        "meta": {
          "profile": [
            "http://hl7.eu/fhir/laboratory/StructureDefinition/ServiceRequest-eu-lab"
          ]
        },
        "identifier": [
          {
            "system": "http://example.org",
            "value": "e39cbc2f-b8f1-40a8-b762-a5b217079d66"
          }
        ],
        "specimen": [
          {
            "reference": "urn:uuid:8c15d73c-8f7f-4a53-b4ca-5c444fec3fac"
          },
          {
            "reference": "urn:uuid:ffd662eb-e7f3-419a-82bd-8b6f80c8ede9"
          },
          {
            "reference": "urn:uuid:387d4e1b-8726-4ccf-a1c2-c4216c0a25e1"
          }
        ],
        "reasonCode": [
          {
            "coding": [
              {
                "code": "237602007",
                "system": "http://snomed.info/sct",
                "display": "Metabolic syndrome X"
              }
            ]
          },
          {
            "coding": [
              {
                "code": "433144002",
                "system": "http://snomed.info/sct",
                "display": "Chronic kidney disease stage 3"
              }
            ]
          },
          {
            "coding": [
              {
                "code": "157141000119108",
                "system": "http://snomed.info/sct",
                "display": "Proteinuria due to type 2 diabetes mellitus"
              }
            ]
          },
          {
            "coding": [
              {
                "code": "431856006",
                "system": "http://snomed.info/sct",
                "display": "Chronic kidney disease stage 2"
              }
            ]
          },
          {
            "coding": [
              {
                "code": "90781000119102",
                "system": "http://snomed.info/sct",
                "display": "Microalbuminuria due to type 2 diabetes mellitus"
              }
            ]
          },
          {
            "coding": [
              {
                "code": "127013003",
                "system": "http://snomed.info/sct",
                "display": "Disorder of kidney due to diabetes mellitus"
              }
            ]
          },
          {
            "coding": [
              {
                "code": "431855005",
                "system": "http://snomed.info/sct",
                "display": "Chronic kidney disease stage 1"
              }
            ]
          },
          {
            "coding": [
              {
                "code": "59621000",
                "system": "http://snomed.info/sct",
                "display": "Essential hypertension"
              }
            ]
          },
          {
            "coding": [
              {
                "code": "15777000",
                "system": "http://snomed.info/sct",
                "display": "Prediabetes"
              }
            ]
          },
          {
            "coding": [
              {
                "code": "271737000",
                "system": "http://snomed.info/sct",
                "display": "Anemia"
              }
            ]
          }
        ],
        "status": "active",
        "intent": "order",
        "code": {
          "coding": [
            {
              "code": "108252007",
              "system": "http://snomed.info/sct",
              "display": "Laboratory procedure"
            }
          ]
        },
        "subject": {
          "reference": "urn:uuid:b09db424-2b26-42bc-b43d-932e4f77cf56",
          "display": "Θεμιστοκλής Λιναρδάκη"
        },
        "requester": {
          "reference": "urn:uuid:639b57bc-fe05-4f88-baa3-3431a9bcc314"
        }
      }
    },
    {
      "fullUrl": "urn:uuid:639b57bc-fe05-4f88-baa3-3431a9bcc314",
      "resource": {
        "resourceType": "PractitionerRole",
        "id": "639b57bc-fe05-4f88-baa3-3431a9bcc314",
        "meta": {
          "profile": [
            "http://hl7.eu/fhir/base/StructureDefinition/practitionerRole-eu"
          ]
        },
        "text": {
          "status": "generated",
          "div": "<div xmlns=\"http://www.w3.org/1999/xhtml\">Provider Role Id: 639b57bc-fe05-4f88-baa3-3431a9bcc314</div>"
        },
        "organization": {
          "reference": "urn:uuid:b7383614-9dbd-4c4b-8ab7-32a0a2a531ca"
        }
      }
    },
    {
      "fullUrl": "urn:uuid:b7383614-9dbd-4c4b-8ab7-32a0a2a531ca",
      "resource": {
        "resourceType": "Organization",
        "id": "b7383614-9dbd-4c4b-8ab7-32a0a2a531ca",
        "meta": {
          "profile": [
            "http://hl7.eu/fhir/base/StructureDefinition/organization-eu"
          ]
        },
        "identifier": [
          {
            "assigner": {
              "display": "HL7 Europe"
            },
            "system": "urn:oid:2.16.840.1.113883.2.51.999",
            "value": "bb51be5c-dbdc-4812-8e93-34383cb10176"
          }
        ],
        "address": [
          {
            "line": [
              "211 Odós Filellinon"
            ],
            "city": "Patras",
            "postalCode": "262 21",
            "country": "Greece"
          }
        ],
        "text": {
          "status": "generated",
          "div": "<div xmlns=\"http://www.w3.org/1999/xhtml\">Provider Organization: Dr. Dimitris Economou</div>"
        },
        "name": "Dr. Dimitris Economou"
      }
    },
    {
      "fullUrl": "urn:uuid:8c15d73c-8f7f-4a53-b4ca-5c444fec3fac",
      "resource": {
        "resourceType": "Specimen",
        "id": "8c15d73c-8f7f-4a53-b4ca-5c444fec3fac",
        "meta": {
          "profile": [
            "http://hl7.eu/fhir/laboratory/StructureDefinition/Specimen-eu-lab"
          ]
        },
        "collection": {
          "collectedDateTime": "2019-09-18"
        },
        "text": {
          "status": "generated",
          "div": "<div xmlns=\"http://www.w3.org/1999/xhtml\"><table class=\"hl7__eu__lab__report\"><tr><th>Specimen</th><th>Collection Date</th></tr><tr><td>Acellular blood (serum or plasma) specimen</td><td><span class=\"nb\">18-Sep-2019</span></td></tr></table></div>"
        },
        "type": {
          "coding": [
            {
              "code": "122592007",
              "system": "http://snomed.info/sct",
              "display": "Acellular blood (serum or plasma) specimen"
            }
          ]
        }
      }
    },
    {
      "fullUrl": "urn:uuid:ffd662eb-e7f3-419a-82bd-8b6f80c8ede9",
      "resource": {
        "resourceType": "Specimen",
        "id": "ffd662eb-e7f3-419a-82bd-8b6f80c8ede9",
        "meta": {
          "profile": [
            "http://hl7.eu/fhir/laboratory/StructureDefinition/Specimen-eu-lab"
          ]
        },
        "collection": {
          "collectedDateTime": "2019-09-18"
        },
        "text": {
          "status": "generated",
          "div": "<div xmlns=\"http://www.w3.org/1999/xhtml\"><table class=\"hl7__eu__lab__report\"><tr><th>Specimen</th><th>Collection Date</th></tr><tr><td>Urine specimen</td><td><span class=\"nb\">18-Sep-2019</span></td></tr></table></div>"
        },
        "type": {
          "coding": [
            {
              "code": "122575003",
              "system": "http://snomed.info/sct",
              "display": "Urine specimen"
            }
          ]
        }
      }
    },
    {
      "fullUrl": "urn:uuid:387d4e1b-8726-4ccf-a1c2-c4216c0a25e1",
      "resource": {
        "resourceType": "Specimen",
        "id": "387d4e1b-8726-4ccf-a1c2-c4216c0a25e1",
        "meta": {
          "profile": [
            "http://hl7.eu/fhir/laboratory/StructureDefinition/Specimen-eu-lab"
          ]
        },
        "collection": {
          "collectedDateTime": "2019-09-18"
        },
        "text": {
          "status": "generated",
          "div": "<div xmlns=\"http://www.w3.org/1999/xhtml\"><table class=\"hl7__eu__lab__report\"><tr><th>Specimen</th><th>Collection Date</th></tr><tr><td>Whole blood specimen (specimen)</td><td><span class=\"nb\">18-Sep-2019</span></td></tr></table></div>"
        },
        "type": {
          "coding": [
            {
              "code": "258580003",
              "system": "http://snomed.info/sct",
              "display": "Whole blood specimen (specimen)"
            }
          ]
        }
      }
    },
    {
      "fullUrl": "urn:uuid:8df29f3c-2f36-4d8d-83b0-3da960f7b971",
      "resource": {
        "resourceType": "Observation",
        "id": "8df29f3c-2f36-4d8d-83b0-3da960f7b971",
        "meta": {
          "profile": [
            "http://hl7.eu/fhir/laboratory/StructureDefinition/Observation-resultslab-eu-lab"
          ]
        },
        "performer": [
          {
            "display": "The Central European Lab"
          }
        ],
        "category": [
          {
            "coding": [
              {
                "system": "http://terminology.hl7.org/CodeSystem/observation-category",
                "code": "laboratory"
              }
            ]
          }
        ],
        "code": {
          "coding": [
            {
              "code": "2345-7",
              "system": "http://loinc.org",
              "display": "Glucose [Mass/volume] in Serum or Plasma"
            }
          ],
          "text": "Glucose [Mass/volume] in Serum or Plasma"
        },
        "valueQuantity": {
          "system": "http://unitsofmeasure.org",
          "value": 89.4,
          "unit": "mg/dL",
          "code": "mg/dL"
        },
        "referenceRange": [
          {
            "low": {
              "value": 70,
              "code": "mg/dL",
              "system": "http://unitsofmeasure.org"
            }
          },
          {
            "high": {
              "value": 140,
              "code": "mg/dL",
              "system": "http://unitsofmeasure.org"
            }
          }
        ],
        "text": {
          "status": "generated",
          "div": "<div xmlns=\"http://www.w3.org/1999/xhtml\"><table class=\"hl7__eu__lab__report\"><tr><th>Test</th><th>18-Sep-2019</th><th>Reference&#xA0;Range</th><th>Unit</th></tr><tr><td>Glucose [Mass/volume] in Serum or Plasma</td><td>89.4</td><td>70 - 140</td><td></td><td>mg/dL</td></tr></table></div>"
        },
        "status": "final",
        "subject": {
          "reference": "urn:uuid:b09db424-2b26-42bc-b43d-932e4f77cf56",
          "display": "Θεμιστοκλής Λιναρδάκη"
        },
        "effectiveDateTime": "2019-09-18T06:16:00Z",
        "specimen": {
          "reference": "urn:uuid:8c15d73c-8f7f-4a53-b4ca-5c444fec3fac"
        }
      }
    },
    {
      "fullUrl": "urn:uuid:4b10b261-212b-4925-bb89-6880117b7ae1",
      "resource": {
        "resourceType": "Observation",
        "id": "4b10b261-212b-4925-bb89-6880117b7ae1",
        "meta": {
          "profile": [
            "http://hl7.eu/fhir/laboratory/StructureDefinition/Observation-resultslab-eu-lab"
          ]
        },
        "performer": [
          {
            "display": "The Central European Lab"
          }
        ],
        "category": [
          {
            "coding": [
              {
                "system": "http://terminology.hl7.org/CodeSystem/observation-category",
                "code": "laboratory"
              }
            ]
          }
        ],
        "code": {
          "coding": [
            {
              "code": "3094-0",
              "system": "http://loinc.org",
              "display": "Urea nitrogen [Mass/volume] in Serum or Plasma"
            }
          ],
          "text": "Urea nitrogen [Mass/volume] in Serum or Plasma"
        },
        "valueQuantity": {
          "system": "http://unitsofmeasure.org",
          "value": 12.2,
          "unit": "mg/dL",
          "code": "mg/dL"
        },
        "referenceRange": [
          {
            "low": {
              "value": 7,
              "code": "mg/dL",
              "system": "http://unitsofmeasure.org"
            }
          },
          {
            "high": {
              "value": 20,
              "code": "mg/dL",
              "system": "http://unitsofmeasure.org"
            }
          }
        ],
        "text": {
          "status": "generated",
          "div": "<div xmlns=\"http://www.w3.org/1999/xhtml\"><table class=\"hl7__eu__lab__report\"><tr><th>Test</th><th>18-Sep-2019</th><th>Reference&#xA0;Range</th><th>Unit</th></tr><tr><td>Urea nitrogen [Mass/volume] in Serum or Plasma</td><td>12.2</td><td>7 - 20</td><td></td><td>mg/dL</td></tr></table></div>"
        },
        "status": "final",
        "subject": {
          "reference": "urn:uuid:b09db424-2b26-42bc-b43d-932e4f77cf56",
          "display": "Θεμιστοκλής Λιναρδάκη"
        },
        "effectiveDateTime": "2019-09-18T06:16:00Z",
        "specimen": {
          "reference": "urn:uuid:8c15d73c-8f7f-4a53-b4ca-5c444fec3fac"
        }
      }
    },
    {
      "fullUrl": "urn:uuid:7b05e56c-ae65-45cd-9c0c-bc52d4f8bfc0",
      "resource": {
        "resourceType": "Observation",
        "id": "7b05e56c-ae65-45cd-9c0c-bc52d4f8bfc0",
        "meta": {
          "profile": [
            "http://hl7.eu/fhir/laboratory/StructureDefinition/Observation-resultslab-eu-lab"
          ]
        },
        "performer": [
          {
            "display": "The Central European Lab"
          }
        ],
        "category": [
          {
            "coding": [
              {
                "system": "http://terminology.hl7.org/CodeSystem/observation-category",
                "code": "laboratory"
              }
            ]
          }
        ],
        "code": {
          "coding": [
            {
              "code": "2160-0",
              "system": "http://loinc.org",
              "display": "Creatinine [Mass/volume] in Serum or Plasma"
            }
          ],
          "text": "Creatinine [Mass/volume] in Serum or Plasma"
        },
        "valueQuantity": {
          "system": "http://unitsofmeasure.org",
          "value": 2.1,
          "unit": "mg/dL",
          "code": "mg/dL"
        },
        "referenceRange": [
          {
            "low": {
              "value": 0.9,
              "code": "mg/dL",
              "system": "http://unitsofmeasure.org"
            }
          },
          {
            "high": {
              "value": 1.3,
              "code": "mg/dL",
              "system": "http://unitsofmeasure.org"
            }
          }
        ],
        "interpretation": [
          {
            "coding": [
              {
                "code": "H",
                "system": "http://terminology.hl7.org/CodeSystem/v3-ObservationInterpretation",
                "display": "High"
              }
            ]
          }
        ],
        "text": {
          "status": "generated",
          "div": "<div xmlns=\"http://www.w3.org/1999/xhtml\"><table class=\"hl7__eu__lab__report\"><tr><th>Test</th><th>18-Sep-2019</th><th>Reference&#xA0;Range</th><th>Unit</th></tr><tr><td>Creatinine [Mass/volume] in Serum or Plasma</td><td>2.1</td><td>0.9 - 1.3</td><td>H</td><td>mg/dL</td></tr></table></div>"
        },
        "status": "final",
        "subject": {
          "reference": "urn:uuid:b09db424-2b26-42bc-b43d-932e4f77cf56",
          "display": "Θεμιστοκλής Λιναρδάκη"
        },
        "effectiveDateTime": "2019-09-18T06:16:00Z",
        "specimen": {
          "reference": "urn:uuid:8c15d73c-8f7f-4a53-b4ca-5c444fec3fac"
        }
      }
    },
    {
      "fullUrl": "urn:uuid:65bdaf61-41f4-4ac5-9cb3-6c631a1b0de1",
      "resource": {
        "resourceType": "Observation",
        "id": "65bdaf61-41f4-4ac5-9cb3-6c631a1b0de1",
        "meta": {
          "profile": [
            "http://hl7.eu/fhir/laboratory/StructureDefinition/Observation-resultslab-eu-lab"
          ]
        },
        "performer": [
          {
            "display": "The Central European Lab"
          }
        ],
        "category": [
          {
            "coding": [
              {
                "system": "http://terminology.hl7.org/CodeSystem/observation-category",
                "code": "laboratory"
              }
            ]
          }
        ],
        "code": {
          "coding": [
            {
              "code": "17861-6",
              "system": "http://loinc.org",
              "display": "Calcium [Mass/volume] in Serum or Plasma"
            }
          ],
          "text": "Calcium [Mass/volume] in Serum or Plasma"
        },
        "valueQuantity": {
          "system": "http://unitsofmeasure.org",
          "value": 9.4,
          "unit": "mg/dL",
          "code": "mg/dL"
        },
        "referenceRange": [
          {
            "low": {
              "value": 8.5,
              "code": "mg/dL",
              "system": "http://unitsofmeasure.org"
            }
          },
          {
            "high": {
              "value": 10.5,
              "code": "mg/dL",
              "system": "http://unitsofmeasure.org"
            }
          }
        ],
        "text": {
          "status": "generated",
          "div": "<div xmlns=\"http://www.w3.org/1999/xhtml\"><table class=\"hl7__eu__lab__report\"><tr><th>Test</th><th>18-Sep-2019</th><th>Reference&#xA0;Range</th><th>Unit</th></tr><tr><td>Calcium [Mass/volume] in Serum or Plasma</td><td>9.4</td><td>8.5 - 10.5</td><td></td><td>mg/dL</td></tr></table></div>"
        },
        "status": "final",
        "subject": {
          "reference": "urn:uuid:b09db424-2b26-42bc-b43d-932e4f77cf56",
          "display": "Θεμιστοκλής Λιναρδάκη"
        },
        "effectiveDateTime": "2019-09-18T06:16:00Z",
        "specimen": {
          "reference": "urn:uuid:8c15d73c-8f7f-4a53-b4ca-5c444fec3fac"
        }
      }
    },
    {
      "fullUrl": "urn:uuid:6da0d6cf-3d7b-4a8c-a692-5de83c06d38e",
      "resource": {
        "resourceType": "Observation",
        "id": "6da0d6cf-3d7b-4a8c-a692-5de83c06d38e",
        "meta": {
          "profile": [
            "http://hl7.eu/fhir/laboratory/StructureDefinition/Observation-resultslab-eu-lab"
          ]
        },
        "performer": [
          {
            "display": "The Central European Lab"
          }
        ],
        "category": [
          {
            "coding": [
              {
                "system": "http://terminology.hl7.org/CodeSystem/observation-category",
                "code": "laboratory"
              }
            ]
          }
        ],
        "code": {
          "coding": [
            {
              "code": "2951-2",
              "system": "http://loinc.org",
              "display": "Sodium [Moles/volume] in Serum or Plasma"
            }
          ],
          "text": "Sodium [Moles/volume] in Serum or Plasma"
        },
        "valueQuantity": {
          "system": "http://unitsofmeasure.org",
          "value": 139,
          "unit": "mmol/L",
          "code": "mmol/L"
        },
        "referenceRange": [
          {
            "low": {
              "value": 135,
              "code": "mmol/L",
              "system": "http://unitsofmeasure.org"
            }
          },
          {
            "high": {
              "value": 145,
              "code": "mmol/L",
              "system": "http://unitsofmeasure.org"
            }
          }
        ],
        "text": {
          "status": "generated",
          "div": "<div xmlns=\"http://www.w3.org/1999/xhtml\"><table class=\"hl7__eu__lab__report\"><tr><th>Test</th><th>18-Sep-2019</th><th>Reference&#xA0;Range</th><th>Unit</th></tr><tr><td>Sodium [Moles/volume] in Serum or Plasma</td><td>139.0</td><td>135 - 145</td><td></td><td>mmol/L</td></tr></table></div>"
        },
        "status": "final",
        "subject": {
          "reference": "urn:uuid:b09db424-2b26-42bc-b43d-932e4f77cf56",
          "display": "Θεμιστοκλής Λιναρδάκη"
        },
        "effectiveDateTime": "2019-09-18T06:16:00Z",
        "specimen": {
          "reference": "urn:uuid:8c15d73c-8f7f-4a53-b4ca-5c444fec3fac"
        }
      }
    },
    {
      "fullUrl": "urn:uuid:29cca0c2-42b7-40be-993a-59abf40326ec",
      "resource": {
        "resourceType": "Observation",
        "id": "29cca0c2-42b7-40be-993a-59abf40326ec",
        "meta": {
          "profile": [
            "http://hl7.eu/fhir/laboratory/StructureDefinition/Observation-resultslab-eu-lab"
          ]
        },
        "performer": [
          {
            "display": "The Central European Lab"
          }
        ],
        "category": [
          {
            "coding": [
              {
                "system": "http://terminology.hl7.org/CodeSystem/observation-category",
                "code": "laboratory"
              }
            ]
          }
        ],
        "code": {
          "coding": [
            {
              "code": "2823-3",
              "system": "http://loinc.org",
              "display": "Potassium [Moles/volume] in Serum or Plasma"
            }
          ],
          "text": "Potassium [Moles/volume] in Serum or Plasma"
        },
        "valueQuantity": {
          "system": "http://unitsofmeasure.org",
          "value": 4.1,
          "unit": "mmol/L",
          "code": "mmol/L"
        },
        "referenceRange": [
          {
            "low": {
              "value": 3.5,
              "code": "mmol/L",
              "system": "http://unitsofmeasure.org"
            }
          },
          {
            "high": {
              "value": 5,
              "code": "mmol/L",
              "system": "http://unitsofmeasure.org"
            }
          }
        ],
        "text": {
          "status": "generated",
          "div": "<div xmlns=\"http://www.w3.org/1999/xhtml\"><table class=\"hl7__eu__lab__report\"><tr><th>Test</th><th>18-Sep-2019</th><th>Reference&#xA0;Range</th><th>Unit</th></tr><tr><td>Potassium [Moles/volume] in Serum or Plasma</td><td>4.1</td><td>3.5 - 5</td><td></td><td>mmol/L</td></tr></table></div>"
        },
        "status": "final",
        "subject": {
          "reference": "urn:uuid:b09db424-2b26-42bc-b43d-932e4f77cf56",
          "display": "Θεμιστοκλής Λιναρδάκη"
        },
        "effectiveDateTime": "2019-09-18T06:16:00Z",
        "specimen": {
          "reference": "urn:uuid:8c15d73c-8f7f-4a53-b4ca-5c444fec3fac"
        }
      }
    },
    {
      "fullUrl": "urn:uuid:bd3fce97-a776-433e-8bda-5b6544144ead",
      "resource": {
        "resourceType": "Observation",
        "id": "bd3fce97-a776-433e-8bda-5b6544144ead",
        "meta": {
          "profile": [
            "http://hl7.eu/fhir/laboratory/StructureDefinition/Observation-resultslab-eu-lab"
          ]
        },
        "performer": [
          {
            "display": "The Central European Lab"
          }
        ],
        "category": [
          {
            "coding": [
              {
                "system": "http://terminology.hl7.org/CodeSystem/observation-category",
                "code": "laboratory"
              }
            ]
          }
        ],
        "code": {
          "coding": [
            {
              "code": "2075-0",
              "system": "http://loinc.org",
              "display": "Chloride [Moles/volume] in Serum or Plasma"
            }
          ],
          "text": "Chloride [Moles/volume] in Serum or Plasma"
        },
        "valueQuantity": {
          "system": "http://unitsofmeasure.org",
          "value": 111,
          "unit": "mmol/L",
          "code": "mmol/L"
        },
        "referenceRange": [
          {
            "low": {
              "value": 98,
              "code": "mmol/L",
              "system": "http://unitsofmeasure.org"
            }
          },
          {
            "high": {
              "value": 108,
              "code": "mmol/L",
              "system": "http://unitsofmeasure.org"
            }
          }
        ],
        "interpretation": [
          {
            "coding": [
              {
                "code": "H",
                "system": "http://terminology.hl7.org/CodeSystem/v3-ObservationInterpretation",
                "display": "High"
              }
            ]
          }
        ],
        "text": {
          "status": "generated",
          "div": "<div xmlns=\"http://www.w3.org/1999/xhtml\"><table class=\"hl7__eu__lab__report\"><tr><th>Test</th><th>18-Sep-2019</th><th>Reference&#xA0;Range</th><th>Unit</th></tr><tr><td>Chloride [Moles/volume] in Serum or Plasma</td><td>111.0</td><td>98 - 108</td><td>H</td><td>mmol/L</td></tr></table></div>"
        },
        "status": "final",
        "subject": {
          "reference": "urn:uuid:b09db424-2b26-42bc-b43d-932e4f77cf56",
          "display": "Θεμιστοκλής Λιναρδάκη"
        },
        "effectiveDateTime": "2019-09-18T06:16:00Z",
        "specimen": {
          "reference": "urn:uuid:8c15d73c-8f7f-4a53-b4ca-5c444fec3fac"
        }
      }
    },
    {
      "fullUrl": "urn:uuid:6a4a3c64-bd3b-4866-a1ae-3ebe1ed9aada",
      "resource": {
        "resourceType": "Observation",
        "id": "6a4a3c64-bd3b-4866-a1ae-3ebe1ed9aada",
        "meta": {
          "profile": [
            "http://hl7.eu/fhir/laboratory/StructureDefinition/Observation-resultslab-eu-lab"
          ]
        },
        "performer": [
          {
            "display": "The Central European Lab"
          }
        ],
        "category": [
          {
            "coding": [
              {
                "system": "http://terminology.hl7.org/CodeSystem/observation-category",
                "code": "laboratory"
              }
            ]
          }
        ],
        "code": {
          "coding": [
            {
              "code": "2028-9",
              "system": "http://loinc.org",
              "display": "Carbon dioxide, total [Moles/volume] in Serum or Plasma"
            }
          ],
          "text": "Carbon dioxide, total [Moles/volume] in Serum or Plasma"
        },
        "valueQuantity": {
          "system": "http://unitsofmeasure.org",
          "value": 27.1,
          "unit": "mmol/L",
          "code": "mmol/L"
        },
        "referenceRange": [
          {
            "low": {
              "value": 22,
              "code": "mmol/L",
              "system": "http://unitsofmeasure.org"
            }
          },
          {
            "high": {
              "value": 29,
              "code": "mmol/L",
              "system": "http://unitsofmeasure.org"
            }
          }
        ],
        "text": {
          "status": "generated",
          "div": "<div xmlns=\"http://www.w3.org/1999/xhtml\"><table class=\"hl7__eu__lab__report\"><tr><th>Test</th><th>18-Sep-2019</th><th>Reference&#xA0;Range</th><th>Unit</th></tr><tr><td>Carbon dioxide, total [Moles/volume] in Serum or Plasma</td><td>27.1</td><td>22 - 29</td><td></td><td>mmol/L</td></tr></table></div>"
        },
        "status": "final",
        "subject": {
          "reference": "urn:uuid:b09db424-2b26-42bc-b43d-932e4f77cf56",
          "display": "Θεμιστοκλής Λιναρδάκη"
        },
        "effectiveDateTime": "2019-09-18T06:16:00Z",
        "specimen": {
          "reference": "urn:uuid:8c15d73c-8f7f-4a53-b4ca-5c444fec3fac"
        }
      }
    },
    {
      "fullUrl": "urn:uuid:053be2bd-8e77-40e2-89bf-7fba51df50d1",
      "resource": {
        "resourceType": "Observation",
        "id": "053be2bd-8e77-40e2-89bf-7fba51df50d1",
        "meta": {
          "profile": [
            "http://hl7.eu/fhir/laboratory/StructureDefinition/Observation-resultslab-eu-lab"
          ]
        },
        "performer": [
          {
            "display": "The Central European Lab"
          }
        ],
        "category": [
          {
            "coding": [
              {
                "system": "http://terminology.hl7.org/CodeSystem/observation-category",
                "code": "laboratory"
              }
            ]
          }
        ],
        "code": {
          "coding": [
            {
              "code": "5767-9",
              "system": "http://loinc.org",
              "display": "Appearance of Urine"
            }
          ],
          "text": "Appearance of Urine"
        },
        "text": {
          "status": "generated",
          "div": "<div xmlns=\"http://www.w3.org/1999/xhtml\"><table class=\"hl7__eu__lab__report\"><tr><th>Test</th><th>18-Sep-2019</th><th>Reference&#xA0;Range</th><th>Unit</th></tr><tr><td>Appearance of Urine</td></tr></table></div>"
        },
        "status": "final",
        "subject": {
          "reference": "urn:uuid:b09db424-2b26-42bc-b43d-932e4f77cf56",
          "display": "Θεμιστοκλής Λιναρδάκη"
        },
        "effectiveDateTime": "2019-09-18T06:16:00Z",
        "specimen": {
          "reference": "urn:uuid:ffd662eb-e7f3-419a-82bd-8b6f80c8ede9"
        }
      }
    },
    {
      "fullUrl": "urn:uuid:835c8009-57fb-41cb-b076-a3f486468989",
      "resource": {
        "resourceType": "Observation",
        "id": "835c8009-57fb-41cb-b076-a3f486468989",
        "meta": {
          "profile": [
            "http://hl7.eu/fhir/laboratory/StructureDefinition/Observation-resultslab-eu-lab"
          ]
        },
        "performer": [
          {
            "display": "The Central European Lab"
          }
        ],
        "category": [
          {
            "coding": [
              {
                "system": "http://terminology.hl7.org/CodeSystem/observation-category",
                "code": "laboratory"
              }
            ]
          }
        ],
        "code": {
          "coding": [
            {
              "code": "34533-0",
              "system": "http://loinc.org",
              "display": "Odor of Urine"
            }
          ],
          "text": "Odor of Urine"
        },
        "text": {
          "status": "generated",
          "div": "<div xmlns=\"http://www.w3.org/1999/xhtml\"><table class=\"hl7__eu__lab__report\"><tr><th>Test</th><th>18-Sep-2019</th><th>Reference&#xA0;Range</th><th>Unit</th></tr><tr><td>Odor of Urine</td></tr></table></div>"
        },
        "status": "final",
        "subject": {
          "reference": "urn:uuid:b09db424-2b26-42bc-b43d-932e4f77cf56",
          "display": "Θεμιστοκλής Λιναρδάκη"
        },
        "effectiveDateTime": "2019-09-18T06:16:00Z",
        "specimen": {
          "reference": "urn:uuid:ffd662eb-e7f3-419a-82bd-8b6f80c8ede9"
        }
      }
    },
    {
      "fullUrl": "urn:uuid:cf58b6b1-9b7a-460a-80fa-b63e808c11fe",
      "resource": {
        "resourceType": "Observation",
        "id": "cf58b6b1-9b7a-460a-80fa-b63e808c11fe",
        "meta": {
          "profile": [
            "http://hl7.eu/fhir/laboratory/StructureDefinition/Observation-resultslab-eu-lab"
          ]
        },
        "performer": [
          {
            "display": "The Central European Lab"
          }
        ],
        "category": [
          {
            "coding": [
              {
                "system": "http://terminology.hl7.org/CodeSystem/observation-category",
                "code": "laboratory"
              }
            ]
          }
        ],
        "code": {
          "coding": [
            {
              "code": "32167-9",
              "system": "http://loinc.org",
              "display": "Clarity of Urine"
            }
          ],
          "text": "Clarity of Urine"
        },
        "text": {
          "status": "generated",
          "div": "<div xmlns=\"http://www.w3.org/1999/xhtml\"><table class=\"hl7__eu__lab__report\"><tr><th>Test</th><th>18-Sep-2019</th><th>Reference&#xA0;Range</th><th>Unit</th></tr><tr><td>Clarity of Urine</td></tr></table></div>"
        },
        "status": "final",
        "subject": {
          "reference": "urn:uuid:b09db424-2b26-42bc-b43d-932e4f77cf56",
          "display": "Θεμιστοκλής Λιναρδάκη"
        },
        "effectiveDateTime": "2019-09-18T06:16:00Z",
        "specimen": {
          "reference": "urn:uuid:ffd662eb-e7f3-419a-82bd-8b6f80c8ede9"
        }
      }
    },
    {
      "fullUrl": "urn:uuid:5e2ae4d9-f74f-4562-adbb-6fba9cc25aa1",
      "resource": {
        "resourceType": "Observation",
        "id": "5e2ae4d9-f74f-4562-adbb-6fba9cc25aa1",
        "meta": {
          "profile": [
            "http://hl7.eu/fhir/laboratory/StructureDefinition/Observation-resultslab-eu-lab"
          ]
        },
        "performer": [
          {
            "display": "The Central European Lab"
          }
        ],
        "category": [
          {
            "coding": [
              {
                "system": "http://terminology.hl7.org/CodeSystem/observation-category",
                "code": "laboratory"
              }
            ]
          }
        ],
        "code": {
          "coding": [
            {
              "code": "5778-6",
              "system": "http://loinc.org",
              "display": "Color of Urine"
            }
          ],
          "text": "Color of Urine"
        },
        "text": {
          "status": "generated",
          "div": "<div xmlns=\"http://www.w3.org/1999/xhtml\"><table class=\"hl7__eu__lab__report\"><tr><th>Test</th><th>18-Sep-2019</th><th>Reference&#xA0;Range</th><th>Unit</th></tr><tr><td>Color of Urine</td></tr></table></div>"
        },
        "status": "final",
        "subject": {
          "reference": "urn:uuid:b09db424-2b26-42bc-b43d-932e4f77cf56",
          "display": "Θεμιστοκλής Λιναρδάκη"
        },
        "effectiveDateTime": "2019-09-18T06:16:00Z",
        "specimen": {
          "reference": "urn:uuid:ffd662eb-e7f3-419a-82bd-8b6f80c8ede9"
        }
      }
    },
    {
      "fullUrl": "urn:uuid:5f8f9a04-b786-4658-ada9-96df48dab633",
      "resource": {
        "resourceType": "Observation",
        "id": "5f8f9a04-b786-4658-ada9-96df48dab633",
        "meta": {
          "profile": [
            "http://hl7.eu/fhir/laboratory/StructureDefinition/Observation-resultslab-eu-lab"
          ]
        },
        "performer": [
          {
            "display": "The Central European Lab"
          }
        ],
        "category": [
          {
            "coding": [
              {
                "system": "http://terminology.hl7.org/CodeSystem/observation-category",
                "code": "laboratory"
              }
            ]
          }
        ],
        "code": {
          "coding": [
            {
              "code": "5792-7",
              "system": "http://loinc.org",
              "display": "Glucose [Mass/volume] in Urine by Test strip"
            }
          ],
          "text": "Glucose [Mass/volume] in Urine by Test strip"
        },
        "valueQuantity": {
          "system": "http://unitsofmeasure.org",
          "value": 1.8,
          "unit": "mg/dL",
          "code": "mg/dL"
        },
        "referenceRange": [
          {
            "low": {
              "value": 0,
              "code": "mg/dL",
              "system": "http://unitsofmeasure.org"
            }
          },
          {
            "high": {
              "value": 0.8,
              "code": "mg/dL",
              "system": "http://unitsofmeasure.org"
            }
          }
        ],
        "interpretation": [
          {
            "coding": [
              {
                "code": "H",
                "system": "http://terminology.hl7.org/CodeSystem/v3-ObservationInterpretation",
                "display": "High"
              }
            ]
          }
        ],
        "text": {
          "status": "generated",
          "div": "<div xmlns=\"http://www.w3.org/1999/xhtml\"><table class=\"hl7__eu__lab__report\"><tr><th>Test</th><th>18-Sep-2019</th><th>Reference&#xA0;Range</th><th>Unit</th></tr><tr><td>Glucose [Mass/volume] in Urine by Test strip</td><td>1.8</td><td>0 - 0.8</td><td>H</td><td>mg/dL</td></tr></table></div>"
        },
        "status": "final",
        "subject": {
          "reference": "urn:uuid:b09db424-2b26-42bc-b43d-932e4f77cf56",
          "display": "Θεμιστοκλής Λιναρδάκη"
        },
        "effectiveDateTime": "2019-09-18T06:16:00Z",
        "specimen": {
          "reference": "urn:uuid:ffd662eb-e7f3-419a-82bd-8b6f80c8ede9"
        }
      }
    },
    {
      "fullUrl": "urn:uuid:96d8bddd-f379-49ee-a978-5620ba5e728f",
      "resource": {
        "resourceType": "Observation",
        "id": "96d8bddd-f379-49ee-a978-5620ba5e728f",
        "meta": {
          "profile": [
            "http://hl7.eu/fhir/laboratory/StructureDefinition/Observation-resultslab-eu-lab"
          ]
        },
        "performer": [
          {
            "display": "The Central European Lab"
          }
        ],
        "category": [
          {
            "coding": [
              {
                "system": "http://terminology.hl7.org/CodeSystem/observation-category",
                "code": "laboratory"
              }
            ]
          }
        ],
        "code": {
          "coding": [
            {
              "code": "25428-4",
              "system": "http://loinc.org",
              "display": "Glucose [Presence] in Urine by Test strip"
            }
          ],
          "text": "Glucose [Presence] in Urine by Test strip"
        },
        "text": {
          "status": "generated",
          "div": "<div xmlns=\"http://www.w3.org/1999/xhtml\"><table class=\"hl7__eu__lab__report\"><tr><th>Test</th><th>18-Sep-2019</th><th>Reference&#xA0;Range</th><th>Unit</th></tr><tr><td>Glucose [Presence] in Urine by Test strip</td></tr></table></div>"
        },
        "status": "final",
        "subject": {
          "reference": "urn:uuid:b09db424-2b26-42bc-b43d-932e4f77cf56",
          "display": "Θεμιστοκλής Λιναρδάκη"
        },
        "effectiveDateTime": "2019-09-18T06:16:00Z",
        "specimen": {
          "reference": "urn:uuid:ffd662eb-e7f3-419a-82bd-8b6f80c8ede9"
        }
      }
    },
    {
      "fullUrl": "urn:uuid:d509b09d-4252-4d9a-8a40-896098e1f184",
      "resource": {
        "resourceType": "Observation",
        "id": "d509b09d-4252-4d9a-8a40-896098e1f184",
        "meta": {
          "profile": [
            "http://hl7.eu/fhir/laboratory/StructureDefinition/Observation-resultslab-eu-lab"
          ]
        },
        "performer": [
          {
            "display": "The Central European Lab"
          }
        ],
        "category": [
          {
            "coding": [
              {
                "system": "http://terminology.hl7.org/CodeSystem/observation-category",
                "code": "laboratory"
              }
            ]
          }
        ],
        "code": {
          "coding": [
            {
              "code": "20505-4",
              "system": "http://loinc.org",
              "display": "Bilirubin.total [Mass/volume] in Urine by Test strip"
            }
          ],
          "text": "Bilirubin.total [Mass/volume] in Urine by Test strip"
        },
        "valueQuantity": {
          "system": "http://unitsofmeasure.org",
          "value": 0.9,
          "unit": "mg/dL",
          "code": "mg/dL"
        },
        "referenceRange": [
          {
            "low": {
              "value": 0.2,
              "code": "mg/dL",
              "system": "http://unitsofmeasure.org"
            }
          },
          {
            "high": {
              "value": 1,
              "code": "mg/dL",
              "system": "http://unitsofmeasure.org"
            }
          }
        ],
        "text": {
          "status": "generated",
          "div": "<div xmlns=\"http://www.w3.org/1999/xhtml\"><table class=\"hl7__eu__lab__report\"><tr><th>Test</th><th>18-Sep-2019</th><th>Reference&#xA0;Range</th><th>Unit</th></tr><tr><td>Bilirubin.total [Mass/volume] in Urine by Test strip</td><td>0.9</td><td>0.2 - 1</td><td></td><td>mg/dL</td></tr></table></div>"
        },
        "status": "final",
        "subject": {
          "reference": "urn:uuid:b09db424-2b26-42bc-b43d-932e4f77cf56",
          "display": "Θεμιστοκλής Λιναρδάκη"
        },
        "effectiveDateTime": "2019-09-18T06:16:00Z",
        "specimen": {
          "reference": "urn:uuid:ffd662eb-e7f3-419a-82bd-8b6f80c8ede9"
        }
      }
    },
    {
      "fullUrl": "urn:uuid:ac8b21f3-5eb6-4618-b9d6-87fe0306bf58",
      "resource": {
        "resourceType": "Observation",
        "id": "ac8b21f3-5eb6-4618-b9d6-87fe0306bf58",
        "meta": {
          "profile": [
            "http://hl7.eu/fhir/laboratory/StructureDefinition/Observation-resultslab-eu-lab"
          ]
        },
        "performer": [
          {
            "display": "The Central European Lab"
          }
        ],
        "category": [
          {
            "coding": [
              {
                "system": "http://terminology.hl7.org/CodeSystem/observation-category",
                "code": "laboratory"
              }
            ]
          }
        ],
        "code": {
          "coding": [
            {
              "code": "5770-3",
              "system": "http://loinc.org",
              "display": "Bilirubin.total [Presence] in Urine by Test strip"
            }
          ],
          "text": "Bilirubin.total [Presence] in Urine by Test strip"
        },
        "text": {
          "status": "generated",
          "div": "<div xmlns=\"http://www.w3.org/1999/xhtml\"><table class=\"hl7__eu__lab__report\"><tr><th>Test</th><th>18-Sep-2019</th><th>Reference&#xA0;Range</th><th>Unit</th></tr><tr><td>Bilirubin.total [Presence] in Urine by Test strip</td></tr></table></div>"
        },
        "status": "final",
        "subject": {
          "reference": "urn:uuid:b09db424-2b26-42bc-b43d-932e4f77cf56",
          "display": "Θεμιστοκλής Λιναρδάκη"
        },
        "effectiveDateTime": "2019-09-18T06:16:00Z",
        "specimen": {
          "reference": "urn:uuid:ffd662eb-e7f3-419a-82bd-8b6f80c8ede9"
        }
      }
    },
    {
      "fullUrl": "urn:uuid:0362e4ff-c8bb-4484-8132-08787fdd5905",
      "resource": {
        "resourceType": "Observation",
        "id": "0362e4ff-c8bb-4484-8132-08787fdd5905",
        "meta": {
          "profile": [
            "http://hl7.eu/fhir/laboratory/StructureDefinition/Observation-resultslab-eu-lab"
          ]
        },
        "performer": [
          {
            "display": "The Central European Lab"
          }
        ],
        "category": [
          {
            "coding": [
              {
                "system": "http://terminology.hl7.org/CodeSystem/observation-category",
                "code": "laboratory"
              }
            ]
          }
        ],
        "code": {
          "coding": [
            {
              "code": "5797-6",
              "system": "http://loinc.org",
              "display": "Ketones [Mass/volume] in Urine by Test strip"
            }
          ],
          "text": "Ketones [Mass/volume] in Urine by Test strip"
        },
        "valueQuantity": {
          "system": "http://unitsofmeasure.org",
          "value": 14.9,
          "unit": "mg/dL",
          "code": "mg/dL"
        },
        "referenceRange": [
          {
            "low": {
              "value": 0,
              "code": "mg/dL",
              "system": "http://unitsofmeasure.org"
            }
          },
          {
            "high": {
              "value": 5,
              "code": "mg/dL",
              "system": "http://unitsofmeasure.org"
            }
          }
        ],
        "interpretation": [
          {
            "coding": [
              {
                "code": "H",
                "system": "http://terminology.hl7.org/CodeSystem/v3-ObservationInterpretation",
                "display": "High"
              }
            ]
          }
        ],
        "text": {
          "status": "generated",
          "div": "<div xmlns=\"http://www.w3.org/1999/xhtml\"><table class=\"hl7__eu__lab__report\"><tr><th>Test</th><th>18-Sep-2019</th><th>Reference&#xA0;Range</th><th>Unit</th></tr><tr><td>Ketones [Mass/volume] in Urine by Test strip</td><td>14.9</td><td>0 - 5</td><td>H</td><td>mg/dL</td></tr></table></div>"
        },
        "status": "final",
        "subject": {
          "reference": "urn:uuid:b09db424-2b26-42bc-b43d-932e4f77cf56",
          "display": "Θεμιστοκλής Λιναρδάκη"
        },
        "effectiveDateTime": "2019-09-18T06:16:00Z",
        "specimen": {
          "reference": "urn:uuid:ffd662eb-e7f3-419a-82bd-8b6f80c8ede9"
        }
      }
    },
    {
      "fullUrl": "urn:uuid:57bf1af1-6686-45ef-ab5e-5a0c1b6fbd2a",
      "resource": {
        "resourceType": "Observation",
        "id": "57bf1af1-6686-45ef-ab5e-5a0c1b6fbd2a",
        "meta": {
          "profile": [
            "http://hl7.eu/fhir/laboratory/StructureDefinition/Observation-resultslab-eu-lab"
          ]
        },
        "performer": [
          {
            "display": "The Central European Lab"
          }
        ],
        "category": [
          {
            "coding": [
              {
                "system": "http://terminology.hl7.org/CodeSystem/observation-category",
                "code": "laboratory"
              }
            ]
          }
        ],
        "code": {
          "coding": [
            {
              "code": "2514-8",
              "system": "http://loinc.org",
              "display": "Ketones [Presence] in Urine by Test strip"
            }
          ],
          "text": "Ketones [Presence] in Urine by Test strip"
        },
        "text": {
          "status": "generated",
          "div": "<div xmlns=\"http://www.w3.org/1999/xhtml\"><table class=\"hl7__eu__lab__report\"><tr><th>Test</th><th>18-Sep-2019</th><th>Reference&#xA0;Range</th><th>Unit</th></tr><tr><td>Ketones [Presence] in Urine by Test strip</td></tr></table></div>"
        },
        "status": "final",
        "subject": {
          "reference": "urn:uuid:b09db424-2b26-42bc-b43d-932e4f77cf56",
          "display": "Θεμιστοκλής Λιναρδάκη"
        },
        "effectiveDateTime": "2019-09-18T06:16:00Z",
        "specimen": {
          "reference": "urn:uuid:ffd662eb-e7f3-419a-82bd-8b6f80c8ede9"
        }
      }
    },
    {
      "fullUrl": "urn:uuid:2d6bf586-911c-4285-9b49-9ff226315846",
      "resource": {
        "resourceType": "Observation",
        "id": "2d6bf586-911c-4285-9b49-9ff226315846",
        "meta": {
          "profile": [
            "http://hl7.eu/fhir/laboratory/StructureDefinition/Observation-resultslab-eu-lab"
          ]
        },
        "performer": [
          {
            "display": "The Central European Lab"
          }
        ],
        "category": [
          {
            "coding": [
              {
                "system": "http://terminology.hl7.org/CodeSystem/observation-category",
                "code": "laboratory"
              }
            ]
          }
        ],
        "code": {
          "coding": [
            {
              "code": "5811-5",
              "system": "http://loinc.org",
              "display": "Specific gravity of Urine by Test strip"
            }
          ],
          "text": "Specific gravity of Urine by Test strip"
        },
        "valueQuantity": {
          "system": "http://unitsofmeasure.org",
          "value": 1,
          "unit": "{nominal}",
          "code": "{nominal}"
        },
        "referenceRange": [
          {
            "low": {
              "value": 1.005,
              "code": "g/mL",
              "system": "http://unitsofmeasure.org"
            }
          },
          {
            "high": {
              "value": 1.03,
              "code": "g/mL",
              "system": "http://unitsofmeasure.org"
            }
          }
        ],
        "interpretation": [
          {
            "coding": [
              {
                "code": "L",
                "system": "http://terminology.hl7.org/CodeSystem/v3-ObservationInterpretation",
                "display": "Low"
              }
            ]
          }
        ],
        "text": {
          "status": "generated",
          "div": "<div xmlns=\"http://www.w3.org/1999/xhtml\"><table class=\"hl7__eu__lab__report\"><tr><th>Test</th><th>18-Sep-2019</th><th>Reference&#xA0;Range</th><th>Unit</th></tr><tr><td>Specific gravity of Urine by Test strip</td><td>1.0</td><td>1.005 - 1.03</td><td>L</td><td>{nominal}</td></tr></table></div>"
        },
        "status": "final",
        "subject": {
          "reference": "urn:uuid:b09db424-2b26-42bc-b43d-932e4f77cf56",
          "display": "Θεμιστοκλής Λιναρδάκη"
        },
        "effectiveDateTime": "2019-09-18T06:16:00Z",
        "specimen": {
          "reference": "urn:uuid:ffd662eb-e7f3-419a-82bd-8b6f80c8ede9"
        }
      }
    },
    {
      "fullUrl": "urn:uuid:debeccca-2b46-42f9-9222-d4e3eb572b46",
      "resource": {
        "resourceType": "Observation",
        "id": "debeccca-2b46-42f9-9222-d4e3eb572b46",
        "meta": {
          "profile": [
            "http://hl7.eu/fhir/laboratory/StructureDefinition/Observation-resultslab-eu-lab"
          ]
        },
        "performer": [
          {
            "display": "The Central European Lab"
          }
        ],
        "category": [
          {
            "coding": [
              {
                "system": "http://terminology.hl7.org/CodeSystem/observation-category",
                "code": "laboratory"
              }
            ]
          }
        ],
        "code": {
          "coding": [
            {
              "code": "5803-2",
              "system": "http://loinc.org",
              "display": "pH of Urine by Test strip"
            }
          ],
          "text": "pH of Urine by Test strip"
        },
        "valueQuantity": {
          "system": "http://unitsofmeasure.org",
          "value": 5.6,
          "unit": "pH",
          "code": "pH"
        },
        "referenceRange": [
          {
            "low": {
              "value": 4.6,
              "code": "pH",
              "system": "http://unitsofmeasure.org"
            }
          },
          {
            "high": {
              "value": 7,
              "code": "pH",
              "system": "http://unitsofmeasure.org"
            }
          }
        ],
        "text": {
          "status": "generated",
          "div": "<div xmlns=\"http://www.w3.org/1999/xhtml\"><table class=\"hl7__eu__lab__report\"><tr><th>Test</th><th>18-Sep-2019</th><th>Reference&#xA0;Range</th><th>Unit</th></tr><tr><td>pH of Urine by Test strip</td><td>5.6</td><td>4.6 - 7</td><td></td><td>pH</td></tr></table></div>"
        },
        "status": "final",
        "subject": {
          "reference": "urn:uuid:b09db424-2b26-42bc-b43d-932e4f77cf56",
          "display": "Θεμιστοκλής Λιναρδάκη"
        },
        "effectiveDateTime": "2019-09-18T06:16:00Z",
        "specimen": {
          "reference": "urn:uuid:ffd662eb-e7f3-419a-82bd-8b6f80c8ede9"
        }
      }
    },
    {
      "fullUrl": "urn:uuid:5995b9d3-5740-4bb5-ac5a-60ea3d7ba6e1",
      "resource": {
        "resourceType": "Observation",
        "id": "5995b9d3-5740-4bb5-ac5a-60ea3d7ba6e1",
        "meta": {
          "profile": [
            "http://hl7.eu/fhir/laboratory/StructureDefinition/Observation-resultslab-eu-lab"
          ]
        },
        "performer": [
          {
            "display": "The Central European Lab"
          }
        ],
        "category": [
          {
            "coding": [
              {
                "system": "http://terminology.hl7.org/CodeSystem/observation-category",
                "code": "laboratory"
              }
            ]
          }
        ],
        "code": {
          "coding": [
            {
              "code": "5804-0",
              "system": "http://loinc.org",
              "display": "Protein [Mass/volume] in Urine by Test strip"
            }
          ],
          "text": "Protein [Mass/volume] in Urine by Test strip"
        },
        "valueQuantity": {
          "system": "http://unitsofmeasure.org",
          "value": 241,
          "unit": "mg/dL",
          "code": "mg/dL"
        },
        "referenceRange": [
          {
            "low": {
              "value": 0,
              "code": "mg/dL",
              "system": "http://unitsofmeasure.org"
            }
          },
          {
            "high": {
              "value": 150,
              "code": "mg/dL",
              "system": "http://unitsofmeasure.org"
            }
          }
        ],
        "interpretation": [
          {
            "coding": [
              {
                "code": "H",
                "system": "http://terminology.hl7.org/CodeSystem/v3-ObservationInterpretation",
                "display": "High"
              }
            ]
          }
        ],
        "text": {
          "status": "generated",
          "div": "<div xmlns=\"http://www.w3.org/1999/xhtml\"><table class=\"hl7__eu__lab__report\"><tr><th>Test</th><th>18-Sep-2019</th><th>Reference&#xA0;Range</th><th>Unit</th></tr><tr><td>Protein [Mass/volume] in Urine by Test strip</td><td>241.0</td><td>0 - 150</td><td>H</td><td>mg/dL</td></tr></table></div>"
        },
        "status": "final",
        "subject": {
          "reference": "urn:uuid:b09db424-2b26-42bc-b43d-932e4f77cf56",
          "display": "Θεμιστοκλής Λιναρδάκη"
        },
        "effectiveDateTime": "2019-09-18T06:16:00Z",
        "specimen": {
          "reference": "urn:uuid:ffd662eb-e7f3-419a-82bd-8b6f80c8ede9"
        }
      }
    },
    {
      "fullUrl": "urn:uuid:aaa5bc94-3322-47d2-b79b-aa7ee9a1d7fb",
      "resource": {
        "resourceType": "Observation",
        "id": "aaa5bc94-3322-47d2-b79b-aa7ee9a1d7fb",
        "meta": {
          "profile": [
            "http://hl7.eu/fhir/laboratory/StructureDefinition/Observation-resultslab-eu-lab"
          ]
        },
        "performer": [
          {
            "display": "The Central European Lab"
          }
        ],
        "category": [
          {
            "coding": [
              {
                "system": "http://terminology.hl7.org/CodeSystem/observation-category",
                "code": "laboratory"
              }
            ]
          }
        ],
        "code": {
          "coding": [
            {
              "code": "20454-5",
              "system": "http://loinc.org",
              "display": "Protein [Presence] in Urine by Test strip"
            }
          ],
          "text": "Protein [Presence] in Urine by Test strip"
        },
        "text": {
          "status": "generated",
          "div": "<div xmlns=\"http://www.w3.org/1999/xhtml\"><table class=\"hl7__eu__lab__report\"><tr><th>Test</th><th>18-Sep-2019</th><th>Reference&#xA0;Range</th><th>Unit</th></tr><tr><td>Protein [Presence] in Urine by Test strip</td></tr></table></div>"
        },
        "status": "final",
        "subject": {
          "reference": "urn:uuid:b09db424-2b26-42bc-b43d-932e4f77cf56",
          "display": "Θεμιστοκλής Λιναρδάκη"
        },
        "effectiveDateTime": "2019-09-18T06:16:00Z",
        "specimen": {
          "reference": "urn:uuid:ffd662eb-e7f3-419a-82bd-8b6f80c8ede9"
        }
      }
    },
    {
      "fullUrl": "urn:uuid:484092a6-45e7-4db6-bde1-d9e00ce5642f",
      "resource": {
        "resourceType": "Observation",
        "id": "484092a6-45e7-4db6-bde1-d9e00ce5642f",
        "meta": {
          "profile": [
            "http://hl7.eu/fhir/laboratory/StructureDefinition/Observation-resultslab-eu-lab"
          ]
        },
        "performer": [
          {
            "display": "The Central European Lab"
          }
        ],
        "category": [
          {
            "coding": [
              {
                "system": "http://terminology.hl7.org/CodeSystem/observation-category",
                "code": "laboratory"
              }
            ]
          }
        ],
        "code": {
          "coding": [
            {
              "code": "5802-4",
              "system": "http://loinc.org",
              "display": "Nitrite [Presence] in Urine by Test strip"
            }
          ],
          "text": "Nitrite [Presence] in Urine by Test strip"
        },
        "text": {
          "status": "generated",
          "div": "<div xmlns=\"http://www.w3.org/1999/xhtml\"><table class=\"hl7__eu__lab__report\"><tr><th>Test</th><th>18-Sep-2019</th><th>Reference&#xA0;Range</th><th>Unit</th></tr><tr><td>Nitrite [Presence] in Urine by Test strip</td></tr></table></div>"
        },
        "status": "final",
        "subject": {
          "reference": "urn:uuid:b09db424-2b26-42bc-b43d-932e4f77cf56",
          "display": "Θεμιστοκλής Λιναρδάκη"
        },
        "effectiveDateTime": "2019-09-18T06:16:00Z",
        "specimen": {
          "reference": "urn:uuid:ffd662eb-e7f3-419a-82bd-8b6f80c8ede9"
        }
      }
    },
    {
      "fullUrl": "urn:uuid:21660941-6d4d-47e1-a52a-02f7290d6bdf",
      "resource": {
        "resourceType": "Observation",
        "id": "21660941-6d4d-47e1-a52a-02f7290d6bdf",
        "meta": {
          "profile": [
            "http://hl7.eu/fhir/laboratory/StructureDefinition/Observation-resultslab-eu-lab"
          ]
        },
        "performer": [
          {
            "display": "The Central European Lab"
          }
        ],
        "category": [
          {
            "coding": [
              {
                "system": "http://terminology.hl7.org/CodeSystem/observation-category",
                "code": "laboratory"
              }
            ]
          }
        ],
        "code": {
          "coding": [
            {
              "code": "5794-3",
              "system": "http://loinc.org",
              "display": "Hemoglobin [Presence] in Urine by Test strip"
            }
          ],
          "text": "Hemoglobin [Presence] in Urine by Test strip"
        },
        "text": {
          "status": "generated",
          "div": "<div xmlns=\"http://www.w3.org/1999/xhtml\"><table class=\"hl7__eu__lab__report\"><tr><th>Test</th><th>18-Sep-2019</th><th>Reference&#xA0;Range</th><th>Unit</th></tr><tr><td>Hemoglobin [Presence] in Urine by Test strip</td></tr></table></div>"
        },
        "status": "final",
        "subject": {
          "reference": "urn:uuid:b09db424-2b26-42bc-b43d-932e4f77cf56",
          "display": "Θεμιστοκλής Λιναρδάκη"
        },
        "effectiveDateTime": "2019-09-18T06:16:00Z",
        "specimen": {
          "reference": "urn:uuid:ffd662eb-e7f3-419a-82bd-8b6f80c8ede9"
        }
      }
    },
    {
      "fullUrl": "urn:uuid:2dde3032-a500-4fea-b89d-16bbcaad1bdd",
      "resource": {
        "resourceType": "Observation",
        "id": "2dde3032-a500-4fea-b89d-16bbcaad1bdd",
        "meta": {
          "profile": [
            "http://hl7.eu/fhir/laboratory/StructureDefinition/Observation-resultslab-eu-lab"
          ]
        },
        "performer": [
          {
            "display": "The Central European Lab"
          }
        ],
        "category": [
          {
            "coding": [
              {
                "system": "http://terminology.hl7.org/CodeSystem/observation-category",
                "code": "laboratory"
              }
            ]
          }
        ],
        "code": {
          "coding": [
            {
              "code": "5799-2",
              "system": "http://loinc.org",
              "display": "Leukocyte esterase [Presence] in Urine by Test strip"
            }
          ],
          "text": "Leukocyte esterase [Presence] in Urine by Test strip"
        },
        "text": {
          "status": "generated",
          "div": "<div xmlns=\"http://www.w3.org/1999/xhtml\"><table class=\"hl7__eu__lab__report\"><tr><th>Test</th><th>18-Sep-2019</th><th>Reference&#xA0;Range</th><th>Unit</th></tr><tr><td>Leukocyte esterase [Presence] in Urine by Test strip</td></tr></table></div>"
        },
        "status": "final",
        "subject": {
          "reference": "urn:uuid:b09db424-2b26-42bc-b43d-932e4f77cf56",
          "display": "Θεμιστοκλής Λιναρδάκη"
        },
        "effectiveDateTime": "2019-09-18T06:16:00Z",
        "specimen": {
          "reference": "urn:uuid:ffd662eb-e7f3-419a-82bd-8b6f80c8ede9"
        }
      }
    },
    {
      "fullUrl": "urn:uuid:157aea39-1325-4943-b08f-ee10936ea813",
      "resource": {
        "resourceType": "Observation",
        "id": "157aea39-1325-4943-b08f-ee10936ea813",
        "meta": {
          "profile": [
            "http://hl7.eu/fhir/laboratory/StructureDefinition/Observation-resultslab-eu-lab"
          ]
        },
        "performer": [
          {
            "display": "The Central European Lab"
          }
        ],
        "category": [
          {
            "coding": [
              {
                "system": "http://terminology.hl7.org/CodeSystem/observation-category",
                "code": "laboratory"
              }
            ]
          }
        ],
        "code": {
          "coding": [
            {
              "code": "4548-4",
              "system": "http://loinc.org",
              "display": "Hemoglobin A1c/Hemoglobin.total in Blood"
            }
          ],
          "text": "Hemoglobin A1c/Hemoglobin.total in Blood"
        },
        "valueQuantity": {
          "system": "http://unitsofmeasure.org",
          "value": 3.3,
          "unit": "%",
          "code": "%"
        },
        "referenceRange": [
          {
            "low": {
              "value": 4.3,
              "code": "%",
              "system": "http://unitsofmeasure.org"
            }
          },
          {
            "high": {
              "value": 6.4,
              "code": "%",
              "system": "http://unitsofmeasure.org"
            }
          }
        ],
        "interpretation": [
          {
            "coding": [
              {
                "code": "L",
                "system": "http://terminology.hl7.org/CodeSystem/v3-ObservationInterpretation",
                "display": "Low"
              }
            ]
          }
        ],
        "text": {
          "status": "generated",
          "div": "<div xmlns=\"http://www.w3.org/1999/xhtml\"><table class=\"hl7__eu__lab__report\"><tr><th>Test</th><th>18-Sep-2019</th><th>Reference&#xA0;Range</th><th>Unit</th></tr><tr><td>Hemoglobin A1c/Hemoglobin.total in Blood</td><td>3.3</td><td>4.3 - 6.4</td><td>L</td><td>%</td></tr></table></div>"
        },
        "status": "final",
        "subject": {
          "reference": "urn:uuid:b09db424-2b26-42bc-b43d-932e4f77cf56",
          "display": "Θεμιστοκλής Λιναρδάκη"
        },
        "effectiveDateTime": "2019-09-18T06:16:00Z",
        "specimen": {
          "reference": "urn:uuid:387d4e1b-8726-4ccf-a1c2-c4216c0a25e1"
        }
      }
    },
    {
      "fullUrl": "urn:uuid:f280f9b4-3fd7-4f85-8ca0-8962487a62ea",
      "resource": {
        "resourceType": "Observation",
        "id": "f280f9b4-3fd7-4f85-8ca0-8962487a62ea",
        "meta": {
          "profile": [
            "http://hl7.eu/fhir/laboratory/StructureDefinition/Observation-resultslab-eu-lab"
          ]
        },
        "performer": [
          {
            "display": "The Central European Lab"
          }
        ],
        "category": [
          {
            "coding": [
              {
                "system": "http://terminology.hl7.org/CodeSystem/observation-category",
                "code": "laboratory"
              }
            ]
          }
        ],
        "code": {
          "coding": [
            {
              "code": "2339-0",
              "system": "http://loinc.org",
              "display": "Glucose [Mass/volume] in Blood"
            }
          ],
          "text": "Glucose [Mass/volume] in Blood"
        },
        "valueQuantity": {
          "system": "http://unitsofmeasure.org",
          "value": 89.4,
          "unit": "mg/dL",
          "code": "mg/dL"
        },
        "referenceRange": [
          {
            "low": {
              "value": 70,
              "code": "mg/dL",
              "system": "http://unitsofmeasure.org"
            }
          },
          {
            "high": {
              "value": 140,
              "code": "mg/dL",
              "system": "http://unitsofmeasure.org"
            }
          }
        ],
        "text": {
          "status": "generated",
          "div": "<div xmlns=\"http://www.w3.org/1999/xhtml\"><table class=\"hl7__eu__lab__report\"><tr><th>Test</th><th>18-Sep-2019</th><th>Reference&#xA0;Range</th><th>Unit</th></tr><tr><td>Glucose [Mass/volume] in Blood</td><td>89.4</td><td>70 - 140</td><td></td><td>mg/dL</td></tr></table></div>"
        },
        "status": "final",
        "subject": {
          "reference": "urn:uuid:b09db424-2b26-42bc-b43d-932e4f77cf56",
          "display": "Θεμιστοκλής Λιναρδάκη"
        },
        "effectiveDateTime": "2019-09-18T06:16:00Z",
        "specimen": {
          "reference": "urn:uuid:387d4e1b-8726-4ccf-a1c2-c4216c0a25e1"
        }
      }
    },
    {
      "fullUrl": "urn:uuid:1d1d885d-f5fd-4dba-a6be-1a45f0e43d8a",
      "resource": {
        "resourceType": "Observation",
        "id": "1d1d885d-f5fd-4dba-a6be-1a45f0e43d8a",
        "meta": {
          "profile": [
            "http://hl7.eu/fhir/laboratory/StructureDefinition/Observation-resultslab-eu-lab"
          ]
        },
        "performer": [
          {
            "display": "The Central European Lab"
          }
        ],
        "category": [
          {
            "coding": [
              {
                "system": "http://terminology.hl7.org/CodeSystem/observation-category",
                "code": "laboratory"
              }
            ]
          }
        ],
        "code": {
          "coding": [
            {
              "code": "6299-2",
              "system": "http://loinc.org",
              "display": "Urea nitrogen [Mass/volume] in Blood"
            }
          ],
          "text": "Urea nitrogen [Mass/volume] in Blood"
        },
        "valueQuantity": {
          "system": "http://unitsofmeasure.org",
          "value": 12.2,
          "unit": "mg/dL",
          "code": "mg/dL"
        },
        "referenceRange": [
          {
            "low": {
              "value": 7,
              "code": "mg/dL",
              "system": "http://unitsofmeasure.org"
            }
          },
          {
            "high": {
              "value": 20,
              "code": "mg/dL",
              "system": "http://unitsofmeasure.org"
            }
          }
        ],
        "text": {
          "status": "generated",
          "div": "<div xmlns=\"http://www.w3.org/1999/xhtml\"><table class=\"hl7__eu__lab__report\"><tr><th>Test</th><th>18-Sep-2019</th><th>Reference&#xA0;Range</th><th>Unit</th></tr><tr><td>Urea nitrogen [Mass/volume] in Blood</td><td>12.2</td><td>7 - 20</td><td></td><td>mg/dL</td></tr></table></div>"
        },
        "status": "final",
        "subject": {
          "reference": "urn:uuid:b09db424-2b26-42bc-b43d-932e4f77cf56",
          "display": "Θεμιστοκλής Λιναρδάκη"
        },
        "effectiveDateTime": "2019-09-18T06:16:00Z",
        "specimen": {
          "reference": "urn:uuid:387d4e1b-8726-4ccf-a1c2-c4216c0a25e1"
        }
      }
    },
    {
      "fullUrl": "urn:uuid:ddc03f1e-d8fe-41f8-8ad3-b20f1c642480",
      "resource": {
        "resourceType": "Observation",
        "id": "ddc03f1e-d8fe-41f8-8ad3-b20f1c642480",
        "meta": {
          "profile": [
            "http://hl7.eu/fhir/laboratory/StructureDefinition/Observation-resultslab-eu-lab"
          ]
        },
        "performer": [
          {
            "display": "The Central European Lab"
          }
        ],
        "category": [
          {
            "coding": [
              {
                "system": "http://terminology.hl7.org/CodeSystem/observation-category",
                "code": "laboratory"
              }
            ]
          }
        ],
        "code": {
          "coding": [
            {
              "code": "38483-4",
              "system": "http://loinc.org",
              "display": "Creatinine [Mass/volume] in Blood"
            }
          ],
          "text": "Creatinine [Mass/volume] in Blood"
        },
        "valueQuantity": {
          "system": "http://unitsofmeasure.org",
          "value": 5.4,
          "unit": "mg/dL",
          "code": "mg/dL"
        },
        "referenceRange": [
          {
            "low": {
              "value": 0.6,
              "code": "mg/dL",
              "system": "http://unitsofmeasure.org"
            }
          },
          {
            "high": {
              "value": 1.3,
              "code": "mg/dL",
              "system": "http://unitsofmeasure.org"
            }
          }
        ],
        "interpretation": [
          {
            "coding": [
              {
                "code": "H",
                "system": "http://terminology.hl7.org/CodeSystem/v3-ObservationInterpretation",
                "display": "High"
              }
            ]
          }
        ],
        "text": {
          "status": "generated",
          "div": "<div xmlns=\"http://www.w3.org/1999/xhtml\"><table class=\"hl7__eu__lab__report\"><tr><th>Test</th><th>18-Sep-2019</th><th>Reference&#xA0;Range</th><th>Unit</th></tr><tr><td>Creatinine [Mass/volume] in Blood</td><td>5.4</td><td>0.6 - 1.3</td><td>H</td><td>mg/dL</td></tr></table></div>"
        },
        "status": "final",
        "subject": {
          "reference": "urn:uuid:b09db424-2b26-42bc-b43d-932e4f77cf56",
          "display": "Θεμιστοκλής Λιναρδάκη"
        },
        "effectiveDateTime": "2019-09-18T06:16:00Z",
        "specimen": {
          "reference": "urn:uuid:387d4e1b-8726-4ccf-a1c2-c4216c0a25e1"
        }
      }
    },
    {
      "fullUrl": "urn:uuid:c69a584a-8954-4a38-bd27-14abf5c7c36f",
      "resource": {
        "resourceType": "Observation",
        "id": "c69a584a-8954-4a38-bd27-14abf5c7c36f",
        "meta": {
          "profile": [
            "http://hl7.eu/fhir/laboratory/StructureDefinition/Observation-resultslab-eu-lab"
          ]
        },
        "performer": [
          {
            "display": "The Central European Lab"
          }
        ],
        "category": [
          {
            "coding": [
              {
                "system": "http://terminology.hl7.org/CodeSystem/observation-category",
                "code": "laboratory"
              }
            ]
          }
        ],
        "code": {
          "coding": [
            {
              "code": "49765-1",
              "system": "http://loinc.org",
              "display": "Calcium [Mass/volume] in Blood"
            }
          ],
          "text": "Calcium [Mass/volume] in Blood"
        },
        "valueQuantity": {
          "system": "http://unitsofmeasure.org",
          "value": 9.4,
          "unit": "mg/dL",
          "code": "mg/dL"
        },
        "referenceRange": [
          {
            "low": {
              "value": 8.5,
              "code": "mg/dL",
              "system": "http://unitsofmeasure.org"
            }
          },
          {
            "high": {
              "value": 10.5,
              "code": "mg/dL",
              "system": "http://unitsofmeasure.org"
            }
          }
        ],
        "text": {
          "status": "generated",
          "div": "<div xmlns=\"http://www.w3.org/1999/xhtml\"><table class=\"hl7__eu__lab__report\"><tr><th>Test</th><th>18-Sep-2019</th><th>Reference&#xA0;Range</th><th>Unit</th></tr><tr><td>Calcium [Mass/volume] in Blood</td><td>9.4</td><td>8.5 - 10.5</td><td></td><td>mg/dL</td></tr></table></div>"
        },
        "status": "final",
        "subject": {
          "reference": "urn:uuid:b09db424-2b26-42bc-b43d-932e4f77cf56",
          "display": "Θεμιστοκλής Λιναρδάκη"
        },
        "effectiveDateTime": "2019-09-18T06:16:00Z",
        "specimen": {
          "reference": "urn:uuid:387d4e1b-8726-4ccf-a1c2-c4216c0a25e1"
        }
      }
    },
    {
      "fullUrl": "urn:uuid:ad8d4037-281d-448c-8dc0-8aca9af8998d",
      "resource": {
        "resourceType": "Observation",
        "id": "ad8d4037-281d-448c-8dc0-8aca9af8998d",
        "meta": {
          "profile": [
            "http://hl7.eu/fhir/laboratory/StructureDefinition/Observation-resultslab-eu-lab"
          ]
        },
        "performer": [
          {
            "display": "The Central European Lab"
          }
        ],
        "category": [
          {
            "coding": [
              {
                "system": "http://terminology.hl7.org/CodeSystem/observation-category",
                "code": "laboratory"
              }
            ]
          }
        ],
        "code": {
          "coding": [
            {
              "code": "2947-0",
              "system": "http://loinc.org",
              "display": "Sodium [Moles/volume] in Blood"
            }
          ],
          "text": "Sodium [Moles/volume] in Blood"
        },
        "valueQuantity": {
          "system": "http://unitsofmeasure.org",
          "value": 139,
          "unit": "mmol/L",
          "code": "mmol/L"
        },
        "referenceRange": [
          {
            "low": {
              "value": 135,
              "code": "mmol/L",
              "system": "http://unitsofmeasure.org"
            }
          },
          {
            "high": {
              "value": 145,
              "code": "mmol/L",
              "system": "http://unitsofmeasure.org"
            }
          }
        ],
        "text": {
          "status": "generated",
          "div": "<div xmlns=\"http://www.w3.org/1999/xhtml\"><table class=\"hl7__eu__lab__report\"><tr><th>Test</th><th>18-Sep-2019</th><th>Reference&#xA0;Range</th><th>Unit</th></tr><tr><td>Sodium [Moles/volume] in Blood</td><td>139.0</td><td>135 - 145</td><td></td><td>mmol/L</td></tr></table></div>"
        },
        "status": "final",
        "subject": {
          "reference": "urn:uuid:b09db424-2b26-42bc-b43d-932e4f77cf56",
          "display": "Θεμιστοκλής Λιναρδάκη"
        },
        "effectiveDateTime": "2019-09-18T06:16:00Z",
        "specimen": {
          "reference": "urn:uuid:387d4e1b-8726-4ccf-a1c2-c4216c0a25e1"
        }
      }
    },
    {
      "fullUrl": "urn:uuid:32e1116c-31f6-42ff-8b3d-cd77bf372df1",
      "resource": {
        "resourceType": "Observation",
        "id": "32e1116c-31f6-42ff-8b3d-cd77bf372df1",
        "meta": {
          "profile": [
            "http://hl7.eu/fhir/laboratory/StructureDefinition/Observation-resultslab-eu-lab"
          ]
        },
        "performer": [
          {
            "display": "The Central European Lab"
          }
        ],
        "category": [
          {
            "coding": [
              {
                "system": "http://terminology.hl7.org/CodeSystem/observation-category",
                "code": "laboratory"
              }
            ]
          }
        ],
        "code": {
          "coding": [
            {
              "code": "6298-4",
              "system": "http://loinc.org",
              "display": "Potassium [Moles/volume] in Blood"
            }
          ],
          "text": "Potassium [Moles/volume] in Blood"
        },
        "valueQuantity": {
          "system": "http://unitsofmeasure.org",
          "value": 4.1,
          "unit": "mmol/L",
          "code": "mmol/L"
        },
        "referenceRange": [
          {
            "low": {
              "value": 3.5,
              "code": "mmol/L",
              "system": "http://unitsofmeasure.org"
            }
          },
          {
            "high": {
              "value": 5.3,
              "code": "mmol/L",
              "system": "http://unitsofmeasure.org"
            }
          }
        ],
        "text": {
          "status": "generated",
          "div": "<div xmlns=\"http://www.w3.org/1999/xhtml\"><table class=\"hl7__eu__lab__report\"><tr><th>Test</th><th>18-Sep-2019</th><th>Reference&#xA0;Range</th><th>Unit</th></tr><tr><td>Potassium [Moles/volume] in Blood</td><td>4.1</td><td>3.5 - 5.3</td><td></td><td>mmol/L</td></tr></table></div>"
        },
        "status": "final",
        "subject": {
          "reference": "urn:uuid:b09db424-2b26-42bc-b43d-932e4f77cf56",
          "display": "Θεμιστοκλής Λιναρδάκη"
        },
        "effectiveDateTime": "2019-09-18T06:16:00Z",
        "specimen": {
          "reference": "urn:uuid:387d4e1b-8726-4ccf-a1c2-c4216c0a25e1"
        }
      }
    },
    {
      "fullUrl": "urn:uuid:2656cc08-2864-4723-b9fa-5ef0748e0c8d",
      "resource": {
        "resourceType": "Observation",
        "id": "2656cc08-2864-4723-b9fa-5ef0748e0c8d",
        "meta": {
          "profile": [
            "http://hl7.eu/fhir/laboratory/StructureDefinition/Observation-resultslab-eu-lab"
          ]
        },
        "performer": [
          {
            "display": "The Central European Lab"
          }
        ],
        "category": [
          {
            "coding": [
              {
                "system": "http://terminology.hl7.org/CodeSystem/observation-category",
                "code": "laboratory"
              }
            ]
          }
        ],
        "code": {
          "coding": [
            {
              "code": "2069-3",
              "system": "http://loinc.org",
              "display": "Chloride [Moles/volume] in Blood"
            }
          ],
          "text": "Chloride [Moles/volume] in Blood"
        },
        "valueQuantity": {
          "system": "http://unitsofmeasure.org",
          "value": 111,
          "unit": "mmol/L",
          "code": "mmol/L"
        },
        "referenceRange": [
          {
            "low": {
              "value": 98,
              "code": "mmol/L",
              "system": "http://unitsofmeasure.org"
            }
          },
          {
            "high": {
              "value": 110,
              "code": "mmol/L",
              "system": "http://unitsofmeasure.org"
            }
          }
        ],
        "interpretation": [
          {
            "coding": [
              {
                "code": "H",
                "system": "http://terminology.hl7.org/CodeSystem/v3-ObservationInterpretation",
                "display": "High"
              }
            ]
          }
        ],
        "text": {
          "status": "generated",
          "div": "<div xmlns=\"http://www.w3.org/1999/xhtml\"><table class=\"hl7__eu__lab__report\"><tr><th>Test</th><th>18-Sep-2019</th><th>Reference&#xA0;Range</th><th>Unit</th></tr><tr><td>Chloride [Moles/volume] in Blood</td><td>111.0</td><td>98 - 110</td><td>H</td><td>mmol/L</td></tr></table></div>"
        },
        "status": "final",
        "subject": {
          "reference": "urn:uuid:b09db424-2b26-42bc-b43d-932e4f77cf56",
          "display": "Θεμιστοκλής Λιναρδάκη"
        },
        "effectiveDateTime": "2019-09-18T06:16:00Z",
        "specimen": {
          "reference": "urn:uuid:387d4e1b-8726-4ccf-a1c2-c4216c0a25e1"
        }
      }
    },
    {
      "fullUrl": "urn:uuid:f9ba670e-321e-457c-b058-492226d21287",
      "resource": {
        "resourceType": "Observation",
        "id": "f9ba670e-321e-457c-b058-492226d21287",
        "meta": {
          "profile": [
            "http://hl7.eu/fhir/laboratory/StructureDefinition/Observation-resultslab-eu-lab"
          ]
        },
        "performer": [
          {
            "display": "The Central European Lab"
          }
        ],
        "category": [
          {
            "coding": [
              {
                "system": "http://terminology.hl7.org/CodeSystem/observation-category",
                "code": "laboratory"
              }
            ]
          }
        ],
        "code": {
          "coding": [
            {
              "code": "20565-8",
              "system": "http://loinc.org",
              "display": "Carbon dioxide, total [Moles/volume] in Blood"
            }
          ],
          "text": "Carbon dioxide, total [Moles/volume] in Blood"
        },
        "valueQuantity": {
          "system": "http://unitsofmeasure.org",
          "value": 27.1,
          "unit": "mmol/L",
          "code": "mmol/L"
        },
        "referenceRange": [
          {
            "low": {
              "value": 22,
              "code": "mmol/L",
              "system": "http://unitsofmeasure.org"
            }
          },
          {
            "high": {
              "value": 29,
              "code": "mmol/L",
              "system": "http://unitsofmeasure.org"
            }
          }
        ],
        "text": {
          "status": "generated",
          "div": "<div xmlns=\"http://www.w3.org/1999/xhtml\"><table class=\"hl7__eu__lab__report\"><tr><th>Test</th><th>18-Sep-2019</th><th>Reference&#xA0;Range</th><th>Unit</th></tr><tr><td>Carbon dioxide, total [Moles/volume] in Blood</td><td>27.1</td><td>22 - 29</td><td></td><td>mmol/L</td></tr></table></div>"
        },
        "status": "final",
        "subject": {
          "reference": "urn:uuid:b09db424-2b26-42bc-b43d-932e4f77cf56",
          "display": "Θεμιστοκλής Λιναρδάκη"
        },
        "effectiveDateTime": "2019-09-18T06:16:00Z",
        "specimen": {
          "reference": "urn:uuid:387d4e1b-8726-4ccf-a1c2-c4216c0a25e1"
        }
      }
    },
    {
      "fullUrl": "urn:uuid:5af28289-75dc-4bd5-956d-60b15ac82059",
      "resource": {
        "resourceType": "Device",
        "id": "5af28289-75dc-4bd5-956d-60b15ac82059",
        "deviceName": [
          {
            "name": "SYNDERAI Synthetic Generator",
            "type": "manufacturer-name"
          }
        ],
        "version": [
          {
            "value": "5.0"
          }
        ],
        "text": {
          "status": "generated",
          "div": "<div xmlns=\"http://www.w3.org/1999/xhtml\">SYNDERAI Synthetic Generator v5.0</div>"
        },
        "status": "active\"",
        "distinctIdentifier": "synderai-generator-50",
        "manufacturer": "SYNDERAI Project"
      }
    },
    {
      "fullUrl": "urn:uuid:0b95d437-0d35-47f4-bc87-4965c4d803de",
      "resource": {
        "resourceType": "Provenance",
        "id": "0b95d437-0d35-47f4-bc87-4965c4d803de",
        "target": [
          {
            "reference": "Patient/b09db424-2b26-42bc-b43d-932e4f77cf56"
          },
          {
            "reference": "Bundle/5cd36168-5163-4ccb-b1a3-7fb0666f98bc"
          },
          {
            "reference": "Composition/451e0d42-7039-486a-8854-546ad880c46c"
          },
          {
            "reference": "PractitionerRole/8e528a25-b4f7-4d43-adf4-e3dc0cff244e"
          },
          {
            "reference": "Practitioner/afb4cc7e-e929-4e0f-82fa-1611b9578f05"
          },
          {
            "reference": "PractitionerRole/639b57bc-fe05-4f88-baa3-3431a9bcc314"
          },
          {
            "reference": "Organization/b7383614-9dbd-4c4b-8ab7-32a0a2a531ca"
          }
        ],
        "activity": {
          "text": "Synthetic Example Data Generation"
        },
        "policy": [
          "https://synderai.net/synderai-synthetic-data-policy"
        ],
        "agent": [
          {
            "type": {
              "text": "author"
            },
            "who": {
              "reference": "Device/5af28289-75dc-4bd5-956d-60b15ac82059"
            }
          }
        ],
        "reason": [
          {
            "text": "Interoperability Testing and Training (non-clinical use)"
          }
        ],
        "text": {
          "status": "generated",
          "div": "<div xmlns=\"http://www.w3.org/1999/xhtml\">Provenance for SYNDERAI Synthetic Example Data Resource</div>"
        },
        "recorded": "2019-09-18T08:16:00Z"
      }
    },
    {
      "fullUrl": "urn:uuid:8e528a25-b4f7-4d43-adf4-e3dc0cff244e",
      "resource": {
        "resourceType": "PractitionerRole",
        "id": "8e528a25-b4f7-4d43-adf4-e3dc0cff244e",
        "meta": {
          "profile": [
            "http://hl7.eu/fhir/base/StructureDefinition/practitionerRole-eu"
          ]
        },
        "text": {
          "status": "generated",
          "div": "<div xmlns=\"http://www.w3.org/1999/xhtml\">Laboratory Role Id: 8e528a25-b4f7-4d43-adf4-e3dc0cff244e</div>"
        },
        "practitioner": {
          "reference": "urn:uuid:afb4cc7e-e929-4e0f-82fa-1611b9578f05"
        }
      }
    },
    {
      "fullUrl": "urn:uuid:afb4cc7e-e929-4e0f-82fa-1611b9578f05",
      "resource": {
        "resourceType": "Practitioner",
        "id": "afb4cc7e-e929-4e0f-82fa-1611b9578f05",
        "meta": {
          "profile": [
            "http://hl7.eu/fhir/base/StructureDefinition/practitioner-eu"
          ]
        },
        "identifier": [
          {
            "assigner": {
              "display": "HL7 Europe"
            },
            "system": "urn:oid:2.16.840.1.113883.2.51.999",
            "value": "57b7af21-c9d3-47e3-b2ab-78b38ccc82bd"
          }
        ],
        "name": [
          {
            "prefix": [
              "dr"
            ],
            "given": [
              "Ex"
            ],
            "family": "Ample"
          }
        ],
        "address": [
          {
            "line": [
              "Laboratoire Central Européenne",
              "Boulevard du Jardin Botanique 32"
            ],
            "postalCode": "1000",
            "city": "Brussels",
            "country": "Belgium"
          }
        ],
        "text": {
          "status": "generated",
          "div": "<div xmlns=\"http://www.w3.org/1999/xhtml\">Laboratory: Laboratoire Central Européenne, 1000 Brussels, Belgium</div>"
        }
      }
    }
  ],
  "type": "document",
  "timestamp": "2019-09-18T08:16:00Z"
}
