{
  "resourceType": "Bundle",
  "id": "f024ae0f-11f2-4d78-a3e7-c6d820572d93",
  "meta": {
    "profile": [
      "http://hl7.eu/fhir/laboratory/StructureDefinition/Bundle-eu-lab"
    ]
  },
  "identifier": {
    "assigner": {
      "display": "HL7 Europe"
    },
    "system": "urn:oid:2.16.840.1.113883.2.51.999",
    "value": "1ab649f3-6956-4aed-9586-f66d2fcd655c"
  },
  "entry": [
    {
      "fullUrl": "urn:uuid:041f4b35-2cdc-4bab-97c4-7fa1563d2931",
      "resource": {
        "resourceType": "Composition",
        "id": "041f4b35-2cdc-4bab-97c4-7fa1563d2931",
        "meta": {
          "profile": [
            "http://hl7.eu/fhir/laboratory/StructureDefinition/Composition-eu-lab"
          ]
        },
        "identifier": {
          "assigner": {
            "display": "HL7 Europe"
          },
          "system": "urn:oid:2.16.840.1.113883.2.51.999",
          "value": "9aa4776d-4960-41ee-972f-e15bf30b9574"
        },
        "author": [
          {
            "reference": "urn:uuid:a960a0e6-4ddd-47e1-9311-eb8007a8b8a7"
          }
        ],
        "category": [
          {
            "coding": [
              {
                "code": "26436-6",
                "system": "http://loinc.org",
                "display": "Laboratory studies (set)"
              }
            ]
          }
        ],
        "type": {
          "coding": [
            {
              "code": "11502-2",
              "system": "http://loinc.org",
              "display": "Laboratory report"
            }
          ],
          "text": "Laboratory Report"
        },
        "section": [
          {
            "code": {
              "coding": [
                {
                  "code": "26436-6",
                  "system": "http://loinc.org",
                  "display": "Laboratory studies (set)"
                }
              ],
              "text": "Laboratory studies"
            },
            "section": [
              {
                "code": {
                  "coding": [
                    {
                      "code": "$18719-5",
                      "system": "http://loinc.org",
                      "display": "Chemistry studies (set)"
                    }
                  ],
                  "text": "Chemistry"
                },
                "entry": [
                  {
                    "reference": "urn:uuid:55c842d8-18e5-42e7-b8b4-5cb2eeb0dc62"
                  },
                  {
                    "reference": "urn:uuid:f799b00b-1bd3-4335-8f94-37fab52628d5"
                  },
                  {
                    "reference": "urn:uuid:e3ee8857-72dc-4f53-a18a-c201e689ae83"
                  },
                  {
                    "reference": "urn:uuid:b89c4814-e5cb-404c-a51e-efefa7d04509"
                  },
                  {
                    "reference": "urn:uuid:cc745931-6d1d-474d-b1ee-184377cd5777"
                  },
                  {
                    "reference": "urn:uuid:89207498-2f99-4a72-9228-8dc0d8b8aa22"
                  },
                  {
                    "reference": "urn:uuid:b21c56de-f29f-43f9-82e7-d4c8c73eb102"
                  },
                  {
                    "reference": "urn:uuid:b07bc24f-298c-4a71-a45a-6f4097204258"
                  },
                  {
                    "reference": "urn:uuid:a2cedf6b-5c1b-4aa7-a84f-1bfbbf9c1d14"
                  },
                  {
                    "reference": "urn:uuid:359f0834-e650-45f0-95b0-d14cb352caf6"
                  },
                  {
                    "reference": "urn:uuid:6911ecde-d0d1-40c0-bfa8-3f389c51573c"
                  },
                  {
                    "reference": "urn:uuid:92581c71-7aa7-4497-9d28-dcff6c1d9710"
                  },
                  {
                    "reference": "urn:uuid:2993d7dd-ea3a-45ee-8d78-649c60ac9e2c"
                  }
                ],
                "text": {
                  "status": "generated",
                  "div": "<div xmlns=\"http://www.w3.org/1999/xhtml\"><h3>Chemistry</h3><table class=\"hl7__eu__lab__report\"><thead><tr><th>Test</th><th>15-MAY-2024</th><th>Reference&#xA0;Range</th><th>Unit</th></tr></thead><tbody><tr><td>Hemoglobin A1c/Hemoglobin.total in Blood</td><td><strong>3.4 L</strong></td><td>4.5 - 6.4</td><td>%</td></tr><tr><td>Glucose [Mass/volume] in Blood</td><td>95.8</td><td>70 - 140</td><td>mg/dL</td></tr><tr><td>Urea nitrogen [Mass/volume] in Blood</td><td>19.6</td><td>7 - 30</td><td>mg/dL</td></tr><tr><td>Creatinine [Mass/volume] in Blood</td><td>0.9</td><td>0.5 - 1.3</td><td>mg/dL</td></tr><tr><td>Calcium [Mass/volume] in Blood</td><td>9.7</td><td>8.6 - 10.2</td><td>mg/dL</td></tr><tr><td>Sodium [Moles/volume] in Blood</td><td>140.7</td><td>135 - 145</td><td>mmol/L</td></tr><tr><td>Potassium [Moles/volume] in Blood</td><td>5.0</td><td>3.5 - 5.1</td><td>mmol/L</td></tr><tr><td>Chloride [Moles/volume] in Blood</td><td>101.1</td><td>98 - 114</td><td>mmol/L</td></tr><tr><td>Carbon dioxide, total [Moles/volume] in Blood</td><td>24.7</td><td>22 - 32</td><td>mmol/L</td></tr><tr><td>Cholesterol [Mass/volume] in Serum or Plasma</td><td>184.9</td><td>125 - 200</td><td>mg/dL</td></tr><tr><td>Triglyceride [Mass/volume] in Serum or Plasma</td><td>142.6</td><td>35 - 150</td><td>mg/dL</td></tr><tr><td>Cholesterol in LDL [Mass/volume] in Serum or Plasma by Direct assay</td><td>91.7</td><td>0 - 130</td><td>mg/dL</td></tr><tr><td>Cholesterol in HDL [Mass/volume] in Serum or Plasma</td><td>64.7</td><td>50 - 120</td><td>mg/dL</td></tr></tbody></table></div>"
                },
                "title": "Chemistry"
              }
            ],
            "title": "Laboratory Report"
          },
          {
            "text": {
              "status": "generated",
              "div": "<div xmlns=\"http://www.w3.org/1999/xhtml\"><h3>Annotation</h3><table class=\"hl7__eu__lab__report\"><tr><th>Conclusion and Recommendations based on this report and previous findings known to us</th></tr><tr><td>All parameters are within normal limits except for a low HbA1c (3.4%), which may suggest recent hypoglycemia, anemia, or altered red cell turnover. Glucose is normal, and renal, electrolyte, and lipid profiles are unremarkable. Correlate low HbA1c with clinical context; consider further evaluation if symptoms or risk factors are present.</td></tr></table></div>"
            },
            "code": {
              "coding": [
                {
                  "system": "http://loinc.org",
                  "code": "48767-8",
                  "display": "Annotation comment"
                }
              ]
            },
            "title": "Annotation comment"
          }
        ],
        "status": "final",
        "subject": {
          "reference": "urn:uuid:ab368f65-8855-448b-b9a3-4e11ae0e05d1",
          "display": "Maria Nohlmans"
        },
        "date": "2024-05-15T13:02:39Z",
        "title": "Laboratory Report",
        "confidentiality": "N"
      }
    },
    {
      "fullUrl": "urn:uuid:b9b8ca78-0eaf-44d2-8715-31e8b60ab6d2",
      "resource": {
        "resourceType": "DiagnosticReport",
        "id": "b9b8ca78-0eaf-44d2-8715-31e8b60ab6d2",
        "meta": {
          "profile": [
            "http://hl7.eu/fhir/laboratory/StructureDefinition/DiagnosticReport-eu-lab"
          ]
        },
        "identifier": [
          {
            "assigner": {
              "display": "HL7 Europe"
            },
            "system": "urn:oid:2.16.840.1.113883.2.51.999",
            "value": "a9e7b85c-3da9-463c-a658-35b79859cf6e"
          }
        ],
        "extension": [
          {
            "url": "http://hl7.org/fhir/5.0/StructureDefinition/extension-DiagnosticReport.composition",
            "valueReference": {
              "reference": "urn:uuid:9aa4776d-4960-41ee-972f-e15bf30b9574"
            }
          }
        ],
        "category": [
          {
            "coding": [
              {
                "code": "26436-6",
                "system": "http://loinc.org",
                "display": "Laboratory studies (set)"
              }
            ]
          }
        ],
        "specimen": [
          {
            "reference": "urn:uuid:354a2e5f-1124-4eeb-bb89-048e784643f1"
          },
          {
            "reference": "urn:uuid:10946a6e-ab70-45b1-b66b-b0e2bd910251"
          }
        ],
        "result": [
          {
            "reference": "urn:uuid:55c842d8-18e5-42e7-b8b4-5cb2eeb0dc62"
          },
          {
            "reference": "urn:uuid:f799b00b-1bd3-4335-8f94-37fab52628d5"
          },
          {
            "reference": "urn:uuid:e3ee8857-72dc-4f53-a18a-c201e689ae83"
          },
          {
            "reference": "urn:uuid:b89c4814-e5cb-404c-a51e-efefa7d04509"
          },
          {
            "reference": "urn:uuid:cc745931-6d1d-474d-b1ee-184377cd5777"
          },
          {
            "reference": "urn:uuid:89207498-2f99-4a72-9228-8dc0d8b8aa22"
          },
          {
            "reference": "urn:uuid:b21c56de-f29f-43f9-82e7-d4c8c73eb102"
          },
          {
            "reference": "urn:uuid:b07bc24f-298c-4a71-a45a-6f4097204258"
          },
          {
            "reference": "urn:uuid:a2cedf6b-5c1b-4aa7-a84f-1bfbbf9c1d14"
          },
          {
            "reference": "urn:uuid:359f0834-e650-45f0-95b0-d14cb352caf6"
          },
          {
            "reference": "urn:uuid:6911ecde-d0d1-40c0-bfa8-3f389c51573c"
          },
          {
            "reference": "urn:uuid:92581c71-7aa7-4497-9d28-dcff6c1d9710"
          },
          {
            "reference": "urn:uuid:2993d7dd-ea3a-45ee-8d78-649c60ac9e2c"
          }
        ],
        "status": "registered",
        "code": {
          "coding": [
            {
              "code": "11502-2",
              "system": "http://loinc.org",
              "display": "Laboratory report"
            }
          ]
        },
        "subject": {
          "reference": "urn:uuid:ab368f65-8855-448b-b9a3-4e11ae0e05d1",
          "display": "Maria Nohlmans"
        }
      }
    },
    {
      "fullUrl": "urn:uuid:ab368f65-8855-448b-b9a3-4e11ae0e05d1",
      "resource": {
        "resourceType": "Patient",
        "id": "ab368f65-8855-448b-b9a3-4e11ae0e05d1",
        "meta": {
          "security": [
            {
              "system": "http://terminology.hl7.org/CodeSystem/v3-ActReason",
              "code": "HTEST"
            },
            {
              "system": "http://terminology.hl7.org/CodeSystem/v3-ActReason",
              "code": "TRAIN"
            }
          ],
          "tag": [
            {
              "system": "https://synderai.net/fhir/CodeSystem/tags",
              "code": "synthetic",
              "display": "SYNDERAI Synthetic data"
            }
          ],
          "profile": [
            "http://hl7.eu/fhir/base/StructureDefinition/patient-eu-core"
          ]
        },
        "identifier": [
          {
            "type": {
              "coding": [
                {
                  "code": "PT",
                  "system": "http://terminology.hl7.org/CodeSystem/v2-0203"
                }
              ]
            },
            "system": "http://ec.europa.eu/identifier/eci",
            "value": "6886-506417-1"
          },
          {
            "type": {
              "coding": [
                {
                  "code": "MR",
                  "system": "http://terminology.hl7.org/CodeSystem/v2-0203"
                }
              ]
            },
            "system": "http://local.setting.eu/identifier",
            "value": "2cb21ed6-b617-b1f3-2290-589a710de5ee"
          }
        ],
        "name": [
          {
            "family": "Nohlmans"
          },
          {
            "given": [
              "Maria"
            ]
          },
          {
            "text": "Maria Nohlmans"
          }
        ],
        "address": [
          {
            "line": [
              "Alfons-Wulff-Weg 1"
            ],
            "use": "home",
            "type": "physical",
            "postalCode": "25813",
            "city": "Husum",
            "country": "Germany"
          }
        ],
        "telecom": [
          {
            "system": "phone",
            "value": "+49(0)1911 105501"
          }
        ],
        "extension": [
          {
            "url": "http://hl7.org/fhir/StructureDefinition/patient-nationality",
            "valueCodeableConcept": {
              "coding": [
                {
                  "code": "DE",
                  "system": "http://hl7.org/fhir/ValueSet/country"
                }
              ]
            }
          }
        ],
        "text": {
          "status": "generated",
          "div": "<div xmlns=\"http://www.w3.org/1999/xhtml\"><table class=\"hl7__ips\"><tr><td>Maria Nohlmans</td><td>female</td><td>11-Jun-1947</td></tr></table></div>"
        },
        "gender": "female",
        "birthDate": "1947-06-11"
      }
    },
    {
      "fullUrl": "urn:uuid:104685e6-30d9-4433-b0a3-217a7fe738e3",
      "resource": {
        "resourceType": "ServiceRequest",
        "id": "104685e6-30d9-4433-b0a3-217a7fe738e3",
        "meta": {
          "profile": [
            "http://hl7.eu/fhir/laboratory/StructureDefinition/ServiceRequest-eu-lab"
          ]
        },
        "identifier": [
          {
            "system": "http://example.org",
            "value": "d95c4c5a-a45d-4182-9efd-f1fc456044eb"
          }
        ],
        "specimen": [
          {
            "reference": "urn:uuid:354a2e5f-1124-4eeb-bb89-048e784643f1"
          },
          {
            "reference": "urn:uuid:10946a6e-ab70-45b1-b66b-b0e2bd910251"
          }
        ],
        "reasonCode": [
          {
            "coding": [
              {
                "code": "401314000",
                "system": "http://snomed.info/sct",
                "display": "Acute non-ST segment elevation myocardial infarction"
              }
            ]
          },
          {
            "coding": [
              {
                "code": "157141000119108",
                "system": "http://snomed.info/sct",
                "display": "Proteinuria due to type 2 diabetes mellitus"
              }
            ]
          },
          {
            "coding": [
              {
                "code": "237602007",
                "system": "http://snomed.info/sct",
                "display": "Metabolic syndrome X"
              }
            ]
          },
          {
            "coding": [
              {
                "code": "90781000119102",
                "system": "http://snomed.info/sct",
                "display": "Microalbuminuria due to type 2 diabetes mellitus"
              }
            ]
          },
          {
            "coding": [
              {
                "code": "127013003",
                "system": "http://snomed.info/sct",
                "display": "Disorder of kidney due to diabetes mellitus"
              }
            ]
          },
          {
            "coding": [
              {
                "code": "59621000",
                "system": "http://snomed.info/sct",
                "display": "Essential hypertension"
              }
            ]
          },
          {
            "coding": [
              {
                "code": "271737000",
                "system": "http://snomed.info/sct",
                "display": "Anemia"
              }
            ]
          },
          {
            "coding": [
              {
                "code": "15777000",
                "system": "http://snomed.info/sct",
                "display": "Prediabetes"
              }
            ]
          }
        ],
        "status": "active",
        "intent": "order",
        "code": {
          "coding": [
            {
              "code": "108252007",
              "system": "http://snomed.info/sct",
              "display": "Laboratory procedure"
            }
          ]
        },
        "subject": {
          "reference": "urn:uuid:ab368f65-8855-448b-b9a3-4e11ae0e05d1",
          "display": "Maria Nohlmans"
        },
        "requester": {
          "reference": "urn:uuid:95585117-c4a8-4aa1-a32e-4e50b227d180"
        }
      }
    },
    {
      "fullUrl": "urn:uuid:95585117-c4a8-4aa1-a32e-4e50b227d180",
      "resource": {
        "resourceType": "PractitionerRole",
        "id": "95585117-c4a8-4aa1-a32e-4e50b227d180",
        "meta": {
          "profile": [
            "http://hl7.eu/fhir/base/StructureDefinition/practitionerRole-eu"
          ]
        },
        "text": {
          "status": "generated",
          "div": "<div xmlns=\"http://www.w3.org/1999/xhtml\">Provider Role Id: 95585117-c4a8-4aa1-a32e-4e50b227d180</div>"
        },
        "organization": {
          "reference": "urn:uuid:09b6fca0-0c27-4d96-b957-26554a423b98"
        }
      }
    },
    {
      "fullUrl": "urn:uuid:09b6fca0-0c27-4d96-b957-26554a423b98",
      "resource": {
        "resourceType": "Organization",
        "id": "09b6fca0-0c27-4d96-b957-26554a423b98",
        "meta": {
          "profile": [
            "http://hl7.eu/fhir/base/StructureDefinition/organization-eu"
          ]
        },
        "identifier": [
          {
            "assigner": {
              "display": "HL7 Europe"
            },
            "system": "urn:oid:2.16.840.1.113883.2.51.999",
            "value": "cdfb64a0-1930-449e-869c-24edbfd2840b"
          }
        ],
        "address": [
          {
            "line": [
              "Brinckmannstraße 35"
            ],
            "city": "Husum",
            "postalCode": "25813",
            "country": "Germany"
          }
        ],
        "text": {
          "status": "generated",
          "div": "<div xmlns=\"http://www.w3.org/1999/xhtml\">Provider Organization: Dr. Wolfram Hussels Kieferorthopäde</div>"
        },
        "name": "Dr. Wolfram Hussels Kieferorthopäde"
      }
    },
    {
      "fullUrl": "urn:uuid:354a2e5f-1124-4eeb-bb89-048e784643f1",
      "resource": {
        "resourceType": "Specimen",
        "id": "354a2e5f-1124-4eeb-bb89-048e784643f1",
        "meta": {
          "profile": [
            "http://hl7.eu/fhir/laboratory/StructureDefinition/Specimen-eu-lab"
          ]
        },
        "collection": {
          "collectedDateTime": "2024-05-15"
        },
        "text": {
          "status": "generated",
          "div": "<div xmlns=\"http://www.w3.org/1999/xhtml\"><table class=\"hl7__eu__lab__report\"><tr><th>Specimen</th><th>Collection Date</th></tr><tr><td>Whole blood specimen (specimen)</td><td><span class=\"nb\">15-May-2024</span></td></tr></table></div>"
        },
        "type": {
          "coding": [
            {
              "code": "258580003",
              "system": "http://snomed.info/sct",
              "display": "Whole blood specimen (specimen)"
            }
          ]
        }
      }
    },
    {
      "fullUrl": "urn:uuid:10946a6e-ab70-45b1-b66b-b0e2bd910251",
      "resource": {
        "resourceType": "Specimen",
        "id": "10946a6e-ab70-45b1-b66b-b0e2bd910251",
        "meta": {
          "profile": [
            "http://hl7.eu/fhir/laboratory/StructureDefinition/Specimen-eu-lab"
          ]
        },
        "collection": {
          "collectedDateTime": "2024-05-15"
        },
        "text": {
          "status": "generated",
          "div": "<div xmlns=\"http://www.w3.org/1999/xhtml\"><table class=\"hl7__eu__lab__report\"><tr><th>Specimen</th><th>Collection Date</th></tr><tr><td>Acellular blood (serum or plasma) specimen</td><td><span class=\"nb\">15-May-2024</span></td></tr></table></div>"
        },
        "type": {
          "coding": [
            {
              "code": "122592007",
              "system": "http://snomed.info/sct",
              "display": "Acellular blood (serum or plasma) specimen"
            }
          ]
        }
      }
    },
    {
      "fullUrl": "urn:uuid:55c842d8-18e5-42e7-b8b4-5cb2eeb0dc62",
      "resource": {
        "resourceType": "Observation",
        "id": "55c842d8-18e5-42e7-b8b4-5cb2eeb0dc62",
        "meta": {
          "profile": [
            "http://hl7.eu/fhir/laboratory/StructureDefinition/Observation-resultslab-eu-lab"
          ]
        },
        "performer": [
          {
            "display": "The Central European Lab"
          }
        ],
        "category": [
          {
            "coding": [
              {
                "system": "http://terminology.hl7.org/CodeSystem/observation-category",
                "code": "laboratory"
              }
            ]
          }
        ],
        "code": {
          "coding": [
            {
              "code": "4548-4",
              "system": "http://loinc.org",
              "display": "Hemoglobin A1c/Hemoglobin.total in Blood"
            }
          ],
          "text": "Hemoglobin A1c/Hemoglobin.total in Blood"
        },
        "valueQuantity": {
          "system": "http://unitsofmeasure.org",
          "value": 3.4,
          "unit": "%",
          "code": "%"
        },
        "referenceRange": [
          {
            "low": {
              "value": 4.5,
              "code": "%",
              "system": "http://unitsofmeasure.org"
            }
          },
          {
            "high": {
              "value": 6.4,
              "code": "%",
              "system": "http://unitsofmeasure.org"
            }
          }
        ],
        "interpretation": [
          {
            "coding": [
              {
                "code": "L",
                "system": "http://terminology.hl7.org/CodeSystem/v3-ObservationInterpretation",
                "display": "Low"
              }
            ]
          }
        ],
        "text": {
          "status": "generated",
          "div": "<div xmlns=\"http://www.w3.org/1999/xhtml\"><table class=\"hl7__eu__lab__report\"><tr><th>Test</th><th>15-May-2024</th><th>Reference&#xA0;Range</th><th>Unit</th></tr><tr><td>Hemoglobin A1c/Hemoglobin.total in Blood</td><td>3.4</td><td>4.5 - 6.4</td><td>L</td><td>%</td></tr></table></div>"
        },
        "status": "final",
        "subject": {
          "reference": "urn:uuid:ab368f65-8855-448b-b9a3-4e11ae0e05d1",
          "display": "Maria Nohlmans"
        },
        "effectiveDateTime": "2024-05-15T11:02:39Z",
        "specimen": {
          "reference": "urn:uuid:354a2e5f-1124-4eeb-bb89-048e784643f1"
        }
      }
    },
    {
      "fullUrl": "urn:uuid:f799b00b-1bd3-4335-8f94-37fab52628d5",
      "resource": {
        "resourceType": "Observation",
        "id": "f799b00b-1bd3-4335-8f94-37fab52628d5",
        "meta": {
          "profile": [
            "http://hl7.eu/fhir/laboratory/StructureDefinition/Observation-resultslab-eu-lab"
          ]
        },
        "performer": [
          {
            "display": "The Central European Lab"
          }
        ],
        "category": [
          {
            "coding": [
              {
                "system": "http://terminology.hl7.org/CodeSystem/observation-category",
                "code": "laboratory"
              }
            ]
          }
        ],
        "code": {
          "coding": [
            {
              "code": "2339-0",
              "system": "http://loinc.org",
              "display": "Glucose [Mass/volume] in Blood"
            }
          ],
          "text": "Glucose [Mass/volume] in Blood"
        },
        "valueQuantity": {
          "system": "http://unitsofmeasure.org",
          "value": 95.8,
          "unit": "mg/dL",
          "code": "mg/dL"
        },
        "referenceRange": [
          {
            "low": {
              "value": 70,
              "code": "mg/dL",
              "system": "http://unitsofmeasure.org"
            }
          },
          {
            "high": {
              "value": 140,
              "code": "mg/dL",
              "system": "http://unitsofmeasure.org"
            }
          }
        ],
        "text": {
          "status": "generated",
          "div": "<div xmlns=\"http://www.w3.org/1999/xhtml\"><table class=\"hl7__eu__lab__report\"><tr><th>Test</th><th>15-May-2024</th><th>Reference&#xA0;Range</th><th>Unit</th></tr><tr><td>Glucose [Mass/volume] in Blood</td><td>95.8</td><td>70 - 140</td><td></td><td>mg/dL</td></tr></table></div>"
        },
        "status": "final",
        "subject": {
          "reference": "urn:uuid:ab368f65-8855-448b-b9a3-4e11ae0e05d1",
          "display": "Maria Nohlmans"
        },
        "effectiveDateTime": "2024-05-15T11:02:39Z",
        "specimen": {
          "reference": "urn:uuid:354a2e5f-1124-4eeb-bb89-048e784643f1"
        }
      }
    },
    {
      "fullUrl": "urn:uuid:e3ee8857-72dc-4f53-a18a-c201e689ae83",
      "resource": {
        "resourceType": "Observation",
        "id": "e3ee8857-72dc-4f53-a18a-c201e689ae83",
        "meta": {
          "profile": [
            "http://hl7.eu/fhir/laboratory/StructureDefinition/Observation-resultslab-eu-lab"
          ]
        },
        "performer": [
          {
            "display": "The Central European Lab"
          }
        ],
        "category": [
          {
            "coding": [
              {
                "system": "http://terminology.hl7.org/CodeSystem/observation-category",
                "code": "laboratory"
              }
            ]
          }
        ],
        "code": {
          "coding": [
            {
              "code": "6299-2",
              "system": "http://loinc.org",
              "display": "Urea nitrogen [Mass/volume] in Blood"
            }
          ],
          "text": "Urea nitrogen [Mass/volume] in Blood"
        },
        "valueQuantity": {
          "system": "http://unitsofmeasure.org",
          "value": 19.6,
          "unit": "mg/dL",
          "code": "mg/dL"
        },
        "referenceRange": [
          {
            "low": {
              "value": 7,
              "code": "mg/dL",
              "system": "http://unitsofmeasure.org"
            }
          },
          {
            "high": {
              "value": 30,
              "code": "mg/dL",
              "system": "http://unitsofmeasure.org"
            }
          }
        ],
        "text": {
          "status": "generated",
          "div": "<div xmlns=\"http://www.w3.org/1999/xhtml\"><table class=\"hl7__eu__lab__report\"><tr><th>Test</th><th>15-May-2024</th><th>Reference&#xA0;Range</th><th>Unit</th></tr><tr><td>Urea nitrogen [Mass/volume] in Blood</td><td>19.6</td><td>7 - 30</td><td></td><td>mg/dL</td></tr></table></div>"
        },
        "status": "final",
        "subject": {
          "reference": "urn:uuid:ab368f65-8855-448b-b9a3-4e11ae0e05d1",
          "display": "Maria Nohlmans"
        },
        "effectiveDateTime": "2024-05-15T11:02:39Z",
        "specimen": {
          "reference": "urn:uuid:354a2e5f-1124-4eeb-bb89-048e784643f1"
        }
      }
    },
    {
      "fullUrl": "urn:uuid:b89c4814-e5cb-404c-a51e-efefa7d04509",
      "resource": {
        "resourceType": "Observation",
        "id": "b89c4814-e5cb-404c-a51e-efefa7d04509",
        "meta": {
          "profile": [
            "http://hl7.eu/fhir/laboratory/StructureDefinition/Observation-resultslab-eu-lab"
          ]
        },
        "performer": [
          {
            "display": "The Central European Lab"
          }
        ],
        "category": [
          {
            "coding": [
              {
                "system": "http://terminology.hl7.org/CodeSystem/observation-category",
                "code": "laboratory"
              }
            ]
          }
        ],
        "code": {
          "coding": [
            {
              "code": "38483-4",
              "system": "http://loinc.org",
              "display": "Creatinine [Mass/volume] in Blood"
            }
          ],
          "text": "Creatinine [Mass/volume] in Blood"
        },
        "valueQuantity": {
          "system": "http://unitsofmeasure.org",
          "value": 0.9,
          "unit": "mg/dL",
          "code": "mg/dL"
        },
        "referenceRange": [
          {
            "low": {
              "value": 0.5,
              "code": "mg/dL",
              "system": "http://unitsofmeasure.org"
            }
          },
          {
            "high": {
              "value": 1.3,
              "code": "mg/dL",
              "system": "http://unitsofmeasure.org"
            }
          }
        ],
        "text": {
          "status": "generated",
          "div": "<div xmlns=\"http://www.w3.org/1999/xhtml\"><table class=\"hl7__eu__lab__report\"><tr><th>Test</th><th>15-May-2024</th><th>Reference&#xA0;Range</th><th>Unit</th></tr><tr><td>Creatinine [Mass/volume] in Blood</td><td>0.9</td><td>0.5 - 1.3</td><td></td><td>mg/dL</td></tr></table></div>"
        },
        "status": "final",
        "subject": {
          "reference": "urn:uuid:ab368f65-8855-448b-b9a3-4e11ae0e05d1",
          "display": "Maria Nohlmans"
        },
        "effectiveDateTime": "2024-05-15T11:02:39Z",
        "specimen": {
          "reference": "urn:uuid:354a2e5f-1124-4eeb-bb89-048e784643f1"
        }
      }
    },
    {
      "fullUrl": "urn:uuid:cc745931-6d1d-474d-b1ee-184377cd5777",
      "resource": {
        "resourceType": "Observation",
        "id": "cc745931-6d1d-474d-b1ee-184377cd5777",
        "meta": {
          "profile": [
            "http://hl7.eu/fhir/laboratory/StructureDefinition/Observation-resultslab-eu-lab"
          ]
        },
        "performer": [
          {
            "display": "The Central European Lab"
          }
        ],
        "category": [
          {
            "coding": [
              {
                "system": "http://terminology.hl7.org/CodeSystem/observation-category",
                "code": "laboratory"
              }
            ]
          }
        ],
        "code": {
          "coding": [
            {
              "code": "49765-1",
              "system": "http://loinc.org",
              "display": "Calcium [Mass/volume] in Blood"
            }
          ],
          "text": "Calcium [Mass/volume] in Blood"
        },
        "valueQuantity": {
          "system": "http://unitsofmeasure.org",
          "value": 9.7,
          "unit": "mg/dL",
          "code": "mg/dL"
        },
        "referenceRange": [
          {
            "low": {
              "value": 8.6,
              "code": "mg/dL",
              "system": "http://unitsofmeasure.org"
            }
          },
          {
            "high": {
              "value": 10.2,
              "code": "mg/dL",
              "system": "http://unitsofmeasure.org"
            }
          }
        ],
        "text": {
          "status": "generated",
          "div": "<div xmlns=\"http://www.w3.org/1999/xhtml\"><table class=\"hl7__eu__lab__report\"><tr><th>Test</th><th>15-May-2024</th><th>Reference&#xA0;Range</th><th>Unit</th></tr><tr><td>Calcium [Mass/volume] in Blood</td><td>9.7</td><td>8.6 - 10.2</td><td></td><td>mg/dL</td></tr></table></div>"
        },
        "status": "final",
        "subject": {
          "reference": "urn:uuid:ab368f65-8855-448b-b9a3-4e11ae0e05d1",
          "display": "Maria Nohlmans"
        },
        "effectiveDateTime": "2024-05-15T11:02:39Z",
        "specimen": {
          "reference": "urn:uuid:354a2e5f-1124-4eeb-bb89-048e784643f1"
        }
      }
    },
    {
      "fullUrl": "urn:uuid:89207498-2f99-4a72-9228-8dc0d8b8aa22",
      "resource": {
        "resourceType": "Observation",
        "id": "89207498-2f99-4a72-9228-8dc0d8b8aa22",
        "meta": {
          "profile": [
            "http://hl7.eu/fhir/laboratory/StructureDefinition/Observation-resultslab-eu-lab"
          ]
        },
        "performer": [
          {
            "display": "The Central European Lab"
          }
        ],
        "category": [
          {
            "coding": [
              {
                "system": "http://terminology.hl7.org/CodeSystem/observation-category",
                "code": "laboratory"
              }
            ]
          }
        ],
        "code": {
          "coding": [
            {
              "code": "2947-0",
              "system": "http://loinc.org",
              "display": "Sodium [Moles/volume] in Blood"
            }
          ],
          "text": "Sodium [Moles/volume] in Blood"
        },
        "valueQuantity": {
          "system": "http://unitsofmeasure.org",
          "value": 140.7,
          "unit": "mmol/L",
          "code": "mmol/L"
        },
        "referenceRange": [
          {
            "low": {
              "value": 135,
              "code": "mmol/L",
              "system": "http://unitsofmeasure.org"
            }
          },
          {
            "high": {
              "value": 145,
              "code": "mmol/L",
              "system": "http://unitsofmeasure.org"
            }
          }
        ],
        "text": {
          "status": "generated",
          "div": "<div xmlns=\"http://www.w3.org/1999/xhtml\"><table class=\"hl7__eu__lab__report\"><tr><th>Test</th><th>15-May-2024</th><th>Reference&#xA0;Range</th><th>Unit</th></tr><tr><td>Sodium [Moles/volume] in Blood</td><td>140.7</td><td>135 - 145</td><td></td><td>mmol/L</td></tr></table></div>"
        },
        "status": "final",
        "subject": {
          "reference": "urn:uuid:ab368f65-8855-448b-b9a3-4e11ae0e05d1",
          "display": "Maria Nohlmans"
        },
        "effectiveDateTime": "2024-05-15T11:02:39Z",
        "specimen": {
          "reference": "urn:uuid:354a2e5f-1124-4eeb-bb89-048e784643f1"
        }
      }
    },
    {
      "fullUrl": "urn:uuid:b21c56de-f29f-43f9-82e7-d4c8c73eb102",
      "resource": {
        "resourceType": "Observation",
        "id": "b21c56de-f29f-43f9-82e7-d4c8c73eb102",
        "meta": {
          "profile": [
            "http://hl7.eu/fhir/laboratory/StructureDefinition/Observation-resultslab-eu-lab"
          ]
        },
        "performer": [
          {
            "display": "The Central European Lab"
          }
        ],
        "category": [
          {
            "coding": [
              {
                "system": "http://terminology.hl7.org/CodeSystem/observation-category",
                "code": "laboratory"
              }
            ]
          }
        ],
        "code": {
          "coding": [
            {
              "code": "6298-4",
              "system": "http://loinc.org",
              "display": "Potassium [Moles/volume] in Blood"
            }
          ],
          "text": "Potassium [Moles/volume] in Blood"
        },
        "valueQuantity": {
          "system": "http://unitsofmeasure.org",
          "value": 5,
          "unit": "mmol/L",
          "code": "mmol/L"
        },
        "referenceRange": [
          {
            "low": {
              "value": 3.5,
              "code": "mmol/L",
              "system": "http://unitsofmeasure.org"
            }
          },
          {
            "high": {
              "value": 5.1,
              "code": "mmol/L",
              "system": "http://unitsofmeasure.org"
            }
          }
        ],
        "text": {
          "status": "generated",
          "div": "<div xmlns=\"http://www.w3.org/1999/xhtml\"><table class=\"hl7__eu__lab__report\"><tr><th>Test</th><th>15-May-2024</th><th>Reference&#xA0;Range</th><th>Unit</th></tr><tr><td>Potassium [Moles/volume] in Blood</td><td>5.0</td><td>3.5 - 5.1</td><td></td><td>mmol/L</td></tr></table></div>"
        },
        "status": "final",
        "subject": {
          "reference": "urn:uuid:ab368f65-8855-448b-b9a3-4e11ae0e05d1",
          "display": "Maria Nohlmans"
        },
        "effectiveDateTime": "2024-05-15T11:02:39Z",
        "specimen": {
          "reference": "urn:uuid:354a2e5f-1124-4eeb-bb89-048e784643f1"
        }
      }
    },
    {
      "fullUrl": "urn:uuid:b07bc24f-298c-4a71-a45a-6f4097204258",
      "resource": {
        "resourceType": "Observation",
        "id": "b07bc24f-298c-4a71-a45a-6f4097204258",
        "meta": {
          "profile": [
            "http://hl7.eu/fhir/laboratory/StructureDefinition/Observation-resultslab-eu-lab"
          ]
        },
        "performer": [
          {
            "display": "The Central European Lab"
          }
        ],
        "category": [
          {
            "coding": [
              {
                "system": "http://terminology.hl7.org/CodeSystem/observation-category",
                "code": "laboratory"
              }
            ]
          }
        ],
        "code": {
          "coding": [
            {
              "code": "2069-3",
              "system": "http://loinc.org",
              "display": "Chloride [Moles/volume] in Blood"
            }
          ],
          "text": "Chloride [Moles/volume] in Blood"
        },
        "valueQuantity": {
          "system": "http://unitsofmeasure.org",
          "value": 101.1,
          "unit": "mmol/L",
          "code": "mmol/L"
        },
        "referenceRange": [
          {
            "low": {
              "value": 98,
              "code": "mmol/L",
              "system": "http://unitsofmeasure.org"
            }
          },
          {
            "high": {
              "value": 114,
              "code": "mmol/L",
              "system": "http://unitsofmeasure.org"
            }
          }
        ],
        "text": {
          "status": "generated",
          "div": "<div xmlns=\"http://www.w3.org/1999/xhtml\"><table class=\"hl7__eu__lab__report\"><tr><th>Test</th><th>15-May-2024</th><th>Reference&#xA0;Range</th><th>Unit</th></tr><tr><td>Chloride [Moles/volume] in Blood</td><td>101.1</td><td>98 - 114</td><td></td><td>mmol/L</td></tr></table></div>"
        },
        "status": "final",
        "subject": {
          "reference": "urn:uuid:ab368f65-8855-448b-b9a3-4e11ae0e05d1",
          "display": "Maria Nohlmans"
        },
        "effectiveDateTime": "2024-05-15T11:02:39Z",
        "specimen": {
          "reference": "urn:uuid:354a2e5f-1124-4eeb-bb89-048e784643f1"
        }
      }
    },
    {
      "fullUrl": "urn:uuid:a2cedf6b-5c1b-4aa7-a84f-1bfbbf9c1d14",
      "resource": {
        "resourceType": "Observation",
        "id": "a2cedf6b-5c1b-4aa7-a84f-1bfbbf9c1d14",
        "meta": {
          "profile": [
            "http://hl7.eu/fhir/laboratory/StructureDefinition/Observation-resultslab-eu-lab"
          ]
        },
        "performer": [
          {
            "display": "The Central European Lab"
          }
        ],
        "category": [
          {
            "coding": [
              {
                "system": "http://terminology.hl7.org/CodeSystem/observation-category",
                "code": "laboratory"
              }
            ]
          }
        ],
        "code": {
          "coding": [
            {
              "code": "20565-8",
              "system": "http://loinc.org",
              "display": "Carbon dioxide, total [Moles/volume] in Blood"
            }
          ],
          "text": "Carbon dioxide, total [Moles/volume] in Blood"
        },
        "valueQuantity": {
          "system": "http://unitsofmeasure.org",
          "value": 24.7,
          "unit": "mmol/L",
          "code": "mmol/L"
        },
        "referenceRange": [
          {
            "low": {
              "value": 22,
              "code": "mmol/L",
              "system": "http://unitsofmeasure.org"
            }
          },
          {
            "high": {
              "value": 32,
              "code": "mmol/L",
              "system": "http://unitsofmeasure.org"
            }
          }
        ],
        "text": {
          "status": "generated",
          "div": "<div xmlns=\"http://www.w3.org/1999/xhtml\"><table class=\"hl7__eu__lab__report\"><tr><th>Test</th><th>15-May-2024</th><th>Reference&#xA0;Range</th><th>Unit</th></tr><tr><td>Carbon dioxide, total [Moles/volume] in Blood</td><td>24.7</td><td>22 - 32</td><td></td><td>mmol/L</td></tr></table></div>"
        },
        "status": "final",
        "subject": {
          "reference": "urn:uuid:ab368f65-8855-448b-b9a3-4e11ae0e05d1",
          "display": "Maria Nohlmans"
        },
        "effectiveDateTime": "2024-05-15T11:02:39Z",
        "specimen": {
          "reference": "urn:uuid:354a2e5f-1124-4eeb-bb89-048e784643f1"
        }
      }
    },
    {
      "fullUrl": "urn:uuid:359f0834-e650-45f0-95b0-d14cb352caf6",
      "resource": {
        "resourceType": "Observation",
        "id": "359f0834-e650-45f0-95b0-d14cb352caf6",
        "meta": {
          "profile": [
            "http://hl7.eu/fhir/laboratory/StructureDefinition/Observation-resultslab-eu-lab"
          ]
        },
        "performer": [
          {
            "display": "The Central European Lab"
          }
        ],
        "category": [
          {
            "coding": [
              {
                "system": "http://terminology.hl7.org/CodeSystem/observation-category",
                "code": "laboratory"
              }
            ]
          }
        ],
        "code": {
          "coding": [
            {
              "code": "2093-3",
              "system": "http://loinc.org",
              "display": "Cholesterol [Mass/volume] in Serum or Plasma"
            }
          ],
          "text": "Cholesterol [Mass/volume] in Serum or Plasma"
        },
        "valueQuantity": {
          "system": "http://unitsofmeasure.org",
          "value": 184.9,
          "unit": "mg/dL",
          "code": "mg/dL"
        },
        "referenceRange": [
          {
            "low": {
              "value": 125,
              "code": "mg/dL",
              "system": "http://unitsofmeasure.org"
            }
          },
          {
            "high": {
              "value": 200,
              "code": "mg/dL",
              "system": "http://unitsofmeasure.org"
            }
          }
        ],
        "text": {
          "status": "generated",
          "div": "<div xmlns=\"http://www.w3.org/1999/xhtml\"><table class=\"hl7__eu__lab__report\"><tr><th>Test</th><th>15-May-2024</th><th>Reference&#xA0;Range</th><th>Unit</th></tr><tr><td>Cholesterol [Mass/volume] in Serum or Plasma</td><td>184.9</td><td>125 - 200</td><td></td><td>mg/dL</td></tr></table></div>"
        },
        "status": "final",
        "subject": {
          "reference": "urn:uuid:ab368f65-8855-448b-b9a3-4e11ae0e05d1",
          "display": "Maria Nohlmans"
        },
        "effectiveDateTime": "2024-05-15T11:02:39Z",
        "specimen": {
          "reference": "urn:uuid:10946a6e-ab70-45b1-b66b-b0e2bd910251"
        }
      }
    },
    {
      "fullUrl": "urn:uuid:6911ecde-d0d1-40c0-bfa8-3f389c51573c",
      "resource": {
        "resourceType": "Observation",
        "id": "6911ecde-d0d1-40c0-bfa8-3f389c51573c",
        "meta": {
          "profile": [
            "http://hl7.eu/fhir/laboratory/StructureDefinition/Observation-resultslab-eu-lab"
          ]
        },
        "performer": [
          {
            "display": "The Central European Lab"
          }
        ],
        "category": [
          {
            "coding": [
              {
                "system": "http://terminology.hl7.org/CodeSystem/observation-category",
                "code": "laboratory"
              }
            ]
          }
        ],
        "code": {
          "coding": [
            {
              "code": "2571-8",
              "system": "http://loinc.org",
              "display": "Triglyceride [Mass/volume] in Serum or Plasma"
            }
          ],
          "text": "Triglyceride [Mass/volume] in Serum or Plasma"
        },
        "valueQuantity": {
          "system": "http://unitsofmeasure.org",
          "value": 142.6,
          "unit": "mg/dL",
          "code": "mg/dL"
        },
        "referenceRange": [
          {
            "low": {
              "value": 35,
              "code": "mg/dL",
              "system": "http://unitsofmeasure.org"
            }
          },
          {
            "high": {
              "value": 150,
              "code": "mg/dL",
              "system": "http://unitsofmeasure.org"
            }
          }
        ],
        "text": {
          "status": "generated",
          "div": "<div xmlns=\"http://www.w3.org/1999/xhtml\"><table class=\"hl7__eu__lab__report\"><tr><th>Test</th><th>15-May-2024</th><th>Reference&#xA0;Range</th><th>Unit</th></tr><tr><td>Triglyceride [Mass/volume] in Serum or Plasma</td><td>142.6</td><td>35 - 150</td><td></td><td>mg/dL</td></tr></table></div>"
        },
        "status": "final",
        "subject": {
          "reference": "urn:uuid:ab368f65-8855-448b-b9a3-4e11ae0e05d1",
          "display": "Maria Nohlmans"
        },
        "effectiveDateTime": "2024-05-15T11:02:39Z",
        "specimen": {
          "reference": "urn:uuid:10946a6e-ab70-45b1-b66b-b0e2bd910251"
        }
      }
    },
    {
      "fullUrl": "urn:uuid:92581c71-7aa7-4497-9d28-dcff6c1d9710",
      "resource": {
        "resourceType": "Observation",
        "id": "92581c71-7aa7-4497-9d28-dcff6c1d9710",
        "meta": {
          "profile": [
            "http://hl7.eu/fhir/laboratory/StructureDefinition/Observation-resultslab-eu-lab"
          ]
        },
        "performer": [
          {
            "display": "The Central European Lab"
          }
        ],
        "category": [
          {
            "coding": [
              {
                "system": "http://terminology.hl7.org/CodeSystem/observation-category",
                "code": "laboratory"
              }
            ]
          }
        ],
        "code": {
          "coding": [
            {
              "code": "18262-6",
              "system": "http://loinc.org",
              "display": "Cholesterol in LDL [Mass/volume] in Serum or Plasma by Direct assay"
            }
          ],
          "text": "Cholesterol in LDL [Mass/volume] in Serum or Plasma by Direct assay"
        },
        "valueQuantity": {
          "system": "http://unitsofmeasure.org",
          "value": 91.7,
          "unit": "mg/dL",
          "code": "mg/dL"
        },
        "referenceRange": [
          {
            "low": {
              "value": 0,
              "code": "mg/dL",
              "system": "http://unitsofmeasure.org"
            }
          },
          {
            "high": {
              "value": 130,
              "code": "mg/dL",
              "system": "http://unitsofmeasure.org"
            }
          }
        ],
        "text": {
          "status": "generated",
          "div": "<div xmlns=\"http://www.w3.org/1999/xhtml\"><table class=\"hl7__eu__lab__report\"><tr><th>Test</th><th>15-May-2024</th><th>Reference&#xA0;Range</th><th>Unit</th></tr><tr><td>Cholesterol in LDL [Mass/volume] in Serum or Plasma by Direct assay</td><td>91.7</td><td>0 - 130</td><td></td><td>mg/dL</td></tr></table></div>"
        },
        "status": "final",
        "subject": {
          "reference": "urn:uuid:ab368f65-8855-448b-b9a3-4e11ae0e05d1",
          "display": "Maria Nohlmans"
        },
        "effectiveDateTime": "2024-05-15T11:02:39Z",
        "specimen": {
          "reference": "urn:uuid:10946a6e-ab70-45b1-b66b-b0e2bd910251"
        }
      }
    },
    {
      "fullUrl": "urn:uuid:2993d7dd-ea3a-45ee-8d78-649c60ac9e2c",
      "resource": {
        "resourceType": "Observation",
        "id": "2993d7dd-ea3a-45ee-8d78-649c60ac9e2c",
        "meta": {
          "profile": [
            "http://hl7.eu/fhir/laboratory/StructureDefinition/Observation-resultslab-eu-lab"
          ]
        },
        "performer": [
          {
            "display": "The Central European Lab"
          }
        ],
        "category": [
          {
            "coding": [
              {
                "system": "http://terminology.hl7.org/CodeSystem/observation-category",
                "code": "laboratory"
              }
            ]
          }
        ],
        "code": {
          "coding": [
            {
              "code": "2085-9",
              "system": "http://loinc.org",
              "display": "Cholesterol in HDL [Mass/volume] in Serum or Plasma"
            }
          ],
          "text": "Cholesterol in HDL [Mass/volume] in Serum or Plasma"
        },
        "valueQuantity": {
          "system": "http://unitsofmeasure.org",
          "value": 64.7,
          "unit": "mg/dL",
          "code": "mg/dL"
        },
        "referenceRange": [
          {
            "low": {
              "value": 50,
              "code": "mg/dL",
              "system": "http://unitsofmeasure.org"
            }
          },
          {
            "high": {
              "value": 120,
              "code": "mg/dL",
              "system": "http://unitsofmeasure.org"
            }
          }
        ],
        "text": {
          "status": "generated",
          "div": "<div xmlns=\"http://www.w3.org/1999/xhtml\"><table class=\"hl7__eu__lab__report\"><tr><th>Test</th><th>15-May-2024</th><th>Reference&#xA0;Range</th><th>Unit</th></tr><tr><td>Cholesterol in HDL [Mass/volume] in Serum or Plasma</td><td>64.7</td><td>50 - 120</td><td></td><td>mg/dL</td></tr></table></div>"
        },
        "status": "final",
        "subject": {
          "reference": "urn:uuid:ab368f65-8855-448b-b9a3-4e11ae0e05d1",
          "display": "Maria Nohlmans"
        },
        "effectiveDateTime": "2024-05-15T11:02:39Z",
        "specimen": {
          "reference": "urn:uuid:10946a6e-ab70-45b1-b66b-b0e2bd910251"
        }
      }
    },
    {
      "fullUrl": "urn:uuid:0870373b-6ea3-44ba-bf87-4decdff0adcb",
      "resource": {
        "resourceType": "Device",
        "id": "0870373b-6ea3-44ba-bf87-4decdff0adcb",
        "deviceName": [
          {
            "name": "SYNDERAI Synthetic Generator",
            "type": "manufacturer-name"
          }
        ],
        "version": [
          {
            "value": "5.0"
          }
        ],
        "text": {
          "status": "generated",
          "div": "<div xmlns=\"http://www.w3.org/1999/xhtml\">SYNDERAI Synthetic Generator v5.0</div>"
        },
        "status": "active\"",
        "distinctIdentifier": "synderai-generator-50",
        "manufacturer": "SYNDERAI Project"
      }
    },
    {
      "fullUrl": "urn:uuid:267ae4d0-1ade-4464-a6b6-c1d9f75cec72",
      "resource": {
        "resourceType": "Provenance",
        "id": "267ae4d0-1ade-4464-a6b6-c1d9f75cec72",
        "target": [
          {
            "reference": "Patient/ab368f65-8855-448b-b9a3-4e11ae0e05d1"
          },
          {
            "reference": "Bundle/f024ae0f-11f2-4d78-a3e7-c6d820572d93"
          },
          {
            "reference": "Composition/041f4b35-2cdc-4bab-97c4-7fa1563d2931"
          },
          {
            "reference": "PractitionerRole/a960a0e6-4ddd-47e1-9311-eb8007a8b8a7"
          },
          {
            "reference": "Practitioner/469cd3df-6fb4-4b4a-abc1-57cdbcc34b80"
          },
          {
            "reference": "PractitionerRole/95585117-c4a8-4aa1-a32e-4e50b227d180"
          },
          {
            "reference": "Organization/09b6fca0-0c27-4d96-b957-26554a423b98"
          }
        ],
        "activity": {
          "text": "Synthetic Example Data Generation"
        },
        "policy": [
          "https://synderai.net/synderai-synthetic-data-policy"
        ],
        "agent": [
          {
            "type": {
              "text": "author"
            },
            "who": {
              "reference": "Device/0870373b-6ea3-44ba-bf87-4decdff0adcb"
            }
          }
        ],
        "reason": [
          {
            "text": "Interoperability Testing and Training (non-clinical use)"
          }
        ],
        "text": {
          "status": "generated",
          "div": "<div xmlns=\"http://www.w3.org/1999/xhtml\">Provenance for SYNDERAI Synthetic Example Data Resource</div>"
        },
        "recorded": "2024-05-15T13:02:39Z"
      }
    },
    {
      "fullUrl": "urn:uuid:a960a0e6-4ddd-47e1-9311-eb8007a8b8a7",
      "resource": {
        "resourceType": "PractitionerRole",
        "id": "a960a0e6-4ddd-47e1-9311-eb8007a8b8a7",
        "meta": {
          "profile": [
            "http://hl7.eu/fhir/base/StructureDefinition/practitionerRole-eu"
          ]
        },
        "text": {
          "status": "generated",
          "div": "<div xmlns=\"http://www.w3.org/1999/xhtml\">Laboratory Role Id: a960a0e6-4ddd-47e1-9311-eb8007a8b8a7</div>"
        },
        "practitioner": {
          "reference": "urn:uuid:469cd3df-6fb4-4b4a-abc1-57cdbcc34b80"
        }
      }
    },
    {
      "fullUrl": "urn:uuid:469cd3df-6fb4-4b4a-abc1-57cdbcc34b80",
      "resource": {
        "resourceType": "Practitioner",
        "id": "469cd3df-6fb4-4b4a-abc1-57cdbcc34b80",
        "meta": {
          "profile": [
            "http://hl7.eu/fhir/base/StructureDefinition/practitioner-eu"
          ]
        },
        "identifier": [
          {
            "assigner": {
              "display": "HL7 Europe"
            },
            "system": "urn:oid:2.16.840.1.113883.2.51.999",
            "value": "113e8ff0-b148-4b32-b6f3-4f5fa8480403"
          }
        ],
        "name": [
          {
            "prefix": [
              "dr"
            ],
            "given": [
              "Ex"
            ],
            "family": "Ample"
          }
        ],
        "address": [
          {
            "line": [
              "Laboratoire Central Européenne",
              "Boulevard du Jardin Botanique 32"
            ],
            "postalCode": "1000",
            "city": "Brussels",
            "country": "Belgium"
          }
        ],
        "text": {
          "status": "generated",
          "div": "<div xmlns=\"http://www.w3.org/1999/xhtml\">Laboratory: Laboratoire Central Européenne, 1000 Brussels, Belgium</div>"
        }
      }
    }
  ],
  "type": "document",
  "timestamp": "2024-05-15T13:02:39Z"
}
