{
  "resourceType": "Bundle",
  "id": "da725219-170f-4e29-9acd-a249d98e4731",
  "meta": {
    "profile": [
      "http://hl7.eu/fhir/laboratory/StructureDefinition/Bundle-eu-lab"
    ]
  },
  "identifier": {
    "assigner": {
      "display": "HL7 Europe"
    },
    "system": "urn:oid:2.16.840.1.113883.2.51.999",
    "value": "a3b1c5ab-e59b-45ed-ad51-4761b08dd497"
  },
  "entry": [
    {
      "fullUrl": "urn:uuid:c0005f45-8eb0-4398-a222-5c058a79f5e7",
      "resource": {
        "resourceType": "Composition",
        "id": "c0005f45-8eb0-4398-a222-5c058a79f5e7",
        "meta": {
          "profile": [
            "http://hl7.eu/fhir/laboratory/StructureDefinition/Composition-eu-lab"
          ]
        },
        "identifier": {
          "assigner": {
            "display": "HL7 Europe"
          },
          "system": "urn:oid:2.16.840.1.113883.2.51.999",
          "value": "36d5f8bb-c4ca-484c-bb66-0a866ab4d998"
        },
        "author": [
          {
            "reference": "urn:uuid:bd6fbb88-dc4f-41e8-8a35-dddbd62da552"
          }
        ],
        "category": [
          {
            "coding": [
              {
                "code": "26436-6",
                "system": "http://loinc.org",
                "display": "Laboratory studies (set)"
              }
            ]
          }
        ],
        "type": {
          "coding": [
            {
              "code": "11502-2",
              "system": "http://loinc.org",
              "display": "Laboratory report"
            }
          ],
          "text": "Laboratory Report"
        },
        "section": [
          {
            "code": {
              "coding": [
                {
                  "code": "26436-6",
                  "system": "http://loinc.org",
                  "display": "Laboratory studies (set)"
                }
              ],
              "text": "Laboratory studies"
            },
            "section": [
              {
                "code": {
                  "coding": [
                    {
                      "code": "$18723-7",
                      "system": "http://loinc.org",
                      "display": "Hematology studies (set)"
                    }
                  ],
                  "text": "Hematology"
                },
                "entry": [
                  {
                    "reference": "urn:uuid:260c8ef8-87a1-4b0f-ad5a-baedf7aa7fb5"
                  },
                  {
                    "reference": "urn:uuid:cd3a9721-17ad-428c-9175-3f20051a307b"
                  },
                  {
                    "reference": "urn:uuid:42e2785f-6cbb-4161-bdf0-dc68cdbc394b"
                  },
                  {
                    "reference": "urn:uuid:4d9b754d-730b-4f92-81ca-f5db625fdcf6"
                  },
                  {
                    "reference": "urn:uuid:9ee6e00d-ce52-459e-80fb-090c85d32bf4"
                  },
                  {
                    "reference": "urn:uuid:dfa8b3f4-74ed-41ff-ae83-837052a762f3"
                  },
                  {
                    "reference": "urn:uuid:2ba174e7-125a-4c6c-a810-9781e48441ed"
                  },
                  {
                    "reference": "urn:uuid:b4db7515-be1d-4859-a69c-326b67644030"
                  },
                  {
                    "reference": "urn:uuid:4c8d46da-7301-4efd-81e8-6625688bd02c"
                  },
                  {
                    "reference": "urn:uuid:5b51e762-4a59-4ed4-bcc3-503aff4ccd07"
                  },
                  {
                    "reference": "urn:uuid:4219277e-a56b-4eea-8dc5-ee9a5aba972b"
                  }
                ],
                "text": {
                  "status": "generated",
                  "div": "<div xmlns=\"http://www.w3.org/1999/xhtml\"><h3>Hematology</h3><table class=\"hl7__eu__lab__report\"><thead><tr><th>Test</th><th>28-SEP-2018</th><th>Reference&#xA0;Range</th><th>Unit</th></tr></thead><tbody><tr><td>Leukocytes [#/volume] in Blood by Automated count</td><td>4.9</td><td>4 - 11</td><td>10*3/uL</td></tr><tr><td>Erythrocytes [#/volume] in Blood by Automated count</td><td>4.6</td><td>4.5 - 5.7</td><td>10*6/uL</td></tr><tr><td>Hemoglobin [Mass/volume] in Blood</td><td>15.1</td><td>13.5 - 17.5</td><td>g/dL</td></tr><tr><td>Hematocrit [Volume Fraction] of Blood by Automated count</td><td>47.3</td><td>38 - 50</td><td>%</td></tr><tr><td>MCV [Entitic volume] by Automated count</td><td>91.4</td><td>76 - 98</td><td>fL</td></tr><tr><td>MCH [Entitic mass] by Automated count</td><td>31.0</td><td>27 - 34</td><td>pg</td></tr><tr><td>MCHC [Mass/volume] by Automated count</td><td>33.3</td><td>31 - 35</td><td>g/dL</td></tr><tr><td>Erythrocyte distribution width [Entitic volume] by Automated count</td><td>42.1</td><td>39 - 55</td><td>fL</td></tr><tr><td>Platelets [#/volume] in Blood by Automated count</td><td>252.0</td><td>150 - 450</td><td>10*3/uL</td></tr><tr><td>Platelet distribution width [Entitic volume] in Blood by Automated count</td><td><strong>490.1 H</strong></td><td>13.4 - 17.4</td><td>fL</td></tr><tr><td>Platelet mean volume [Entitic volume] in Blood by Automated count</td><td>10.8</td><td>7.2 - 13.5</td><td>fL</td></tr></tbody></table></div>"
                },
                "title": "Hematology"
              },
              {
                "code": {
                  "coding": [
                    {
                      "code": "$18719-5",
                      "system": "http://loinc.org",
                      "display": "Chemistry studies (set)"
                    }
                  ],
                  "text": "Chemistry"
                },
                "entry": [
                  {
                    "reference": "urn:uuid:b6fc568f-93f7-4ac0-94a0-11e57442bb07"
                  },
                  {
                    "reference": "urn:uuid:6d3832a4-1257-4dd7-bb42-47f4661f44ba"
                  },
                  {
                    "reference": "urn:uuid:8cfb73e4-26f6-41ab-94f4-2f424ae1de01"
                  },
                  {
                    "reference": "urn:uuid:c7d32279-f215-4085-8677-a12b77999a38"
                  },
                  {
                    "reference": "urn:uuid:410be338-e1f4-4b1e-9be7-cc574e89660c"
                  },
                  {
                    "reference": "urn:uuid:f80907ab-b328-40c4-ad1c-e3ab12efa9ea"
                  },
                  {
                    "reference": "urn:uuid:725435ac-680a-4f45-b37a-04732fc3ebe5"
                  },
                  {
                    "reference": "urn:uuid:3e24af7c-ccaf-4e15-a533-81f9681a5d39"
                  },
                  {
                    "reference": "urn:uuid:50aa6737-f9c5-464b-8be9-89df99ae58c3"
                  }
                ],
                "text": {
                  "status": "generated",
                  "div": "<div xmlns=\"http://www.w3.org/1999/xhtml\"><h3>Chemistry</h3><table class=\"hl7__eu__lab__report\"><thead><tr><th>Test</th><th>28-SEP-2018</th><th>Reference&#xA0;Range</th><th>Unit</th></tr></thead><tbody><tr><td>Hemoglobin A1c/Hemoglobin.total in Blood</td><td><strong>4.0 L</strong></td><td>4.6 - 6.4</td><td>%</td></tr><tr><td>Glucose [Mass/volume] in Blood</td><td>70.5</td><td>70 - 110</td><td>mg/dL</td></tr><tr><td>Urea nitrogen [Mass/volume] in Blood</td><td>10.7</td><td>7 - 43</td><td>mg/dL</td></tr><tr><td>Creatinine [Mass/volume] in Blood</td><td>1.0</td><td>0.9 - 1.3</td><td>mg/dL</td></tr><tr><td>Calcium [Mass/volume] in Blood</td><td>9.7</td><td>8.5 - 10.5</td><td>mg/dL</td></tr><tr><td>Sodium [Moles/volume] in Blood</td><td>142.1</td><td>135 - 145</td><td>mmol/L</td></tr><tr><td>Potassium [Moles/volume] in Blood</td><td>4.0</td><td>3.5 - 5.3</td><td>mmol/L</td></tr><tr><td>Chloride [Moles/volume] in Blood</td><td>102.7</td><td>98 - 108</td><td>mmol/L</td></tr><tr><td>Carbon dioxide, total [Moles/volume] in Blood</td><td>26.9</td><td>22 - 29</td><td>mmol/L</td></tr></tbody></table></div>"
                },
                "title": "Chemistry"
              }
            ],
            "title": "Laboratory Report"
          },
          {
            "text": {
              "status": "generated",
              "div": "<div xmlns=\"http://www.w3.org/1999/xhtml\"><h3>Annotation</h3><table class=\"hl7__eu__lab__report\"><tr><th>Conclusion and Recommendations based on this report and previous findings known to us</th></tr><tr><td>All results are within normal limits except for a mildly decreased HbA1c, which may reflect recent hypoglycemia or altered red cell turnover, and a markedly elevated platelet distribution width, possibly indicating increased platelet size variability (e.g., reactive or regenerative changes). No evidence of anemia, renal dysfunction, or electrolyte imbalance. Clinical correlation is recommended.</td></tr></table></div>"
            },
            "code": {
              "coding": [
                {
                  "system": "http://loinc.org",
                  "code": "48767-8",
                  "display": "Annotation comment"
                }
              ]
            },
            "title": "Annotation comment"
          }
        ],
        "status": "final",
        "subject": {
          "reference": "urn:uuid:aa3f1ab2-2d61-42db-92a1-73d69eea9d65",
          "display": "Gabrielius Gaičiūnas"
        },
        "date": "2018-09-28T18:05:46Z",
        "title": "Laboratory Report",
        "confidentiality": "N"
      }
    },
    {
      "fullUrl": "urn:uuid:fc821f1a-eecb-4cd8-9187-45f58b6e25d0",
      "resource": {
        "resourceType": "DiagnosticReport",
        "id": "fc821f1a-eecb-4cd8-9187-45f58b6e25d0",
        "meta": {
          "profile": [
            "http://hl7.eu/fhir/laboratory/StructureDefinition/DiagnosticReport-eu-lab"
          ]
        },
        "identifier": [
          {
            "assigner": {
              "display": "HL7 Europe"
            },
            "system": "urn:oid:2.16.840.1.113883.2.51.999",
            "value": "4ca5618c-dcff-489e-9dca-7eb7c9c667d8"
          }
        ],
        "extension": [
          {
            "url": "http://hl7.org/fhir/5.0/StructureDefinition/extension-DiagnosticReport.composition",
            "valueReference": {
              "reference": "urn:uuid:36d5f8bb-c4ca-484c-bb66-0a866ab4d998"
            }
          }
        ],
        "category": [
          {
            "coding": [
              {
                "code": "26436-6",
                "system": "http://loinc.org",
                "display": "Laboratory studies (set)"
              }
            ]
          }
        ],
        "specimen": [
          {
            "reference": "urn:uuid:896389dd-7ece-40e2-a6ee-6237f10c5bdb"
          },
          {
            "reference": "urn:uuid:896389dd-7ece-40e2-a6ee-6237f10c5bdb"
          }
        ],
        "result": [
          {
            "reference": "urn:uuid:b6fc568f-93f7-4ac0-94a0-11e57442bb07"
          },
          {
            "reference": "urn:uuid:6d3832a4-1257-4dd7-bb42-47f4661f44ba"
          },
          {
            "reference": "urn:uuid:8cfb73e4-26f6-41ab-94f4-2f424ae1de01"
          },
          {
            "reference": "urn:uuid:c7d32279-f215-4085-8677-a12b77999a38"
          },
          {
            "reference": "urn:uuid:410be338-e1f4-4b1e-9be7-cc574e89660c"
          },
          {
            "reference": "urn:uuid:f80907ab-b328-40c4-ad1c-e3ab12efa9ea"
          },
          {
            "reference": "urn:uuid:725435ac-680a-4f45-b37a-04732fc3ebe5"
          },
          {
            "reference": "urn:uuid:3e24af7c-ccaf-4e15-a533-81f9681a5d39"
          },
          {
            "reference": "urn:uuid:50aa6737-f9c5-464b-8be9-89df99ae58c3"
          },
          {
            "reference": "urn:uuid:260c8ef8-87a1-4b0f-ad5a-baedf7aa7fb5"
          },
          {
            "reference": "urn:uuid:cd3a9721-17ad-428c-9175-3f20051a307b"
          },
          {
            "reference": "urn:uuid:42e2785f-6cbb-4161-bdf0-dc68cdbc394b"
          },
          {
            "reference": "urn:uuid:4d9b754d-730b-4f92-81ca-f5db625fdcf6"
          },
          {
            "reference": "urn:uuid:9ee6e00d-ce52-459e-80fb-090c85d32bf4"
          },
          {
            "reference": "urn:uuid:dfa8b3f4-74ed-41ff-ae83-837052a762f3"
          },
          {
            "reference": "urn:uuid:2ba174e7-125a-4c6c-a810-9781e48441ed"
          },
          {
            "reference": "urn:uuid:b4db7515-be1d-4859-a69c-326b67644030"
          },
          {
            "reference": "urn:uuid:4c8d46da-7301-4efd-81e8-6625688bd02c"
          },
          {
            "reference": "urn:uuid:5b51e762-4a59-4ed4-bcc3-503aff4ccd07"
          },
          {
            "reference": "urn:uuid:4219277e-a56b-4eea-8dc5-ee9a5aba972b"
          }
        ],
        "status": "registered",
        "code": {
          "coding": [
            {
              "code": "11502-2",
              "system": "http://loinc.org",
              "display": "Laboratory report"
            }
          ]
        },
        "subject": {
          "reference": "urn:uuid:aa3f1ab2-2d61-42db-92a1-73d69eea9d65",
          "display": "Gabrielius Gaičiūnas"
        }
      }
    },
    {
      "fullUrl": "urn:uuid:aa3f1ab2-2d61-42db-92a1-73d69eea9d65",
      "resource": {
        "resourceType": "Patient",
        "id": "aa3f1ab2-2d61-42db-92a1-73d69eea9d65",
        "meta": {
          "security": [
            {
              "system": "http://terminology.hl7.org/CodeSystem/v3-ActReason",
              "code": "HTEST"
            },
            {
              "system": "http://terminology.hl7.org/CodeSystem/v3-ActReason",
              "code": "TRAIN"
            }
          ],
          "tag": [
            {
              "system": "https://synderai.net/fhir/CodeSystem/tags",
              "code": "synthetic",
              "display": "SYNDERAI Synthetic data"
            }
          ],
          "profile": [
            "http://hl7.eu/fhir/base/StructureDefinition/patient-eu-core"
          ]
        },
        "identifier": [
          {
            "type": {
              "coding": [
                {
                  "code": "PT",
                  "system": "http://terminology.hl7.org/CodeSystem/v2-0203"
                }
              ]
            },
            "system": "http://ec.europa.eu/identifier/eci",
            "value": "5711-320329-3"
          },
          {
            "type": {
              "coding": [
                {
                  "code": "MR",
                  "system": "http://terminology.hl7.org/CodeSystem/v2-0203"
                }
              ]
            },
            "system": "http://local.setting.eu/identifier",
            "value": "b2cdf95b-c12d-3f56-84e4-d085f70edd0c"
          }
        ],
        "name": [
          {
            "family": "Gaičiūnas"
          },
          {
            "given": [
              "Gabrielius"
            ]
          },
          {
            "text": "Gabrielius Gaičiūnas"
          }
        ],
        "address": [
          {
            "line": [
              "5951 Monika Rapid"
            ],
            "use": "home",
            "type": "physical",
            "postalCode": "97190",
            "city": "Poškaton",
            "country": "Lithuania"
          }
        ],
        "telecom": [
          {
            "system": "phone",
            "value": "+370 71605146"
          }
        ],
        "extension": [
          {
            "url": "http://hl7.org/fhir/StructureDefinition/patient-nationality",
            "valueCodeableConcept": {
              "coding": [
                {
                  "code": "LT",
                  "system": "http://hl7.org/fhir/ValueSet/country"
                }
              ]
            }
          }
        ],
        "text": {
          "status": "generated",
          "div": "<div xmlns=\"http://www.w3.org/1999/xhtml\"><table class=\"hl7__ips\"><tr><td>Gabrielius Gaičiūnas</td><td>male</td><td>19-May-1948</td></tr></table></div>"
        },
        "gender": "male",
        "birthDate": "1948-05-19"
      }
    },
    {
      "fullUrl": "urn:uuid:2a37b7b8-bd12-4626-a821-e1da32493d37",
      "resource": {
        "resourceType": "ServiceRequest",
        "id": "2a37b7b8-bd12-4626-a821-e1da32493d37",
        "meta": {
          "profile": [
            "http://hl7.eu/fhir/laboratory/StructureDefinition/ServiceRequest-eu-lab"
          ]
        },
        "identifier": [
          {
            "system": "http://example.org",
            "value": "2e29c129-5353-49f4-9806-30d2dffb3705"
          }
        ],
        "specimen": [
          {
            "reference": "urn:uuid:896389dd-7ece-40e2-a6ee-6237f10c5bdb"
          }
        ],
        "reasonCode": [
          {
            "coding": [
              {
                "code": "414545008",
                "system": "http://snomed.info/sct",
                "display": "Ischemic heart disease"
              }
            ]
          },
          {
            "coding": [
              {
                "code": "157141000119108",
                "system": "http://snomed.info/sct",
                "display": "Proteinuria due to type 2 diabetes mellitus"
              }
            ]
          },
          {
            "coding": [
              {
                "code": "401303003",
                "system": "http://snomed.info/sct",
                "display": "Acute ST segment elevation myocardial infarction"
              }
            ]
          },
          {
            "coding": [
              {
                "code": "40055000",
                "system": "http://snomed.info/sct",
                "display": "Chronic sinusitis"
              }
            ]
          },
          {
            "coding": [
              {
                "code": "90781000119102",
                "system": "http://snomed.info/sct",
                "display": "Microalbuminuria due to type 2 diabetes mellitus"
              }
            ]
          },
          {
            "coding": [
              {
                "code": "127013003",
                "system": "http://snomed.info/sct",
                "display": "Disorder of kidney due to diabetes mellitus"
              }
            ]
          },
          {
            "coding": [
              {
                "code": "59621000",
                "system": "http://snomed.info/sct",
                "display": "Essential hypertension"
              }
            ]
          },
          {
            "coding": [
              {
                "code": "15777000",
                "system": "http://snomed.info/sct",
                "display": "Prediabetes"
              }
            ]
          },
          {
            "coding": [
              {
                "code": "271737000",
                "system": "http://snomed.info/sct",
                "display": "Anemia"
              }
            ]
          }
        ],
        "status": "active",
        "intent": "order",
        "code": {
          "coding": [
            {
              "code": "108252007",
              "system": "http://snomed.info/sct",
              "display": "Laboratory procedure"
            }
          ]
        },
        "subject": {
          "reference": "urn:uuid:aa3f1ab2-2d61-42db-92a1-73d69eea9d65",
          "display": "Gabrielius Gaičiūnas"
        },
        "requester": {
          "reference": "urn:uuid:4eb65f00-7c67-4473-97ee-3919771ca036"
        }
      }
    },
    {
      "fullUrl": "urn:uuid:4eb65f00-7c67-4473-97ee-3919771ca036",
      "resource": {
        "resourceType": "PractitionerRole",
        "id": "4eb65f00-7c67-4473-97ee-3919771ca036",
        "meta": {
          "profile": [
            "http://hl7.eu/fhir/base/StructureDefinition/practitionerRole-eu"
          ]
        },
        "text": {
          "status": "generated",
          "div": "<div xmlns=\"http://www.w3.org/1999/xhtml\">Provider Role Id: 4eb65f00-7c67-4473-97ee-3919771ca036</div>"
        },
        "organization": {
          "reference": "urn:uuid:b1d8ab2b-6576-4a3b-b7db-887785a1a150"
        }
      }
    },
    {
      "fullUrl": "urn:uuid:b1d8ab2b-6576-4a3b-b7db-887785a1a150",
      "resource": {
        "resourceType": "Organization",
        "id": "b1d8ab2b-6576-4a3b-b7db-887785a1a150",
        "meta": {
          "profile": [
            "http://hl7.eu/fhir/base/StructureDefinition/organization-eu"
          ]
        },
        "identifier": [
          {
            "assigner": {
              "display": "HL7 Europe"
            },
            "system": "urn:oid:2.16.840.1.113883.2.51.999",
            "value": "0f8bb12d-f36b-4b44-9b78-3e03b5b50dab"
          }
        ],
        "address": [
          {
            "line": [
              "182 Savanorių pr."
            ],
            "city": "Klaipėda",
            "postalCode": "LT-91200",
            "country": "Lithuania"
          }
        ],
        "text": {
          "status": "generated",
          "div": "<div xmlns=\"http://www.w3.org/1999/xhtml\">Provider Organization: Dr. Tomas Bakas</div>"
        },
        "name": "Dr. Tomas Bakas"
      }
    },
    {
      "fullUrl": "urn:uuid:896389dd-7ece-40e2-a6ee-6237f10c5bdb",
      "resource": {
        "resourceType": "Specimen",
        "id": "896389dd-7ece-40e2-a6ee-6237f10c5bdb",
        "meta": {
          "profile": [
            "http://hl7.eu/fhir/laboratory/StructureDefinition/Specimen-eu-lab"
          ]
        },
        "collection": {
          "collectedDateTime": "2018-09-28"
        },
        "text": {
          "status": "generated",
          "div": "<div xmlns=\"http://www.w3.org/1999/xhtml\"><table class=\"hl7__eu__lab__report\"><tr><th>Specimen</th><th>Collection Date</th></tr><tr><td>Whole blood specimen (specimen)</td><td><span class=\"nb\">28-Sep-2018</span></td></tr></table></div>"
        },
        "type": {
          "coding": [
            {
              "code": "258580003",
              "system": "http://snomed.info/sct",
              "display": "Whole blood specimen (specimen)"
            }
          ]
        }
      }
    },
    {
      "fullUrl": "urn:uuid:896389dd-7ece-40e2-a6ee-6237f10c5bdb",
      "resource": {
        "resourceType": "Specimen",
        "id": "896389dd-7ece-40e2-a6ee-6237f10c5bdb",
        "meta": {
          "profile": [
            "http://hl7.eu/fhir/laboratory/StructureDefinition/Specimen-eu-lab"
          ]
        },
        "collection": {
          "collectedDateTime": "2018-09-28"
        },
        "text": {
          "status": "generated",
          "div": "<div xmlns=\"http://www.w3.org/1999/xhtml\"><table class=\"hl7__eu__lab__report\"><tr><th>Specimen</th><th>Collection Date</th></tr><tr><td>Whole blood specimen (specimen)</td><td><span class=\"nb\">28-Sep-2018</span></td></tr></table></div>"
        },
        "type": {
          "coding": [
            {
              "code": "258580003",
              "system": "http://snomed.info/sct",
              "display": "Whole blood specimen (specimen)"
            }
          ]
        }
      }
    },
    {
      "fullUrl": "urn:uuid:b6fc568f-93f7-4ac0-94a0-11e57442bb07",
      "resource": {
        "resourceType": "Observation",
        "id": "b6fc568f-93f7-4ac0-94a0-11e57442bb07",
        "meta": {
          "profile": [
            "http://hl7.eu/fhir/laboratory/StructureDefinition/Observation-resultslab-eu-lab"
          ]
        },
        "performer": [
          {
            "display": "The Central European Lab"
          }
        ],
        "category": [
          {
            "coding": [
              {
                "system": "http://terminology.hl7.org/CodeSystem/observation-category",
                "code": "laboratory"
              }
            ]
          }
        ],
        "code": {
          "coding": [
            {
              "code": "4548-4",
              "system": "http://loinc.org",
              "display": "Hemoglobin A1c/Hemoglobin.total in Blood"
            }
          ],
          "text": "Hemoglobin A1c/Hemoglobin.total in Blood"
        },
        "valueQuantity": {
          "system": "http://unitsofmeasure.org",
          "value": 4,
          "unit": "%",
          "code": "%"
        },
        "referenceRange": [
          {
            "low": {
              "value": 4.6,
              "code": "%",
              "system": "http://unitsofmeasure.org"
            }
          },
          {
            "high": {
              "value": 6.4,
              "code": "%",
              "system": "http://unitsofmeasure.org"
            }
          }
        ],
        "interpretation": [
          {
            "coding": [
              {
                "code": "L",
                "system": "http://terminology.hl7.org/CodeSystem/v3-ObservationInterpretation",
                "display": "Low"
              }
            ]
          }
        ],
        "text": {
          "status": "generated",
          "div": "<div xmlns=\"http://www.w3.org/1999/xhtml\"><table class=\"hl7__eu__lab__report\"><tr><th>Test</th><th>28-Sep-2018</th><th>Reference&#xA0;Range</th><th>Unit</th></tr><tr><td>Hemoglobin A1c/Hemoglobin.total in Blood</td><td>4.0</td><td>4.6 - 6.4</td><td>L</td><td>%</td></tr></table></div>"
        },
        "status": "final",
        "subject": {
          "reference": "urn:uuid:aa3f1ab2-2d61-42db-92a1-73d69eea9d65",
          "display": "Gabrielius Gaičiūnas"
        },
        "effectiveDateTime": "2018-09-28T16:05:46Z",
        "specimen": {
          "reference": "urn:uuid:896389dd-7ece-40e2-a6ee-6237f10c5bdb"
        }
      }
    },
    {
      "fullUrl": "urn:uuid:6d3832a4-1257-4dd7-bb42-47f4661f44ba",
      "resource": {
        "resourceType": "Observation",
        "id": "6d3832a4-1257-4dd7-bb42-47f4661f44ba",
        "meta": {
          "profile": [
            "http://hl7.eu/fhir/laboratory/StructureDefinition/Observation-resultslab-eu-lab"
          ]
        },
        "performer": [
          {
            "display": "The Central European Lab"
          }
        ],
        "category": [
          {
            "coding": [
              {
                "system": "http://terminology.hl7.org/CodeSystem/observation-category",
                "code": "laboratory"
              }
            ]
          }
        ],
        "code": {
          "coding": [
            {
              "code": "2339-0",
              "system": "http://loinc.org",
              "display": "Glucose [Mass/volume] in Blood"
            }
          ],
          "text": "Glucose [Mass/volume] in Blood"
        },
        "valueQuantity": {
          "system": "http://unitsofmeasure.org",
          "value": 70.5,
          "unit": "mg/dL",
          "code": "mg/dL"
        },
        "referenceRange": [
          {
            "low": {
              "value": 70,
              "code": "mg/dL",
              "system": "http://unitsofmeasure.org"
            }
          },
          {
            "high": {
              "value": 110,
              "code": "mg/dL",
              "system": "http://unitsofmeasure.org"
            }
          }
        ],
        "text": {
          "status": "generated",
          "div": "<div xmlns=\"http://www.w3.org/1999/xhtml\"><table class=\"hl7__eu__lab__report\"><tr><th>Test</th><th>28-Sep-2018</th><th>Reference&#xA0;Range</th><th>Unit</th></tr><tr><td>Glucose [Mass/volume] in Blood</td><td>70.5</td><td>70 - 110</td><td></td><td>mg/dL</td></tr></table></div>"
        },
        "status": "final",
        "subject": {
          "reference": "urn:uuid:aa3f1ab2-2d61-42db-92a1-73d69eea9d65",
          "display": "Gabrielius Gaičiūnas"
        },
        "effectiveDateTime": "2018-09-28T16:05:46Z",
        "specimen": {
          "reference": "urn:uuid:896389dd-7ece-40e2-a6ee-6237f10c5bdb"
        }
      }
    },
    {
      "fullUrl": "urn:uuid:8cfb73e4-26f6-41ab-94f4-2f424ae1de01",
      "resource": {
        "resourceType": "Observation",
        "id": "8cfb73e4-26f6-41ab-94f4-2f424ae1de01",
        "meta": {
          "profile": [
            "http://hl7.eu/fhir/laboratory/StructureDefinition/Observation-resultslab-eu-lab"
          ]
        },
        "performer": [
          {
            "display": "The Central European Lab"
          }
        ],
        "category": [
          {
            "coding": [
              {
                "system": "http://terminology.hl7.org/CodeSystem/observation-category",
                "code": "laboratory"
              }
            ]
          }
        ],
        "code": {
          "coding": [
            {
              "code": "6299-2",
              "system": "http://loinc.org",
              "display": "Urea nitrogen [Mass/volume] in Blood"
            }
          ],
          "text": "Urea nitrogen [Mass/volume] in Blood"
        },
        "valueQuantity": {
          "system": "http://unitsofmeasure.org",
          "value": 10.7,
          "unit": "mg/dL",
          "code": "mg/dL"
        },
        "referenceRange": [
          {
            "low": {
              "value": 7,
              "code": "mg/dL",
              "system": "http://unitsofmeasure.org"
            }
          },
          {
            "high": {
              "value": 43,
              "code": "mg/dL",
              "system": "http://unitsofmeasure.org"
            }
          }
        ],
        "text": {
          "status": "generated",
          "div": "<div xmlns=\"http://www.w3.org/1999/xhtml\"><table class=\"hl7__eu__lab__report\"><tr><th>Test</th><th>28-Sep-2018</th><th>Reference&#xA0;Range</th><th>Unit</th></tr><tr><td>Urea nitrogen [Mass/volume] in Blood</td><td>10.7</td><td>7 - 43</td><td></td><td>mg/dL</td></tr></table></div>"
        },
        "status": "final",
        "subject": {
          "reference": "urn:uuid:aa3f1ab2-2d61-42db-92a1-73d69eea9d65",
          "display": "Gabrielius Gaičiūnas"
        },
        "effectiveDateTime": "2018-09-28T16:05:46Z",
        "specimen": {
          "reference": "urn:uuid:896389dd-7ece-40e2-a6ee-6237f10c5bdb"
        }
      }
    },
    {
      "fullUrl": "urn:uuid:c7d32279-f215-4085-8677-a12b77999a38",
      "resource": {
        "resourceType": "Observation",
        "id": "c7d32279-f215-4085-8677-a12b77999a38",
        "meta": {
          "profile": [
            "http://hl7.eu/fhir/laboratory/StructureDefinition/Observation-resultslab-eu-lab"
          ]
        },
        "performer": [
          {
            "display": "The Central European Lab"
          }
        ],
        "category": [
          {
            "coding": [
              {
                "system": "http://terminology.hl7.org/CodeSystem/observation-category",
                "code": "laboratory"
              }
            ]
          }
        ],
        "code": {
          "coding": [
            {
              "code": "38483-4",
              "system": "http://loinc.org",
              "display": "Creatinine [Mass/volume] in Blood"
            }
          ],
          "text": "Creatinine [Mass/volume] in Blood"
        },
        "valueQuantity": {
          "system": "http://unitsofmeasure.org",
          "value": 1,
          "unit": "mg/dL",
          "code": "mg/dL"
        },
        "referenceRange": [
          {
            "low": {
              "value": 0.9,
              "code": "mg/dL",
              "system": "http://unitsofmeasure.org"
            }
          },
          {
            "high": {
              "value": 1.3,
              "code": "mg/dL",
              "system": "http://unitsofmeasure.org"
            }
          }
        ],
        "text": {
          "status": "generated",
          "div": "<div xmlns=\"http://www.w3.org/1999/xhtml\"><table class=\"hl7__eu__lab__report\"><tr><th>Test</th><th>28-Sep-2018</th><th>Reference&#xA0;Range</th><th>Unit</th></tr><tr><td>Creatinine [Mass/volume] in Blood</td><td>1.0</td><td>0.9 - 1.3</td><td></td><td>mg/dL</td></tr></table></div>"
        },
        "status": "final",
        "subject": {
          "reference": "urn:uuid:aa3f1ab2-2d61-42db-92a1-73d69eea9d65",
          "display": "Gabrielius Gaičiūnas"
        },
        "effectiveDateTime": "2018-09-28T16:05:46Z",
        "specimen": {
          "reference": "urn:uuid:896389dd-7ece-40e2-a6ee-6237f10c5bdb"
        }
      }
    },
    {
      "fullUrl": "urn:uuid:410be338-e1f4-4b1e-9be7-cc574e89660c",
      "resource": {
        "resourceType": "Observation",
        "id": "410be338-e1f4-4b1e-9be7-cc574e89660c",
        "meta": {
          "profile": [
            "http://hl7.eu/fhir/laboratory/StructureDefinition/Observation-resultslab-eu-lab"
          ]
        },
        "performer": [
          {
            "display": "The Central European Lab"
          }
        ],
        "category": [
          {
            "coding": [
              {
                "system": "http://terminology.hl7.org/CodeSystem/observation-category",
                "code": "laboratory"
              }
            ]
          }
        ],
        "code": {
          "coding": [
            {
              "code": "49765-1",
              "system": "http://loinc.org",
              "display": "Calcium [Mass/volume] in Blood"
            }
          ],
          "text": "Calcium [Mass/volume] in Blood"
        },
        "valueQuantity": {
          "system": "http://unitsofmeasure.org",
          "value": 9.7,
          "unit": "mg/dL",
          "code": "mg/dL"
        },
        "referenceRange": [
          {
            "low": {
              "value": 8.5,
              "code": "mg/dL",
              "system": "http://unitsofmeasure.org"
            }
          },
          {
            "high": {
              "value": 10.5,
              "code": "mg/dL",
              "system": "http://unitsofmeasure.org"
            }
          }
        ],
        "text": {
          "status": "generated",
          "div": "<div xmlns=\"http://www.w3.org/1999/xhtml\"><table class=\"hl7__eu__lab__report\"><tr><th>Test</th><th>28-Sep-2018</th><th>Reference&#xA0;Range</th><th>Unit</th></tr><tr><td>Calcium [Mass/volume] in Blood</td><td>9.7</td><td>8.5 - 10.5</td><td></td><td>mg/dL</td></tr></table></div>"
        },
        "status": "final",
        "subject": {
          "reference": "urn:uuid:aa3f1ab2-2d61-42db-92a1-73d69eea9d65",
          "display": "Gabrielius Gaičiūnas"
        },
        "effectiveDateTime": "2018-09-28T16:05:46Z",
        "specimen": {
          "reference": "urn:uuid:896389dd-7ece-40e2-a6ee-6237f10c5bdb"
        }
      }
    },
    {
      "fullUrl": "urn:uuid:f80907ab-b328-40c4-ad1c-e3ab12efa9ea",
      "resource": {
        "resourceType": "Observation",
        "id": "f80907ab-b328-40c4-ad1c-e3ab12efa9ea",
        "meta": {
          "profile": [
            "http://hl7.eu/fhir/laboratory/StructureDefinition/Observation-resultslab-eu-lab"
          ]
        },
        "performer": [
          {
            "display": "The Central European Lab"
          }
        ],
        "category": [
          {
            "coding": [
              {
                "system": "http://terminology.hl7.org/CodeSystem/observation-category",
                "code": "laboratory"
              }
            ]
          }
        ],
        "code": {
          "coding": [
            {
              "code": "2947-0",
              "system": "http://loinc.org",
              "display": "Sodium [Moles/volume] in Blood"
            }
          ],
          "text": "Sodium [Moles/volume] in Blood"
        },
        "valueQuantity": {
          "system": "http://unitsofmeasure.org",
          "value": 142.1,
          "unit": "mmol/L",
          "code": "mmol/L"
        },
        "referenceRange": [
          {
            "low": {
              "value": 135,
              "code": "mmol/L",
              "system": "http://unitsofmeasure.org"
            }
          },
          {
            "high": {
              "value": 145,
              "code": "mmol/L",
              "system": "http://unitsofmeasure.org"
            }
          }
        ],
        "text": {
          "status": "generated",
          "div": "<div xmlns=\"http://www.w3.org/1999/xhtml\"><table class=\"hl7__eu__lab__report\"><tr><th>Test</th><th>28-Sep-2018</th><th>Reference&#xA0;Range</th><th>Unit</th></tr><tr><td>Sodium [Moles/volume] in Blood</td><td>142.1</td><td>135 - 145</td><td></td><td>mmol/L</td></tr></table></div>"
        },
        "status": "final",
        "subject": {
          "reference": "urn:uuid:aa3f1ab2-2d61-42db-92a1-73d69eea9d65",
          "display": "Gabrielius Gaičiūnas"
        },
        "effectiveDateTime": "2018-09-28T16:05:46Z",
        "specimen": {
          "reference": "urn:uuid:896389dd-7ece-40e2-a6ee-6237f10c5bdb"
        }
      }
    },
    {
      "fullUrl": "urn:uuid:725435ac-680a-4f45-b37a-04732fc3ebe5",
      "resource": {
        "resourceType": "Observation",
        "id": "725435ac-680a-4f45-b37a-04732fc3ebe5",
        "meta": {
          "profile": [
            "http://hl7.eu/fhir/laboratory/StructureDefinition/Observation-resultslab-eu-lab"
          ]
        },
        "performer": [
          {
            "display": "The Central European Lab"
          }
        ],
        "category": [
          {
            "coding": [
              {
                "system": "http://terminology.hl7.org/CodeSystem/observation-category",
                "code": "laboratory"
              }
            ]
          }
        ],
        "code": {
          "coding": [
            {
              "code": "6298-4",
              "system": "http://loinc.org",
              "display": "Potassium [Moles/volume] in Blood"
            }
          ],
          "text": "Potassium [Moles/volume] in Blood"
        },
        "valueQuantity": {
          "system": "http://unitsofmeasure.org",
          "value": 4,
          "unit": "mmol/L",
          "code": "mmol/L"
        },
        "referenceRange": [
          {
            "low": {
              "value": 3.5,
              "code": "mmol/L",
              "system": "http://unitsofmeasure.org"
            }
          },
          {
            "high": {
              "value": 5.3,
              "code": "mmol/L",
              "system": "http://unitsofmeasure.org"
            }
          }
        ],
        "text": {
          "status": "generated",
          "div": "<div xmlns=\"http://www.w3.org/1999/xhtml\"><table class=\"hl7__eu__lab__report\"><tr><th>Test</th><th>28-Sep-2018</th><th>Reference&#xA0;Range</th><th>Unit</th></tr><tr><td>Potassium [Moles/volume] in Blood</td><td>4.0</td><td>3.5 - 5.3</td><td></td><td>mmol/L</td></tr></table></div>"
        },
        "status": "final",
        "subject": {
          "reference": "urn:uuid:aa3f1ab2-2d61-42db-92a1-73d69eea9d65",
          "display": "Gabrielius Gaičiūnas"
        },
        "effectiveDateTime": "2018-09-28T16:05:46Z",
        "specimen": {
          "reference": "urn:uuid:896389dd-7ece-40e2-a6ee-6237f10c5bdb"
        }
      }
    },
    {
      "fullUrl": "urn:uuid:3e24af7c-ccaf-4e15-a533-81f9681a5d39",
      "resource": {
        "resourceType": "Observation",
        "id": "3e24af7c-ccaf-4e15-a533-81f9681a5d39",
        "meta": {
          "profile": [
            "http://hl7.eu/fhir/laboratory/StructureDefinition/Observation-resultslab-eu-lab"
          ]
        },
        "performer": [
          {
            "display": "The Central European Lab"
          }
        ],
        "category": [
          {
            "coding": [
              {
                "system": "http://terminology.hl7.org/CodeSystem/observation-category",
                "code": "laboratory"
              }
            ]
          }
        ],
        "code": {
          "coding": [
            {
              "code": "2069-3",
              "system": "http://loinc.org",
              "display": "Chloride [Moles/volume] in Blood"
            }
          ],
          "text": "Chloride [Moles/volume] in Blood"
        },
        "valueQuantity": {
          "system": "http://unitsofmeasure.org",
          "value": 102.7,
          "unit": "mmol/L",
          "code": "mmol/L"
        },
        "referenceRange": [
          {
            "low": {
              "value": 98,
              "code": "mmol/L",
              "system": "http://unitsofmeasure.org"
            }
          },
          {
            "high": {
              "value": 108,
              "code": "mmol/L",
              "system": "http://unitsofmeasure.org"
            }
          }
        ],
        "text": {
          "status": "generated",
          "div": "<div xmlns=\"http://www.w3.org/1999/xhtml\"><table class=\"hl7__eu__lab__report\"><tr><th>Test</th><th>28-Sep-2018</th><th>Reference&#xA0;Range</th><th>Unit</th></tr><tr><td>Chloride [Moles/volume] in Blood</td><td>102.7</td><td>98 - 108</td><td></td><td>mmol/L</td></tr></table></div>"
        },
        "status": "final",
        "subject": {
          "reference": "urn:uuid:aa3f1ab2-2d61-42db-92a1-73d69eea9d65",
          "display": "Gabrielius Gaičiūnas"
        },
        "effectiveDateTime": "2018-09-28T16:05:46Z",
        "specimen": {
          "reference": "urn:uuid:896389dd-7ece-40e2-a6ee-6237f10c5bdb"
        }
      }
    },
    {
      "fullUrl": "urn:uuid:50aa6737-f9c5-464b-8be9-89df99ae58c3",
      "resource": {
        "resourceType": "Observation",
        "id": "50aa6737-f9c5-464b-8be9-89df99ae58c3",
        "meta": {
          "profile": [
            "http://hl7.eu/fhir/laboratory/StructureDefinition/Observation-resultslab-eu-lab"
          ]
        },
        "performer": [
          {
            "display": "The Central European Lab"
          }
        ],
        "category": [
          {
            "coding": [
              {
                "system": "http://terminology.hl7.org/CodeSystem/observation-category",
                "code": "laboratory"
              }
            ]
          }
        ],
        "code": {
          "coding": [
            {
              "code": "20565-8",
              "system": "http://loinc.org",
              "display": "Carbon dioxide, total [Moles/volume] in Blood"
            }
          ],
          "text": "Carbon dioxide, total [Moles/volume] in Blood"
        },
        "valueQuantity": {
          "system": "http://unitsofmeasure.org",
          "value": 26.9,
          "unit": "mmol/L",
          "code": "mmol/L"
        },
        "referenceRange": [
          {
            "low": {
              "value": 22,
              "code": "mmol/L",
              "system": "http://unitsofmeasure.org"
            }
          },
          {
            "high": {
              "value": 29,
              "code": "mmol/L",
              "system": "http://unitsofmeasure.org"
            }
          }
        ],
        "text": {
          "status": "generated",
          "div": "<div xmlns=\"http://www.w3.org/1999/xhtml\"><table class=\"hl7__eu__lab__report\"><tr><th>Test</th><th>28-Sep-2018</th><th>Reference&#xA0;Range</th><th>Unit</th></tr><tr><td>Carbon dioxide, total [Moles/volume] in Blood</td><td>26.9</td><td>22 - 29</td><td></td><td>mmol/L</td></tr></table></div>"
        },
        "status": "final",
        "subject": {
          "reference": "urn:uuid:aa3f1ab2-2d61-42db-92a1-73d69eea9d65",
          "display": "Gabrielius Gaičiūnas"
        },
        "effectiveDateTime": "2018-09-28T16:05:46Z",
        "specimen": {
          "reference": "urn:uuid:896389dd-7ece-40e2-a6ee-6237f10c5bdb"
        }
      }
    },
    {
      "fullUrl": "urn:uuid:260c8ef8-87a1-4b0f-ad5a-baedf7aa7fb5",
      "resource": {
        "resourceType": "Observation",
        "id": "260c8ef8-87a1-4b0f-ad5a-baedf7aa7fb5",
        "meta": {
          "profile": [
            "http://hl7.eu/fhir/laboratory/StructureDefinition/Observation-resultslab-eu-lab"
          ]
        },
        "performer": [
          {
            "display": "The Central European Lab"
          }
        ],
        "category": [
          {
            "coding": [
              {
                "system": "http://terminology.hl7.org/CodeSystem/observation-category",
                "code": "laboratory"
              }
            ]
          }
        ],
        "code": {
          "coding": [
            {
              "code": "6690-2",
              "system": "http://loinc.org",
              "display": "Leukocytes [#/volume] in Blood by Automated count"
            }
          ],
          "text": "Leukocytes [#/volume] in Blood by Automated count"
        },
        "valueQuantity": {
          "system": "http://unitsofmeasure.org",
          "value": 4.9,
          "unit": "10*3/uL",
          "code": "10*3/uL"
        },
        "referenceRange": [
          {
            "low": {
              "value": 4,
              "code": "10*3/uL",
              "system": "http://unitsofmeasure.org"
            }
          },
          {
            "high": {
              "value": 11,
              "code": "10*3/uL",
              "system": "http://unitsofmeasure.org"
            }
          }
        ],
        "text": {
          "status": "generated",
          "div": "<div xmlns=\"http://www.w3.org/1999/xhtml\"><table class=\"hl7__eu__lab__report\"><tr><th>Test</th><th>28-Sep-2018</th><th>Reference&#xA0;Range</th><th>Unit</th></tr><tr><td>Leukocytes [#/volume] in Blood by Automated count</td><td>4.9</td><td>4 - 11</td><td></td><td>10*3/uL</td></tr></table></div>"
        },
        "status": "final",
        "subject": {
          "reference": "urn:uuid:aa3f1ab2-2d61-42db-92a1-73d69eea9d65",
          "display": "Gabrielius Gaičiūnas"
        },
        "effectiveDateTime": "2018-09-28T16:05:46Z",
        "specimen": {
          "reference": "urn:uuid:896389dd-7ece-40e2-a6ee-6237f10c5bdb"
        }
      }
    },
    {
      "fullUrl": "urn:uuid:cd3a9721-17ad-428c-9175-3f20051a307b",
      "resource": {
        "resourceType": "Observation",
        "id": "cd3a9721-17ad-428c-9175-3f20051a307b",
        "meta": {
          "profile": [
            "http://hl7.eu/fhir/laboratory/StructureDefinition/Observation-resultslab-eu-lab"
          ]
        },
        "performer": [
          {
            "display": "The Central European Lab"
          }
        ],
        "category": [
          {
            "coding": [
              {
                "system": "http://terminology.hl7.org/CodeSystem/observation-category",
                "code": "laboratory"
              }
            ]
          }
        ],
        "code": {
          "coding": [
            {
              "code": "789-8",
              "system": "http://loinc.org",
              "display": "Erythrocytes [#/volume] in Blood by Automated count"
            }
          ],
          "text": "Erythrocytes [#/volume] in Blood by Automated count"
        },
        "valueQuantity": {
          "system": "http://unitsofmeasure.org",
          "value": 4.6,
          "unit": "10*6/uL",
          "code": "10*6/uL"
        },
        "referenceRange": [
          {
            "low": {
              "value": 4.5,
              "code": "10*6/uL",
              "system": "http://unitsofmeasure.org"
            }
          },
          {
            "high": {
              "value": 5.7,
              "code": "10*6/uL",
              "system": "http://unitsofmeasure.org"
            }
          }
        ],
        "text": {
          "status": "generated",
          "div": "<div xmlns=\"http://www.w3.org/1999/xhtml\"><table class=\"hl7__eu__lab__report\"><tr><th>Test</th><th>28-Sep-2018</th><th>Reference&#xA0;Range</th><th>Unit</th></tr><tr><td>Erythrocytes [#/volume] in Blood by Automated count</td><td>4.6</td><td>4.5 - 5.7</td><td></td><td>10*6/uL</td></tr></table></div>"
        },
        "status": "final",
        "subject": {
          "reference": "urn:uuid:aa3f1ab2-2d61-42db-92a1-73d69eea9d65",
          "display": "Gabrielius Gaičiūnas"
        },
        "effectiveDateTime": "2018-09-28T16:05:46Z",
        "specimen": {
          "reference": "urn:uuid:896389dd-7ece-40e2-a6ee-6237f10c5bdb"
        }
      }
    },
    {
      "fullUrl": "urn:uuid:42e2785f-6cbb-4161-bdf0-dc68cdbc394b",
      "resource": {
        "resourceType": "Observation",
        "id": "42e2785f-6cbb-4161-bdf0-dc68cdbc394b",
        "meta": {
          "profile": [
            "http://hl7.eu/fhir/laboratory/StructureDefinition/Observation-resultslab-eu-lab"
          ]
        },
        "performer": [
          {
            "display": "The Central European Lab"
          }
        ],
        "category": [
          {
            "coding": [
              {
                "system": "http://terminology.hl7.org/CodeSystem/observation-category",
                "code": "laboratory"
              }
            ]
          }
        ],
        "code": {
          "coding": [
            {
              "code": "718-7",
              "system": "http://loinc.org",
              "display": "Hemoglobin [Mass/volume] in Blood"
            }
          ],
          "text": "Hemoglobin [Mass/volume] in Blood"
        },
        "valueQuantity": {
          "system": "http://unitsofmeasure.org",
          "value": 15.1,
          "unit": "g/dL",
          "code": "g/dL"
        },
        "referenceRange": [
          {
            "low": {
              "value": 13.5,
              "code": "g/dL",
              "system": "http://unitsofmeasure.org"
            }
          },
          {
            "high": {
              "value": 17.5,
              "code": "g/dL",
              "system": "http://unitsofmeasure.org"
            }
          }
        ],
        "text": {
          "status": "generated",
          "div": "<div xmlns=\"http://www.w3.org/1999/xhtml\"><table class=\"hl7__eu__lab__report\"><tr><th>Test</th><th>28-Sep-2018</th><th>Reference&#xA0;Range</th><th>Unit</th></tr><tr><td>Hemoglobin [Mass/volume] in Blood</td><td>15.1</td><td>13.5 - 17.5</td><td></td><td>g/dL</td></tr></table></div>"
        },
        "status": "final",
        "subject": {
          "reference": "urn:uuid:aa3f1ab2-2d61-42db-92a1-73d69eea9d65",
          "display": "Gabrielius Gaičiūnas"
        },
        "effectiveDateTime": "2018-09-28T16:05:46Z",
        "specimen": {
          "reference": "urn:uuid:896389dd-7ece-40e2-a6ee-6237f10c5bdb"
        }
      }
    },
    {
      "fullUrl": "urn:uuid:4d9b754d-730b-4f92-81ca-f5db625fdcf6",
      "resource": {
        "resourceType": "Observation",
        "id": "4d9b754d-730b-4f92-81ca-f5db625fdcf6",
        "meta": {
          "profile": [
            "http://hl7.eu/fhir/laboratory/StructureDefinition/Observation-resultslab-eu-lab"
          ]
        },
        "performer": [
          {
            "display": "The Central European Lab"
          }
        ],
        "category": [
          {
            "coding": [
              {
                "system": "http://terminology.hl7.org/CodeSystem/observation-category",
                "code": "laboratory"
              }
            ]
          }
        ],
        "code": {
          "coding": [
            {
              "code": "4544-3",
              "system": "http://loinc.org",
              "display": "Hematocrit [Volume Fraction] of Blood by Automated count"
            }
          ],
          "text": "Hematocrit [Volume Fraction] of Blood by Automated count"
        },
        "valueQuantity": {
          "system": "http://unitsofmeasure.org",
          "value": 47.3,
          "unit": "%",
          "code": "%"
        },
        "referenceRange": [
          {
            "low": {
              "value": 38,
              "code": "%",
              "system": "http://unitsofmeasure.org"
            }
          },
          {
            "high": {
              "value": 50,
              "code": "%",
              "system": "http://unitsofmeasure.org"
            }
          }
        ],
        "text": {
          "status": "generated",
          "div": "<div xmlns=\"http://www.w3.org/1999/xhtml\"><table class=\"hl7__eu__lab__report\"><tr><th>Test</th><th>28-Sep-2018</th><th>Reference&#xA0;Range</th><th>Unit</th></tr><tr><td>Hematocrit [Volume Fraction] of Blood by Automated count</td><td>47.3</td><td>38 - 50</td><td></td><td>%</td></tr></table></div>"
        },
        "status": "final",
        "subject": {
          "reference": "urn:uuid:aa3f1ab2-2d61-42db-92a1-73d69eea9d65",
          "display": "Gabrielius Gaičiūnas"
        },
        "effectiveDateTime": "2018-09-28T16:05:46Z",
        "specimen": {
          "reference": "urn:uuid:896389dd-7ece-40e2-a6ee-6237f10c5bdb"
        }
      }
    },
    {
      "fullUrl": "urn:uuid:9ee6e00d-ce52-459e-80fb-090c85d32bf4",
      "resource": {
        "resourceType": "Observation",
        "id": "9ee6e00d-ce52-459e-80fb-090c85d32bf4",
        "meta": {
          "profile": [
            "http://hl7.eu/fhir/laboratory/StructureDefinition/Observation-resultslab-eu-lab"
          ]
        },
        "performer": [
          {
            "display": "The Central European Lab"
          }
        ],
        "category": [
          {
            "coding": [
              {
                "system": "http://terminology.hl7.org/CodeSystem/observation-category",
                "code": "laboratory"
              }
            ]
          }
        ],
        "code": {
          "coding": [
            {
              "code": "787-2",
              "system": "http://loinc.org",
              "display": "MCV [Entitic volume] by Automated count"
            }
          ],
          "text": "MCV [Entitic volume] by Automated count"
        },
        "valueQuantity": {
          "system": "http://unitsofmeasure.org",
          "value": 91.4,
          "unit": "fL",
          "code": "fL"
        },
        "referenceRange": [
          {
            "low": {
              "value": 76,
              "code": "fL",
              "system": "http://unitsofmeasure.org"
            }
          },
          {
            "high": {
              "value": 98,
              "code": "fL",
              "system": "http://unitsofmeasure.org"
            }
          }
        ],
        "text": {
          "status": "generated",
          "div": "<div xmlns=\"http://www.w3.org/1999/xhtml\"><table class=\"hl7__eu__lab__report\"><tr><th>Test</th><th>28-Sep-2018</th><th>Reference&#xA0;Range</th><th>Unit</th></tr><tr><td>MCV [Entitic volume] by Automated count</td><td>91.4</td><td>76 - 98</td><td></td><td>fL</td></tr></table></div>"
        },
        "status": "final",
        "subject": {
          "reference": "urn:uuid:aa3f1ab2-2d61-42db-92a1-73d69eea9d65",
          "display": "Gabrielius Gaičiūnas"
        },
        "effectiveDateTime": "2018-09-28T16:05:46Z",
        "specimen": {
          "reference": "urn:uuid:896389dd-7ece-40e2-a6ee-6237f10c5bdb"
        }
      }
    },
    {
      "fullUrl": "urn:uuid:dfa8b3f4-74ed-41ff-ae83-837052a762f3",
      "resource": {
        "resourceType": "Observation",
        "id": "dfa8b3f4-74ed-41ff-ae83-837052a762f3",
        "meta": {
          "profile": [
            "http://hl7.eu/fhir/laboratory/StructureDefinition/Observation-resultslab-eu-lab"
          ]
        },
        "performer": [
          {
            "display": "The Central European Lab"
          }
        ],
        "category": [
          {
            "coding": [
              {
                "system": "http://terminology.hl7.org/CodeSystem/observation-category",
                "code": "laboratory"
              }
            ]
          }
        ],
        "code": {
          "coding": [
            {
              "code": "785-6",
              "system": "http://loinc.org",
              "display": "MCH [Entitic mass] by Automated count"
            }
          ],
          "text": "MCH [Entitic mass] by Automated count"
        },
        "valueQuantity": {
          "system": "http://unitsofmeasure.org",
          "value": 31,
          "unit": "pg",
          "code": "pg"
        },
        "referenceRange": [
          {
            "low": {
              "value": 27,
              "code": "pg",
              "system": "http://unitsofmeasure.org"
            }
          },
          {
            "high": {
              "value": 34,
              "code": "pg",
              "system": "http://unitsofmeasure.org"
            }
          }
        ],
        "text": {
          "status": "generated",
          "div": "<div xmlns=\"http://www.w3.org/1999/xhtml\"><table class=\"hl7__eu__lab__report\"><tr><th>Test</th><th>28-Sep-2018</th><th>Reference&#xA0;Range</th><th>Unit</th></tr><tr><td>MCH [Entitic mass] by Automated count</td><td>31.0</td><td>27 - 34</td><td></td><td>pg</td></tr></table></div>"
        },
        "status": "final",
        "subject": {
          "reference": "urn:uuid:aa3f1ab2-2d61-42db-92a1-73d69eea9d65",
          "display": "Gabrielius Gaičiūnas"
        },
        "effectiveDateTime": "2018-09-28T16:05:46Z",
        "specimen": {
          "reference": "urn:uuid:896389dd-7ece-40e2-a6ee-6237f10c5bdb"
        }
      }
    },
    {
      "fullUrl": "urn:uuid:2ba174e7-125a-4c6c-a810-9781e48441ed",
      "resource": {
        "resourceType": "Observation",
        "id": "2ba174e7-125a-4c6c-a810-9781e48441ed",
        "meta": {
          "profile": [
            "http://hl7.eu/fhir/laboratory/StructureDefinition/Observation-resultslab-eu-lab"
          ]
        },
        "performer": [
          {
            "display": "The Central European Lab"
          }
        ],
        "category": [
          {
            "coding": [
              {
                "system": "http://terminology.hl7.org/CodeSystem/observation-category",
                "code": "laboratory"
              }
            ]
          }
        ],
        "code": {
          "coding": [
            {
              "code": "786-4",
              "system": "http://loinc.org",
              "display": "MCHC [Mass/volume] by Automated count"
            }
          ],
          "text": "MCHC [Mass/volume] by Automated count"
        },
        "valueQuantity": {
          "system": "http://unitsofmeasure.org",
          "value": 33.3,
          "unit": "g/dL",
          "code": "g/dL"
        },
        "referenceRange": [
          {
            "low": {
              "value": 31,
              "code": "g/dL",
              "system": "http://unitsofmeasure.org"
            }
          },
          {
            "high": {
              "value": 35,
              "code": "g/dL",
              "system": "http://unitsofmeasure.org"
            }
          }
        ],
        "text": {
          "status": "generated",
          "div": "<div xmlns=\"http://www.w3.org/1999/xhtml\"><table class=\"hl7__eu__lab__report\"><tr><th>Test</th><th>28-Sep-2018</th><th>Reference&#xA0;Range</th><th>Unit</th></tr><tr><td>MCHC [Mass/volume] by Automated count</td><td>33.3</td><td>31 - 35</td><td></td><td>g/dL</td></tr></table></div>"
        },
        "status": "final",
        "subject": {
          "reference": "urn:uuid:aa3f1ab2-2d61-42db-92a1-73d69eea9d65",
          "display": "Gabrielius Gaičiūnas"
        },
        "effectiveDateTime": "2018-09-28T16:05:46Z",
        "specimen": {
          "reference": "urn:uuid:896389dd-7ece-40e2-a6ee-6237f10c5bdb"
        }
      }
    },
    {
      "fullUrl": "urn:uuid:b4db7515-be1d-4859-a69c-326b67644030",
      "resource": {
        "resourceType": "Observation",
        "id": "b4db7515-be1d-4859-a69c-326b67644030",
        "meta": {
          "profile": [
            "http://hl7.eu/fhir/laboratory/StructureDefinition/Observation-resultslab-eu-lab"
          ]
        },
        "performer": [
          {
            "display": "The Central European Lab"
          }
        ],
        "category": [
          {
            "coding": [
              {
                "system": "http://terminology.hl7.org/CodeSystem/observation-category",
                "code": "laboratory"
              }
            ]
          }
        ],
        "code": {
          "coding": [
            {
              "code": "21000-5",
              "system": "http://loinc.org",
              "display": "Erythrocyte distribution width [Entitic volume] by Automated count"
            }
          ],
          "text": "Erythrocyte distribution width [Entitic volume] by Automated count"
        },
        "valueQuantity": {
          "system": "http://unitsofmeasure.org",
          "value": 42.1,
          "unit": "fL",
          "code": "fL"
        },
        "referenceRange": [
          {
            "low": {
              "value": 39,
              "code": "fL",
              "system": "http://unitsofmeasure.org"
            }
          },
          {
            "high": {
              "value": 55,
              "code": "fL",
              "system": "http://unitsofmeasure.org"
            }
          }
        ],
        "text": {
          "status": "generated",
          "div": "<div xmlns=\"http://www.w3.org/1999/xhtml\"><table class=\"hl7__eu__lab__report\"><tr><th>Test</th><th>28-Sep-2018</th><th>Reference&#xA0;Range</th><th>Unit</th></tr><tr><td>Erythrocyte distribution width [Entitic volume] by Automated count</td><td>42.1</td><td>39 - 55</td><td></td><td>fL</td></tr></table></div>"
        },
        "status": "final",
        "subject": {
          "reference": "urn:uuid:aa3f1ab2-2d61-42db-92a1-73d69eea9d65",
          "display": "Gabrielius Gaičiūnas"
        },
        "effectiveDateTime": "2018-09-28T16:05:46Z",
        "specimen": {
          "reference": "urn:uuid:896389dd-7ece-40e2-a6ee-6237f10c5bdb"
        }
      }
    },
    {
      "fullUrl": "urn:uuid:4c8d46da-7301-4efd-81e8-6625688bd02c",
      "resource": {
        "resourceType": "Observation",
        "id": "4c8d46da-7301-4efd-81e8-6625688bd02c",
        "meta": {
          "profile": [
            "http://hl7.eu/fhir/laboratory/StructureDefinition/Observation-resultslab-eu-lab"
          ]
        },
        "performer": [
          {
            "display": "The Central European Lab"
          }
        ],
        "category": [
          {
            "coding": [
              {
                "system": "http://terminology.hl7.org/CodeSystem/observation-category",
                "code": "laboratory"
              }
            ]
          }
        ],
        "code": {
          "coding": [
            {
              "code": "777-3",
              "system": "http://loinc.org",
              "display": "Platelets [#/volume] in Blood by Automated count"
            }
          ],
          "text": "Platelets [#/volume] in Blood by Automated count"
        },
        "valueQuantity": {
          "system": "http://unitsofmeasure.org",
          "value": 252,
          "unit": "10*3/uL",
          "code": "10*3/uL"
        },
        "referenceRange": [
          {
            "low": {
              "value": 150,
              "code": "10*3/uL",
              "system": "http://unitsofmeasure.org"
            }
          },
          {
            "high": {
              "value": 450,
              "code": "10*3/uL",
              "system": "http://unitsofmeasure.org"
            }
          }
        ],
        "text": {
          "status": "generated",
          "div": "<div xmlns=\"http://www.w3.org/1999/xhtml\"><table class=\"hl7__eu__lab__report\"><tr><th>Test</th><th>28-Sep-2018</th><th>Reference&#xA0;Range</th><th>Unit</th></tr><tr><td>Platelets [#/volume] in Blood by Automated count</td><td>252.0</td><td>150 - 450</td><td></td><td>10*3/uL</td></tr></table></div>"
        },
        "status": "final",
        "subject": {
          "reference": "urn:uuid:aa3f1ab2-2d61-42db-92a1-73d69eea9d65",
          "display": "Gabrielius Gaičiūnas"
        },
        "effectiveDateTime": "2018-09-28T16:05:46Z",
        "specimen": {
          "reference": "urn:uuid:896389dd-7ece-40e2-a6ee-6237f10c5bdb"
        }
      }
    },
    {
      "fullUrl": "urn:uuid:5b51e762-4a59-4ed4-bcc3-503aff4ccd07",
      "resource": {
        "resourceType": "Observation",
        "id": "5b51e762-4a59-4ed4-bcc3-503aff4ccd07",
        "meta": {
          "profile": [
            "http://hl7.eu/fhir/laboratory/StructureDefinition/Observation-resultslab-eu-lab"
          ]
        },
        "performer": [
          {
            "display": "The Central European Lab"
          }
        ],
        "category": [
          {
            "coding": [
              {
                "system": "http://terminology.hl7.org/CodeSystem/observation-category",
                "code": "laboratory"
              }
            ]
          }
        ],
        "code": {
          "coding": [
            {
              "code": "32207-3",
              "system": "http://loinc.org",
              "display": "Platelet distribution width [Entitic volume] in Blood by Automated count"
            }
          ],
          "text": "Platelet distribution width [Entitic volume] in Blood by Automated count"
        },
        "valueQuantity": {
          "system": "http://unitsofmeasure.org",
          "value": 490.1,
          "unit": "fL",
          "code": "fL"
        },
        "referenceRange": [
          {
            "low": {
              "value": 13.4,
              "code": "fL",
              "system": "http://unitsofmeasure.org"
            }
          },
          {
            "high": {
              "value": 17.4,
              "code": "fL",
              "system": "http://unitsofmeasure.org"
            }
          }
        ],
        "interpretation": [
          {
            "coding": [
              {
                "code": "H",
                "system": "http://terminology.hl7.org/CodeSystem/v3-ObservationInterpretation",
                "display": "High"
              }
            ]
          }
        ],
        "text": {
          "status": "generated",
          "div": "<div xmlns=\"http://www.w3.org/1999/xhtml\"><table class=\"hl7__eu__lab__report\"><tr><th>Test</th><th>28-Sep-2018</th><th>Reference&#xA0;Range</th><th>Unit</th></tr><tr><td>Platelet distribution width [Entitic volume] in Blood by Automated count</td><td>490.1</td><td>13.4 - 17.4</td><td>H</td><td>fL</td></tr></table></div>"
        },
        "status": "final",
        "subject": {
          "reference": "urn:uuid:aa3f1ab2-2d61-42db-92a1-73d69eea9d65",
          "display": "Gabrielius Gaičiūnas"
        },
        "effectiveDateTime": "2018-09-28T16:05:46Z",
        "specimen": {
          "reference": "urn:uuid:896389dd-7ece-40e2-a6ee-6237f10c5bdb"
        }
      }
    },
    {
      "fullUrl": "urn:uuid:4219277e-a56b-4eea-8dc5-ee9a5aba972b",
      "resource": {
        "resourceType": "Observation",
        "id": "4219277e-a56b-4eea-8dc5-ee9a5aba972b",
        "meta": {
          "profile": [
            "http://hl7.eu/fhir/laboratory/StructureDefinition/Observation-resultslab-eu-lab"
          ]
        },
        "performer": [
          {
            "display": "The Central European Lab"
          }
        ],
        "category": [
          {
            "coding": [
              {
                "system": "http://terminology.hl7.org/CodeSystem/observation-category",
                "code": "laboratory"
              }
            ]
          }
        ],
        "code": {
          "coding": [
            {
              "code": "32623-1",
              "system": "http://loinc.org",
              "display": "Platelet mean volume [Entitic volume] in Blood by Automated count"
            }
          ],
          "text": "Platelet mean volume [Entitic volume] in Blood by Automated count"
        },
        "valueQuantity": {
          "system": "http://unitsofmeasure.org",
          "value": 10.8,
          "unit": "fL",
          "code": "fL"
        },
        "referenceRange": [
          {
            "low": {
              "value": 7.2,
              "code": "fL",
              "system": "http://unitsofmeasure.org"
            }
          },
          {
            "high": {
              "value": 13.5,
              "code": "fL",
              "system": "http://unitsofmeasure.org"
            }
          }
        ],
        "text": {
          "status": "generated",
          "div": "<div xmlns=\"http://www.w3.org/1999/xhtml\"><table class=\"hl7__eu__lab__report\"><tr><th>Test</th><th>28-Sep-2018</th><th>Reference&#xA0;Range</th><th>Unit</th></tr><tr><td>Platelet mean volume [Entitic volume] in Blood by Automated count</td><td>10.8</td><td>7.2 - 13.5</td><td></td><td>fL</td></tr></table></div>"
        },
        "status": "final",
        "subject": {
          "reference": "urn:uuid:aa3f1ab2-2d61-42db-92a1-73d69eea9d65",
          "display": "Gabrielius Gaičiūnas"
        },
        "effectiveDateTime": "2018-09-28T16:05:46Z",
        "specimen": {
          "reference": "urn:uuid:896389dd-7ece-40e2-a6ee-6237f10c5bdb"
        }
      }
    },
    {
      "fullUrl": "urn:uuid:b22401e8-caeb-457a-bbdc-40f5aaa77924",
      "resource": {
        "resourceType": "Device",
        "id": "b22401e8-caeb-457a-bbdc-40f5aaa77924",
        "deviceName": [
          {
            "name": "SYNDERAI Synthetic Generator",
            "type": "manufacturer-name"
          }
        ],
        "version": [
          {
            "value": "5.0"
          }
        ],
        "text": {
          "status": "generated",
          "div": "<div xmlns=\"http://www.w3.org/1999/xhtml\">SYNDERAI Synthetic Generator v5.0</div>"
        },
        "status": "active\"",
        "distinctIdentifier": "synderai-generator-50",
        "manufacturer": "SYNDERAI Project"
      }
    },
    {
      "fullUrl": "urn:uuid:d9742cd2-4bc7-448c-8bb5-fed3f618eafd",
      "resource": {
        "resourceType": "Provenance",
        "id": "d9742cd2-4bc7-448c-8bb5-fed3f618eafd",
        "target": [
          {
            "reference": "Patient/aa3f1ab2-2d61-42db-92a1-73d69eea9d65"
          },
          {
            "reference": "Bundle/da725219-170f-4e29-9acd-a249d98e4731"
          },
          {
            "reference": "Composition/c0005f45-8eb0-4398-a222-5c058a79f5e7"
          },
          {
            "reference": "PractitionerRole/bd6fbb88-dc4f-41e8-8a35-dddbd62da552"
          },
          {
            "reference": "Practitioner/96101c21-ccef-4da3-89d8-1a7a00caf153"
          },
          {
            "reference": "PractitionerRole/4eb65f00-7c67-4473-97ee-3919771ca036"
          },
          {
            "reference": "Organization/b1d8ab2b-6576-4a3b-b7db-887785a1a150"
          }
        ],
        "activity": {
          "text": "Synthetic Example Data Generation"
        },
        "policy": [
          "https://synderai.net/synderai-synthetic-data-policy"
        ],
        "agent": [
          {
            "type": {
              "text": "author"
            },
            "who": {
              "reference": "Device/b22401e8-caeb-457a-bbdc-40f5aaa77924"
            }
          }
        ],
        "reason": [
          {
            "text": "Interoperability Testing and Training (non-clinical use)"
          }
        ],
        "text": {
          "status": "generated",
          "div": "<div xmlns=\"http://www.w3.org/1999/xhtml\">Provenance for SYNDERAI Synthetic Example Data Resource</div>"
        },
        "recorded": "2018-09-28T18:05:46Z"
      }
    },
    {
      "fullUrl": "urn:uuid:bd6fbb88-dc4f-41e8-8a35-dddbd62da552",
      "resource": {
        "resourceType": "PractitionerRole",
        "id": "bd6fbb88-dc4f-41e8-8a35-dddbd62da552",
        "meta": {
          "profile": [
            "http://hl7.eu/fhir/base/StructureDefinition/practitionerRole-eu"
          ]
        },
        "text": {
          "status": "generated",
          "div": "<div xmlns=\"http://www.w3.org/1999/xhtml\">Laboratory Role Id: bd6fbb88-dc4f-41e8-8a35-dddbd62da552</div>"
        },
        "practitioner": {
          "reference": "urn:uuid:96101c21-ccef-4da3-89d8-1a7a00caf153"
        }
      }
    },
    {
      "fullUrl": "urn:uuid:96101c21-ccef-4da3-89d8-1a7a00caf153",
      "resource": {
        "resourceType": "Practitioner",
        "id": "96101c21-ccef-4da3-89d8-1a7a00caf153",
        "meta": {
          "profile": [
            "http://hl7.eu/fhir/base/StructureDefinition/practitioner-eu"
          ]
        },
        "identifier": [
          {
            "assigner": {
              "display": "HL7 Europe"
            },
            "system": "urn:oid:2.16.840.1.113883.2.51.999",
            "value": "3fea5961-74a3-4417-8a89-d31ec2f00b89"
          }
        ],
        "name": [
          {
            "prefix": [
              "dr"
            ],
            "given": [
              "Ex"
            ],
            "family": "Ample"
          }
        ],
        "address": [
          {
            "line": [
              "Laboratoire Central Européenne",
              "Boulevard du Jardin Botanique 32"
            ],
            "postalCode": "1000",
            "city": "Brussels",
            "country": "Belgium"
          }
        ],
        "text": {
          "status": "generated",
          "div": "<div xmlns=\"http://www.w3.org/1999/xhtml\">Laboratory: Laboratoire Central Européenne, 1000 Brussels, Belgium</div>"
        }
      }
    }
  ],
  "type": "document",
  "timestamp": "2018-09-28T18:05:46Z"
}
