{
  "resourceType": "Bundle",
  "id": "0acfdc58-0e25-46b7-a51d-a3d9d0e4e262",
  "meta": {
    "profile": [
      "http://hl7.eu/fhir/laboratory/StructureDefinition/Bundle-eu-lab"
    ]
  },
  "identifier": {
    "assigner": {
      "display": "HL7 Europe"
    },
    "system": "urn:oid:2.16.840.1.113883.2.51.999",
    "value": "e41ca918-e9b1-4fb4-8301-6c86fce46b02"
  },
  "entry": [
    {
      "fullUrl": "urn:uuid:9bc9a105-2080-4b8f-894f-a06730fd6e02",
      "resource": {
        "resourceType": "Composition",
        "id": "9bc9a105-2080-4b8f-894f-a06730fd6e02",
        "meta": {
          "profile": [
            "http://hl7.eu/fhir/laboratory/StructureDefinition/Composition-eu-lab"
          ]
        },
        "identifier": {
          "assigner": {
            "display": "HL7 Europe"
          },
          "system": "urn:oid:2.16.840.1.113883.2.51.999",
          "value": "e095d7c5-2b58-40cc-a757-40bfc4174ce4"
        },
        "author": [
          {
            "reference": "urn:uuid:faba57a5-6dc7-4ccd-a2a6-466290a8c476"
          }
        ],
        "category": [
          {
            "coding": [
              {
                "code": "26436-6",
                "system": "http://loinc.org",
                "display": "Laboratory studies (set)"
              }
            ]
          }
        ],
        "type": {
          "coding": [
            {
              "code": "11502-2",
              "system": "http://loinc.org",
              "display": "Laboratory report"
            }
          ],
          "text": "Laboratory Report"
        },
        "section": [
          {
            "code": {
              "coding": [
                {
                  "code": "26436-6",
                  "system": "http://loinc.org",
                  "display": "Laboratory studies (set)"
                }
              ],
              "text": "Laboratory studies"
            },
            "section": [
              {
                "code": {
                  "coding": [
                    {
                      "code": "$18719-5",
                      "system": "http://loinc.org",
                      "display": "Chemistry studies (set)"
                    }
                  ],
                  "text": "Chemistry"
                },
                "entry": [
                  {
                    "reference": "urn:uuid:b5104073-5457-40b3-99fe-8d2b2858b46b"
                  },
                  {
                    "reference": "urn:uuid:05dca8ae-ff99-4c74-abb2-3bba6104c545"
                  },
                  {
                    "reference": "urn:uuid:db72ffd6-7de6-4fb4-8b4a-f910cfd03a1c"
                  },
                  {
                    "reference": "urn:uuid:a7b39cb6-aef1-4519-82c5-171c1de6ca4e"
                  },
                  {
                    "reference": "urn:uuid:76c4cc0f-f4d1-4a95-b7de-b7ce150a3ecc"
                  },
                  {
                    "reference": "urn:uuid:fe0bfff9-3024-4030-b4ca-c1c9567958dc"
                  },
                  {
                    "reference": "urn:uuid:b869f6ae-c35b-4979-81eb-1943dc8b50d5"
                  },
                  {
                    "reference": "urn:uuid:6c94ec7b-9d02-4925-aea9-40fd048fe522"
                  },
                  {
                    "reference": "urn:uuid:9adfa627-5422-4776-b4c9-0ef3407846f7"
                  },
                  {
                    "reference": "urn:uuid:f3adf951-6e26-4e79-899f-43eae437b5d0"
                  },
                  {
                    "reference": "urn:uuid:b1e34e12-72c4-43c5-bf39-5bb91523f959"
                  },
                  {
                    "reference": "urn:uuid:1e351efe-2e2b-4d3f-88b2-4a76a5f6dc57"
                  },
                  {
                    "reference": "urn:uuid:5132732d-8f8e-4b7e-bb75-ff21a561070b"
                  }
                ],
                "text": {
                  "status": "generated",
                  "div": "<div xmlns=\"http://www.w3.org/1999/xhtml\"><h3>Chemistry</h3><table class=\"hl7__eu__lab__report\"><thead><tr><th>Test</th><th>16-AUG-2016</th><th>Reference&#xA0;Range</th><th>Unit</th></tr></thead><tbody><tr><td>Hemoglobin A1c/Hemoglobin.total in Blood</td><td>6.2</td><td>4.5 - 6.4</td><td>%</td></tr><tr><td>Glucose [Mass/volume] in Blood</td><td>71.0</td><td>70 - 99</td><td>mg/dL</td></tr><tr><td>Urea nitrogen [Mass/volume] in Blood</td><td>12.6</td><td>7 - 20</td><td>mg/dL</td></tr><tr><td>Creatinine [Mass/volume] in Blood</td><td>0.9</td><td>0.9 - 1.3</td><td>mg/dL</td></tr><tr><td>Calcium [Mass/volume] in Blood</td><td><strong>8.5 L</strong></td><td>8.6 - 10.2</td><td>mg/dL</td></tr><tr><td>Sodium [Moles/volume] in Blood</td><td>142.9</td><td>135 - 145</td><td>mmol/L</td></tr><tr><td>Potassium [Moles/volume] in Blood</td><td>3.9</td><td>3.5 - 5.1</td><td>mmol/L</td></tr><tr><td>Chloride [Moles/volume] in Blood</td><td>101.7</td><td>98 - 108</td><td>mmol/L</td></tr><tr><td>Carbon dioxide, total [Moles/volume] in Blood</td><td>25.1</td><td>22 - 29</td><td>mmol/L</td></tr><tr><td>Cholesterol [Mass/volume] in Serum or Plasma</td><td>188.3</td><td>0 - 200</td><td>mg/dL</td></tr><tr><td>Triglyceride [Mass/volume] in Serum or Plasma</td><td>133.0</td><td>40 - 150</td><td>mg/dL</td></tr><tr><td>Cholesterol in LDL [Mass/volume] in Serum or Plasma by Direct assay</td><td><strong>134.7 H</strong></td><td>0 - 130</td><td>mg/dL</td></tr><tr><td>Cholesterol in HDL [Mass/volume] in Serum or Plasma</td><td><strong>27.1 L</strong></td><td>40 - 100</td><td>mg/dL</td></tr></tbody></table></div>"
                },
                "title": "Chemistry"
              }
            ],
            "title": "Laboratory Report"
          },
          {
            "text": {
              "status": "generated",
              "div": "<div xmlns=\"http://www.w3.org/1999/xhtml\"><h3>Annotation</h3><table class=\"hl7__eu__lab__report\"><tr><th>Conclusion and Recommendations based on this report and previous findings known to us</th></tr><tr><td>The patient shows mildly decreased calcium and HDL cholesterol, and elevated LDL cholesterol, indicating increased cardiovascular risk. HbA1c is at the upper limit of normal, suggesting prediabetes. Renal function, electrolytes, and other parameters are within normal limits. Recommend addressing dyslipidemia and monitoring glycemic control.</td></tr></table></div>"
            },
            "code": {
              "coding": [
                {
                  "system": "http://loinc.org",
                  "code": "48767-8",
                  "display": "Annotation comment"
                }
              ]
            },
            "title": "Annotation comment"
          }
        ],
        "status": "final",
        "subject": {
          "reference": "urn:uuid:fc0ffbb7-a352-47b4-a23d-0fac0abf8d72",
          "display": "Khalid Nilsson"
        },
        "date": "2016-08-16T01:04:23Z",
        "title": "Laboratory Report",
        "confidentiality": "N"
      }
    },
    {
      "fullUrl": "urn:uuid:7b2ee7af-91a2-47e0-8de9-886ddedfd301",
      "resource": {
        "resourceType": "DiagnosticReport",
        "id": "7b2ee7af-91a2-47e0-8de9-886ddedfd301",
        "meta": {
          "profile": [
            "http://hl7.eu/fhir/laboratory/StructureDefinition/DiagnosticReport-eu-lab"
          ]
        },
        "identifier": [
          {
            "assigner": {
              "display": "HL7 Europe"
            },
            "system": "urn:oid:2.16.840.1.113883.2.51.999",
            "value": "429e1781-1848-4ae3-8576-2076e40e4c57"
          }
        ],
        "extension": [
          {
            "url": "http://hl7.org/fhir/5.0/StructureDefinition/extension-DiagnosticReport.composition",
            "valueReference": {
              "reference": "urn:uuid:e095d7c5-2b58-40cc-a757-40bfc4174ce4"
            }
          }
        ],
        "category": [
          {
            "coding": [
              {
                "code": "26436-6",
                "system": "http://loinc.org",
                "display": "Laboratory studies (set)"
              }
            ]
          }
        ],
        "specimen": [
          {
            "reference": "urn:uuid:4df62464-d04b-420d-9f53-50a17a921f7c"
          },
          {
            "reference": "urn:uuid:acff9762-d480-4a06-a6d3-4e58ec648f14"
          }
        ],
        "result": [
          {
            "reference": "urn:uuid:b5104073-5457-40b3-99fe-8d2b2858b46b"
          },
          {
            "reference": "urn:uuid:05dca8ae-ff99-4c74-abb2-3bba6104c545"
          },
          {
            "reference": "urn:uuid:db72ffd6-7de6-4fb4-8b4a-f910cfd03a1c"
          },
          {
            "reference": "urn:uuid:a7b39cb6-aef1-4519-82c5-171c1de6ca4e"
          },
          {
            "reference": "urn:uuid:76c4cc0f-f4d1-4a95-b7de-b7ce150a3ecc"
          },
          {
            "reference": "urn:uuid:fe0bfff9-3024-4030-b4ca-c1c9567958dc"
          },
          {
            "reference": "urn:uuid:b869f6ae-c35b-4979-81eb-1943dc8b50d5"
          },
          {
            "reference": "urn:uuid:6c94ec7b-9d02-4925-aea9-40fd048fe522"
          },
          {
            "reference": "urn:uuid:9adfa627-5422-4776-b4c9-0ef3407846f7"
          },
          {
            "reference": "urn:uuid:f3adf951-6e26-4e79-899f-43eae437b5d0"
          },
          {
            "reference": "urn:uuid:b1e34e12-72c4-43c5-bf39-5bb91523f959"
          },
          {
            "reference": "urn:uuid:1e351efe-2e2b-4d3f-88b2-4a76a5f6dc57"
          },
          {
            "reference": "urn:uuid:5132732d-8f8e-4b7e-bb75-ff21a561070b"
          }
        ],
        "status": "registered",
        "code": {
          "coding": [
            {
              "code": "11502-2",
              "system": "http://loinc.org",
              "display": "Laboratory report"
            }
          ]
        },
        "subject": {
          "reference": "urn:uuid:fc0ffbb7-a352-47b4-a23d-0fac0abf8d72",
          "display": "Khalid Nilsson"
        }
      }
    },
    {
      "fullUrl": "urn:uuid:fc0ffbb7-a352-47b4-a23d-0fac0abf8d72",
      "resource": {
        "resourceType": "Patient",
        "id": "fc0ffbb7-a352-47b4-a23d-0fac0abf8d72",
        "meta": {
          "security": [
            {
              "system": "http://terminology.hl7.org/CodeSystem/v3-ActReason",
              "code": "HTEST"
            },
            {
              "system": "http://terminology.hl7.org/CodeSystem/v3-ActReason",
              "code": "TRAIN"
            }
          ],
          "tag": [
            {
              "system": "https://synderai.net/fhir/CodeSystem/tags",
              "code": "synthetic",
              "display": "SYNDERAI Synthetic data"
            }
          ],
          "profile": [
            "http://hl7.eu/fhir/base/StructureDefinition/patient-eu-core"
          ]
        },
        "identifier": [
          {
            "type": {
              "coding": [
                {
                  "code": "PT",
                  "system": "http://terminology.hl7.org/CodeSystem/v2-0203"
                }
              ]
            },
            "system": "http://ec.europa.eu/identifier/eci",
            "value": "8339-594203-6"
          },
          {
            "type": {
              "coding": [
                {
                  "code": "MR",
                  "system": "http://terminology.hl7.org/CodeSystem/v2-0203"
                }
              ]
            },
            "system": "http://local.setting.eu/identifier",
            "value": "db9680f4-3d2c-0551-cb1c-61573f88f405"
          }
        ],
        "name": [
          {
            "family": "Nilsson"
          },
          {
            "given": [
              "Khalid"
            ]
          },
          {
            "text": "Khalid Nilsson"
          }
        ],
        "address": [
          {
            "line": [
              "Gengränd 482"
            ],
            "use": "home",
            "type": "physical",
            "postalCode": "691 31",
            "city": "Karlskoga",
            "country": "Sweden"
          }
        ],
        "telecom": [
          {
            "system": "phone",
            "value": "+46 (0)8 888 657 95"
          }
        ],
        "extension": [
          {
            "url": "http://hl7.org/fhir/StructureDefinition/patient-nationality",
            "valueCodeableConcept": {
              "coding": [
                {
                  "code": "SE",
                  "system": "http://hl7.org/fhir/ValueSet/country"
                }
              ]
            }
          }
        ],
        "text": {
          "status": "generated",
          "div": "<div xmlns=\"http://www.w3.org/1999/xhtml\"><table class=\"hl7__ips\"><tr><td>Khalid Nilsson</td><td>male</td><td>10-Apr-1952</td></tr></table></div>"
        },
        "gender": "male",
        "birthDate": "1952-04-10"
      }
    },
    {
      "fullUrl": "urn:uuid:ebea1c8b-021a-4ee7-a0e6-3021b5e046aa",
      "resource": {
        "resourceType": "ServiceRequest",
        "id": "ebea1c8b-021a-4ee7-a0e6-3021b5e046aa",
        "meta": {
          "profile": [
            "http://hl7.eu/fhir/laboratory/StructureDefinition/ServiceRequest-eu-lab"
          ]
        },
        "identifier": [
          {
            "system": "http://example.org",
            "value": "30524076-dfa9-49d3-b713-91ce0766f06f"
          }
        ],
        "specimen": [
          {
            "reference": "urn:uuid:4df62464-d04b-420d-9f53-50a17a921f7c"
          },
          {
            "reference": "urn:uuid:acff9762-d480-4a06-a6d3-4e58ec648f14"
          }
        ],
        "reasonCode": [
          {
            "coding": [
              {
                "code": "64859006",
                "system": "http://snomed.info/sct",
                "display": "Osteoporosis"
              }
            ]
          },
          {
            "coding": [
              {
                "code": "196416002",
                "system": "http://snomed.info/sct",
                "display": "Impacted molars"
              }
            ]
          },
          {
            "coding": [
              {
                "code": "414545008",
                "system": "http://snomed.info/sct",
                "display": "Ischemic heart disease"
              }
            ]
          },
          {
            "coding": [
              {
                "code": "40055000",
                "system": "http://snomed.info/sct",
                "display": "Chronic sinusitis"
              }
            ]
          },
          {
            "coding": [
              {
                "code": "197927001",
                "system": "http://snomed.info/sct",
                "display": "Recurrent urinary tract infection"
              }
            ]
          },
          {
            "coding": [
              {
                "code": "15777000",
                "system": "http://snomed.info/sct",
                "display": "Prediabetes"
              }
            ]
          },
          {
            "coding": [
              {
                "code": "271737000",
                "system": "http://snomed.info/sct",
                "display": "Anemia"
              }
            ]
          }
        ],
        "status": "active",
        "intent": "order",
        "code": {
          "coding": [
            {
              "code": "108252007",
              "system": "http://snomed.info/sct",
              "display": "Laboratory procedure"
            }
          ]
        },
        "subject": {
          "reference": "urn:uuid:fc0ffbb7-a352-47b4-a23d-0fac0abf8d72",
          "display": "Khalid Nilsson"
        },
        "requester": {
          "reference": "urn:uuid:1141606a-8b60-4bc0-9c5a-9bf30ee5ce9e"
        }
      }
    },
    {
      "fullUrl": "urn:uuid:1141606a-8b60-4bc0-9c5a-9bf30ee5ce9e",
      "resource": {
        "resourceType": "PractitionerRole",
        "id": "1141606a-8b60-4bc0-9c5a-9bf30ee5ce9e",
        "meta": {
          "profile": [
            "http://hl7.eu/fhir/base/StructureDefinition/practitionerRole-eu"
          ]
        },
        "text": {
          "status": "generated",
          "div": "<div xmlns=\"http://www.w3.org/1999/xhtml\">Provider Role Id: 1141606a-8b60-4bc0-9c5a-9bf30ee5ce9e</div>"
        },
        "organization": {
          "reference": "urn:uuid:b6ab486a-0671-43de-8711-d164bed03afe"
        }
      }
    },
    {
      "fullUrl": "urn:uuid:b6ab486a-0671-43de-8711-d164bed03afe",
      "resource": {
        "resourceType": "Organization",
        "id": "b6ab486a-0671-43de-8711-d164bed03afe",
        "meta": {
          "profile": [
            "http://hl7.eu/fhir/base/StructureDefinition/organization-eu"
          ]
        },
        "identifier": [
          {
            "assigner": {
              "display": "HL7 Europe"
            },
            "system": "urn:oid:2.16.840.1.113883.2.51.999",
            "value": "4b3f302d-5ef1-4dbf-a2dd-08d7904fd8b3"
          }
        ],
        "address": [
          {
            "city": "Karlskoga",
            "postalCode": "691 31",
            "country": "Sweden"
          }
        ],
        "text": {
          "status": "generated",
          "div": "<div xmlns=\"http://www.w3.org/1999/xhtml\">Provider Organization: Karlskoga Lasarett</div>"
        },
        "name": "Karlskoga Lasarett"
      }
    },
    {
      "fullUrl": "urn:uuid:4df62464-d04b-420d-9f53-50a17a921f7c",
      "resource": {
        "resourceType": "Specimen",
        "id": "4df62464-d04b-420d-9f53-50a17a921f7c",
        "meta": {
          "profile": [
            "http://hl7.eu/fhir/laboratory/StructureDefinition/Specimen-eu-lab"
          ]
        },
        "collection": {
          "collectedDateTime": "2016-08-15"
        },
        "text": {
          "status": "generated",
          "div": "<div xmlns=\"http://www.w3.org/1999/xhtml\"><table class=\"hl7__eu__lab__report\"><tr><th>Specimen</th><th>Collection Date</th></tr><tr><td>Whole blood specimen (specimen)</td><td><span class=\"nb\">15-Aug-2016</span></td></tr></table></div>"
        },
        "type": {
          "coding": [
            {
              "code": "258580003",
              "system": "http://snomed.info/sct",
              "display": "Whole blood specimen (specimen)"
            }
          ]
        }
      }
    },
    {
      "fullUrl": "urn:uuid:acff9762-d480-4a06-a6d3-4e58ec648f14",
      "resource": {
        "resourceType": "Specimen",
        "id": "acff9762-d480-4a06-a6d3-4e58ec648f14",
        "meta": {
          "profile": [
            "http://hl7.eu/fhir/laboratory/StructureDefinition/Specimen-eu-lab"
          ]
        },
        "collection": {
          "collectedDateTime": "2016-08-15"
        },
        "text": {
          "status": "generated",
          "div": "<div xmlns=\"http://www.w3.org/1999/xhtml\"><table class=\"hl7__eu__lab__report\"><tr><th>Specimen</th><th>Collection Date</th></tr><tr><td>Acellular blood (serum or plasma) specimen</td><td><span class=\"nb\">15-Aug-2016</span></td></tr></table></div>"
        },
        "type": {
          "coding": [
            {
              "code": "122592007",
              "system": "http://snomed.info/sct",
              "display": "Acellular blood (serum or plasma) specimen"
            }
          ]
        }
      }
    },
    {
      "fullUrl": "urn:uuid:b5104073-5457-40b3-99fe-8d2b2858b46b",
      "resource": {
        "resourceType": "Observation",
        "id": "b5104073-5457-40b3-99fe-8d2b2858b46b",
        "meta": {
          "profile": [
            "http://hl7.eu/fhir/laboratory/StructureDefinition/Observation-resultslab-eu-lab"
          ]
        },
        "performer": [
          {
            "display": "The Central European Lab"
          }
        ],
        "category": [
          {
            "coding": [
              {
                "system": "http://terminology.hl7.org/CodeSystem/observation-category",
                "code": "laboratory"
              }
            ]
          }
        ],
        "code": {
          "coding": [
            {
              "code": "4548-4",
              "system": "http://loinc.org",
              "display": "Hemoglobin A1c/Hemoglobin.total in Blood"
            }
          ],
          "text": "Hemoglobin A1c/Hemoglobin.total in Blood"
        },
        "valueQuantity": {
          "system": "http://unitsofmeasure.org",
          "value": 6.2,
          "unit": "%",
          "code": "%"
        },
        "referenceRange": [
          {
            "low": {
              "value": 4.5,
              "code": "%",
              "system": "http://unitsofmeasure.org"
            }
          },
          {
            "high": {
              "value": 6.4,
              "code": "%",
              "system": "http://unitsofmeasure.org"
            }
          }
        ],
        "text": {
          "status": "generated",
          "div": "<div xmlns=\"http://www.w3.org/1999/xhtml\"><table class=\"hl7__eu__lab__report\"><tr><th>Test</th><th>16-Aug-2016</th><th>Reference&#xA0;Range</th><th>Unit</th></tr><tr><td>Hemoglobin A1c/Hemoglobin.total in Blood</td><td>6.2</td><td>4.5 - 6.4</td><td></td><td>%</td></tr></table></div>"
        },
        "status": "final",
        "subject": {
          "reference": "urn:uuid:fc0ffbb7-a352-47b4-a23d-0fac0abf8d72",
          "display": "Khalid Nilsson"
        },
        "effectiveDateTime": "2016-08-15T23:04:23Z",
        "specimen": {
          "reference": "urn:uuid:4df62464-d04b-420d-9f53-50a17a921f7c"
        }
      }
    },
    {
      "fullUrl": "urn:uuid:05dca8ae-ff99-4c74-abb2-3bba6104c545",
      "resource": {
        "resourceType": "Observation",
        "id": "05dca8ae-ff99-4c74-abb2-3bba6104c545",
        "meta": {
          "profile": [
            "http://hl7.eu/fhir/laboratory/StructureDefinition/Observation-resultslab-eu-lab"
          ]
        },
        "performer": [
          {
            "display": "The Central European Lab"
          }
        ],
        "category": [
          {
            "coding": [
              {
                "system": "http://terminology.hl7.org/CodeSystem/observation-category",
                "code": "laboratory"
              }
            ]
          }
        ],
        "code": {
          "coding": [
            {
              "code": "2339-0",
              "system": "http://loinc.org",
              "display": "Glucose [Mass/volume] in Blood"
            }
          ],
          "text": "Glucose [Mass/volume] in Blood"
        },
        "valueQuantity": {
          "system": "http://unitsofmeasure.org",
          "value": 71,
          "unit": "mg/dL",
          "code": "mg/dL"
        },
        "referenceRange": [
          {
            "low": {
              "value": 70,
              "code": "mg/dL",
              "system": "http://unitsofmeasure.org"
            }
          },
          {
            "high": {
              "value": 99,
              "code": "mg/dL",
              "system": "http://unitsofmeasure.org"
            }
          }
        ],
        "text": {
          "status": "generated",
          "div": "<div xmlns=\"http://www.w3.org/1999/xhtml\"><table class=\"hl7__eu__lab__report\"><tr><th>Test</th><th>16-Aug-2016</th><th>Reference&#xA0;Range</th><th>Unit</th></tr><tr><td>Glucose [Mass/volume] in Blood</td><td>71.0</td><td>70 - 99</td><td></td><td>mg/dL</td></tr></table></div>"
        },
        "status": "final",
        "subject": {
          "reference": "urn:uuid:fc0ffbb7-a352-47b4-a23d-0fac0abf8d72",
          "display": "Khalid Nilsson"
        },
        "effectiveDateTime": "2016-08-15T23:04:23Z",
        "specimen": {
          "reference": "urn:uuid:4df62464-d04b-420d-9f53-50a17a921f7c"
        }
      }
    },
    {
      "fullUrl": "urn:uuid:db72ffd6-7de6-4fb4-8b4a-f910cfd03a1c",
      "resource": {
        "resourceType": "Observation",
        "id": "db72ffd6-7de6-4fb4-8b4a-f910cfd03a1c",
        "meta": {
          "profile": [
            "http://hl7.eu/fhir/laboratory/StructureDefinition/Observation-resultslab-eu-lab"
          ]
        },
        "performer": [
          {
            "display": "The Central European Lab"
          }
        ],
        "category": [
          {
            "coding": [
              {
                "system": "http://terminology.hl7.org/CodeSystem/observation-category",
                "code": "laboratory"
              }
            ]
          }
        ],
        "code": {
          "coding": [
            {
              "code": "6299-2",
              "system": "http://loinc.org",
              "display": "Urea nitrogen [Mass/volume] in Blood"
            }
          ],
          "text": "Urea nitrogen [Mass/volume] in Blood"
        },
        "valueQuantity": {
          "system": "http://unitsofmeasure.org",
          "value": 12.6,
          "unit": "mg/dL",
          "code": "mg/dL"
        },
        "referenceRange": [
          {
            "low": {
              "value": 7,
              "code": "mg/dL",
              "system": "http://unitsofmeasure.org"
            }
          },
          {
            "high": {
              "value": 20,
              "code": "mg/dL",
              "system": "http://unitsofmeasure.org"
            }
          }
        ],
        "text": {
          "status": "generated",
          "div": "<div xmlns=\"http://www.w3.org/1999/xhtml\"><table class=\"hl7__eu__lab__report\"><tr><th>Test</th><th>16-Aug-2016</th><th>Reference&#xA0;Range</th><th>Unit</th></tr><tr><td>Urea nitrogen [Mass/volume] in Blood</td><td>12.6</td><td>7 - 20</td><td></td><td>mg/dL</td></tr></table></div>"
        },
        "status": "final",
        "subject": {
          "reference": "urn:uuid:fc0ffbb7-a352-47b4-a23d-0fac0abf8d72",
          "display": "Khalid Nilsson"
        },
        "effectiveDateTime": "2016-08-15T23:04:23Z",
        "specimen": {
          "reference": "urn:uuid:4df62464-d04b-420d-9f53-50a17a921f7c"
        }
      }
    },
    {
      "fullUrl": "urn:uuid:a7b39cb6-aef1-4519-82c5-171c1de6ca4e",
      "resource": {
        "resourceType": "Observation",
        "id": "a7b39cb6-aef1-4519-82c5-171c1de6ca4e",
        "meta": {
          "profile": [
            "http://hl7.eu/fhir/laboratory/StructureDefinition/Observation-resultslab-eu-lab"
          ]
        },
        "performer": [
          {
            "display": "The Central European Lab"
          }
        ],
        "category": [
          {
            "coding": [
              {
                "system": "http://terminology.hl7.org/CodeSystem/observation-category",
                "code": "laboratory"
              }
            ]
          }
        ],
        "code": {
          "coding": [
            {
              "code": "38483-4",
              "system": "http://loinc.org",
              "display": "Creatinine [Mass/volume] in Blood"
            }
          ],
          "text": "Creatinine [Mass/volume] in Blood"
        },
        "valueQuantity": {
          "system": "http://unitsofmeasure.org",
          "value": 0.9,
          "unit": "mg/dL",
          "code": "mg/dL"
        },
        "referenceRange": [
          {
            "low": {
              "value": 0.9,
              "code": "mg/dL",
              "system": "http://unitsofmeasure.org"
            }
          },
          {
            "high": {
              "value": 1.3,
              "code": "mg/dL",
              "system": "http://unitsofmeasure.org"
            }
          }
        ],
        "text": {
          "status": "generated",
          "div": "<div xmlns=\"http://www.w3.org/1999/xhtml\"><table class=\"hl7__eu__lab__report\"><tr><th>Test</th><th>16-Aug-2016</th><th>Reference&#xA0;Range</th><th>Unit</th></tr><tr><td>Creatinine [Mass/volume] in Blood</td><td>0.9</td><td>0.9 - 1.3</td><td></td><td>mg/dL</td></tr></table></div>"
        },
        "status": "final",
        "subject": {
          "reference": "urn:uuid:fc0ffbb7-a352-47b4-a23d-0fac0abf8d72",
          "display": "Khalid Nilsson"
        },
        "effectiveDateTime": "2016-08-15T23:04:23Z",
        "specimen": {
          "reference": "urn:uuid:4df62464-d04b-420d-9f53-50a17a921f7c"
        }
      }
    },
    {
      "fullUrl": "urn:uuid:76c4cc0f-f4d1-4a95-b7de-b7ce150a3ecc",
      "resource": {
        "resourceType": "Observation",
        "id": "76c4cc0f-f4d1-4a95-b7de-b7ce150a3ecc",
        "meta": {
          "profile": [
            "http://hl7.eu/fhir/laboratory/StructureDefinition/Observation-resultslab-eu-lab"
          ]
        },
        "performer": [
          {
            "display": "The Central European Lab"
          }
        ],
        "category": [
          {
            "coding": [
              {
                "system": "http://terminology.hl7.org/CodeSystem/observation-category",
                "code": "laboratory"
              }
            ]
          }
        ],
        "code": {
          "coding": [
            {
              "code": "49765-1",
              "system": "http://loinc.org",
              "display": "Calcium [Mass/volume] in Blood"
            }
          ],
          "text": "Calcium [Mass/volume] in Blood"
        },
        "valueQuantity": {
          "system": "http://unitsofmeasure.org",
          "value": 8.5,
          "unit": "mg/dL",
          "code": "mg/dL"
        },
        "referenceRange": [
          {
            "low": {
              "value": 8.6,
              "code": "mg/dL",
              "system": "http://unitsofmeasure.org"
            }
          },
          {
            "high": {
              "value": 10.2,
              "code": "mg/dL",
              "system": "http://unitsofmeasure.org"
            }
          }
        ],
        "interpretation": [
          {
            "coding": [
              {
                "code": "L",
                "system": "http://terminology.hl7.org/CodeSystem/v3-ObservationInterpretation",
                "display": "Low"
              }
            ]
          }
        ],
        "text": {
          "status": "generated",
          "div": "<div xmlns=\"http://www.w3.org/1999/xhtml\"><table class=\"hl7__eu__lab__report\"><tr><th>Test</th><th>16-Aug-2016</th><th>Reference&#xA0;Range</th><th>Unit</th></tr><tr><td>Calcium [Mass/volume] in Blood</td><td>8.5</td><td>8.6 - 10.2</td><td>L</td><td>mg/dL</td></tr></table></div>"
        },
        "status": "final",
        "subject": {
          "reference": "urn:uuid:fc0ffbb7-a352-47b4-a23d-0fac0abf8d72",
          "display": "Khalid Nilsson"
        },
        "effectiveDateTime": "2016-08-15T23:04:23Z",
        "specimen": {
          "reference": "urn:uuid:4df62464-d04b-420d-9f53-50a17a921f7c"
        }
      }
    },
    {
      "fullUrl": "urn:uuid:fe0bfff9-3024-4030-b4ca-c1c9567958dc",
      "resource": {
        "resourceType": "Observation",
        "id": "fe0bfff9-3024-4030-b4ca-c1c9567958dc",
        "meta": {
          "profile": [
            "http://hl7.eu/fhir/laboratory/StructureDefinition/Observation-resultslab-eu-lab"
          ]
        },
        "performer": [
          {
            "display": "The Central European Lab"
          }
        ],
        "category": [
          {
            "coding": [
              {
                "system": "http://terminology.hl7.org/CodeSystem/observation-category",
                "code": "laboratory"
              }
            ]
          }
        ],
        "code": {
          "coding": [
            {
              "code": "2947-0",
              "system": "http://loinc.org",
              "display": "Sodium [Moles/volume] in Blood"
            }
          ],
          "text": "Sodium [Moles/volume] in Blood"
        },
        "valueQuantity": {
          "system": "http://unitsofmeasure.org",
          "value": 142.9,
          "unit": "mmol/L",
          "code": "mmol/L"
        },
        "referenceRange": [
          {
            "low": {
              "value": 135,
              "code": "mmol/L",
              "system": "http://unitsofmeasure.org"
            }
          },
          {
            "high": {
              "value": 145,
              "code": "mmol/L",
              "system": "http://unitsofmeasure.org"
            }
          }
        ],
        "text": {
          "status": "generated",
          "div": "<div xmlns=\"http://www.w3.org/1999/xhtml\"><table class=\"hl7__eu__lab__report\"><tr><th>Test</th><th>16-Aug-2016</th><th>Reference&#xA0;Range</th><th>Unit</th></tr><tr><td>Sodium [Moles/volume] in Blood</td><td>142.9</td><td>135 - 145</td><td></td><td>mmol/L</td></tr></table></div>"
        },
        "status": "final",
        "subject": {
          "reference": "urn:uuid:fc0ffbb7-a352-47b4-a23d-0fac0abf8d72",
          "display": "Khalid Nilsson"
        },
        "effectiveDateTime": "2016-08-15T23:04:23Z",
        "specimen": {
          "reference": "urn:uuid:4df62464-d04b-420d-9f53-50a17a921f7c"
        }
      }
    },
    {
      "fullUrl": "urn:uuid:b869f6ae-c35b-4979-81eb-1943dc8b50d5",
      "resource": {
        "resourceType": "Observation",
        "id": "b869f6ae-c35b-4979-81eb-1943dc8b50d5",
        "meta": {
          "profile": [
            "http://hl7.eu/fhir/laboratory/StructureDefinition/Observation-resultslab-eu-lab"
          ]
        },
        "performer": [
          {
            "display": "The Central European Lab"
          }
        ],
        "category": [
          {
            "coding": [
              {
                "system": "http://terminology.hl7.org/CodeSystem/observation-category",
                "code": "laboratory"
              }
            ]
          }
        ],
        "code": {
          "coding": [
            {
              "code": "6298-4",
              "system": "http://loinc.org",
              "display": "Potassium [Moles/volume] in Blood"
            }
          ],
          "text": "Potassium [Moles/volume] in Blood"
        },
        "valueQuantity": {
          "system": "http://unitsofmeasure.org",
          "value": 3.9,
          "unit": "mmol/L",
          "code": "mmol/L"
        },
        "referenceRange": [
          {
            "low": {
              "value": 3.5,
              "code": "mmol/L",
              "system": "http://unitsofmeasure.org"
            }
          },
          {
            "high": {
              "value": 5.1,
              "code": "mmol/L",
              "system": "http://unitsofmeasure.org"
            }
          }
        ],
        "text": {
          "status": "generated",
          "div": "<div xmlns=\"http://www.w3.org/1999/xhtml\"><table class=\"hl7__eu__lab__report\"><tr><th>Test</th><th>16-Aug-2016</th><th>Reference&#xA0;Range</th><th>Unit</th></tr><tr><td>Potassium [Moles/volume] in Blood</td><td>3.9</td><td>3.5 - 5.1</td><td></td><td>mmol/L</td></tr></table></div>"
        },
        "status": "final",
        "subject": {
          "reference": "urn:uuid:fc0ffbb7-a352-47b4-a23d-0fac0abf8d72",
          "display": "Khalid Nilsson"
        },
        "effectiveDateTime": "2016-08-15T23:04:23Z",
        "specimen": {
          "reference": "urn:uuid:4df62464-d04b-420d-9f53-50a17a921f7c"
        }
      }
    },
    {
      "fullUrl": "urn:uuid:6c94ec7b-9d02-4925-aea9-40fd048fe522",
      "resource": {
        "resourceType": "Observation",
        "id": "6c94ec7b-9d02-4925-aea9-40fd048fe522",
        "meta": {
          "profile": [
            "http://hl7.eu/fhir/laboratory/StructureDefinition/Observation-resultslab-eu-lab"
          ]
        },
        "performer": [
          {
            "display": "The Central European Lab"
          }
        ],
        "category": [
          {
            "coding": [
              {
                "system": "http://terminology.hl7.org/CodeSystem/observation-category",
                "code": "laboratory"
              }
            ]
          }
        ],
        "code": {
          "coding": [
            {
              "code": "2069-3",
              "system": "http://loinc.org",
              "display": "Chloride [Moles/volume] in Blood"
            }
          ],
          "text": "Chloride [Moles/volume] in Blood"
        },
        "valueQuantity": {
          "system": "http://unitsofmeasure.org",
          "value": 101.7,
          "unit": "mmol/L",
          "code": "mmol/L"
        },
        "referenceRange": [
          {
            "low": {
              "value": 98,
              "code": "mmol/L",
              "system": "http://unitsofmeasure.org"
            }
          },
          {
            "high": {
              "value": 108,
              "code": "mmol/L",
              "system": "http://unitsofmeasure.org"
            }
          }
        ],
        "text": {
          "status": "generated",
          "div": "<div xmlns=\"http://www.w3.org/1999/xhtml\"><table class=\"hl7__eu__lab__report\"><tr><th>Test</th><th>16-Aug-2016</th><th>Reference&#xA0;Range</th><th>Unit</th></tr><tr><td>Chloride [Moles/volume] in Blood</td><td>101.7</td><td>98 - 108</td><td></td><td>mmol/L</td></tr></table></div>"
        },
        "status": "final",
        "subject": {
          "reference": "urn:uuid:fc0ffbb7-a352-47b4-a23d-0fac0abf8d72",
          "display": "Khalid Nilsson"
        },
        "effectiveDateTime": "2016-08-15T23:04:23Z",
        "specimen": {
          "reference": "urn:uuid:4df62464-d04b-420d-9f53-50a17a921f7c"
        }
      }
    },
    {
      "fullUrl": "urn:uuid:9adfa627-5422-4776-b4c9-0ef3407846f7",
      "resource": {
        "resourceType": "Observation",
        "id": "9adfa627-5422-4776-b4c9-0ef3407846f7",
        "meta": {
          "profile": [
            "http://hl7.eu/fhir/laboratory/StructureDefinition/Observation-resultslab-eu-lab"
          ]
        },
        "performer": [
          {
            "display": "The Central European Lab"
          }
        ],
        "category": [
          {
            "coding": [
              {
                "system": "http://terminology.hl7.org/CodeSystem/observation-category",
                "code": "laboratory"
              }
            ]
          }
        ],
        "code": {
          "coding": [
            {
              "code": "20565-8",
              "system": "http://loinc.org",
              "display": "Carbon dioxide, total [Moles/volume] in Blood"
            }
          ],
          "text": "Carbon dioxide, total [Moles/volume] in Blood"
        },
        "valueQuantity": {
          "system": "http://unitsofmeasure.org",
          "value": 25.1,
          "unit": "mmol/L",
          "code": "mmol/L"
        },
        "referenceRange": [
          {
            "low": {
              "value": 22,
              "code": "mmol/L",
              "system": "http://unitsofmeasure.org"
            }
          },
          {
            "high": {
              "value": 29,
              "code": "mmol/L",
              "system": "http://unitsofmeasure.org"
            }
          }
        ],
        "text": {
          "status": "generated",
          "div": "<div xmlns=\"http://www.w3.org/1999/xhtml\"><table class=\"hl7__eu__lab__report\"><tr><th>Test</th><th>16-Aug-2016</th><th>Reference&#xA0;Range</th><th>Unit</th></tr><tr><td>Carbon dioxide, total [Moles/volume] in Blood</td><td>25.1</td><td>22 - 29</td><td></td><td>mmol/L</td></tr></table></div>"
        },
        "status": "final",
        "subject": {
          "reference": "urn:uuid:fc0ffbb7-a352-47b4-a23d-0fac0abf8d72",
          "display": "Khalid Nilsson"
        },
        "effectiveDateTime": "2016-08-15T23:04:23Z",
        "specimen": {
          "reference": "urn:uuid:4df62464-d04b-420d-9f53-50a17a921f7c"
        }
      }
    },
    {
      "fullUrl": "urn:uuid:f3adf951-6e26-4e79-899f-43eae437b5d0",
      "resource": {
        "resourceType": "Observation",
        "id": "f3adf951-6e26-4e79-899f-43eae437b5d0",
        "meta": {
          "profile": [
            "http://hl7.eu/fhir/laboratory/StructureDefinition/Observation-resultslab-eu-lab"
          ]
        },
        "performer": [
          {
            "display": "The Central European Lab"
          }
        ],
        "category": [
          {
            "coding": [
              {
                "system": "http://terminology.hl7.org/CodeSystem/observation-category",
                "code": "laboratory"
              }
            ]
          }
        ],
        "code": {
          "coding": [
            {
              "code": "2093-3",
              "system": "http://loinc.org",
              "display": "Cholesterol [Mass/volume] in Serum or Plasma"
            }
          ],
          "text": "Cholesterol [Mass/volume] in Serum or Plasma"
        },
        "valueQuantity": {
          "system": "http://unitsofmeasure.org",
          "value": 188.3,
          "unit": "mg/dL",
          "code": "mg/dL"
        },
        "referenceRange": [
          {
            "low": {
              "value": 0,
              "code": "mg/dL",
              "system": "http://unitsofmeasure.org"
            }
          },
          {
            "high": {
              "value": 200,
              "code": "mg/dL",
              "system": "http://unitsofmeasure.org"
            }
          }
        ],
        "text": {
          "status": "generated",
          "div": "<div xmlns=\"http://www.w3.org/1999/xhtml\"><table class=\"hl7__eu__lab__report\"><tr><th>Test</th><th>16-Aug-2016</th><th>Reference&#xA0;Range</th><th>Unit</th></tr><tr><td>Cholesterol [Mass/volume] in Serum or Plasma</td><td>188.3</td><td>0 - 200</td><td></td><td>mg/dL</td></tr></table></div>"
        },
        "status": "final",
        "subject": {
          "reference": "urn:uuid:fc0ffbb7-a352-47b4-a23d-0fac0abf8d72",
          "display": "Khalid Nilsson"
        },
        "effectiveDateTime": "2016-08-15T23:04:23Z",
        "specimen": {
          "reference": "urn:uuid:acff9762-d480-4a06-a6d3-4e58ec648f14"
        }
      }
    },
    {
      "fullUrl": "urn:uuid:b1e34e12-72c4-43c5-bf39-5bb91523f959",
      "resource": {
        "resourceType": "Observation",
        "id": "b1e34e12-72c4-43c5-bf39-5bb91523f959",
        "meta": {
          "profile": [
            "http://hl7.eu/fhir/laboratory/StructureDefinition/Observation-resultslab-eu-lab"
          ]
        },
        "performer": [
          {
            "display": "The Central European Lab"
          }
        ],
        "category": [
          {
            "coding": [
              {
                "system": "http://terminology.hl7.org/CodeSystem/observation-category",
                "code": "laboratory"
              }
            ]
          }
        ],
        "code": {
          "coding": [
            {
              "code": "2571-8",
              "system": "http://loinc.org",
              "display": "Triglyceride [Mass/volume] in Serum or Plasma"
            }
          ],
          "text": "Triglyceride [Mass/volume] in Serum or Plasma"
        },
        "valueQuantity": {
          "system": "http://unitsofmeasure.org",
          "value": 133,
          "unit": "mg/dL",
          "code": "mg/dL"
        },
        "referenceRange": [
          {
            "low": {
              "value": 40,
              "code": "mg/dL",
              "system": "http://unitsofmeasure.org"
            }
          },
          {
            "high": {
              "value": 150,
              "code": "mg/dL",
              "system": "http://unitsofmeasure.org"
            }
          }
        ],
        "text": {
          "status": "generated",
          "div": "<div xmlns=\"http://www.w3.org/1999/xhtml\"><table class=\"hl7__eu__lab__report\"><tr><th>Test</th><th>16-Aug-2016</th><th>Reference&#xA0;Range</th><th>Unit</th></tr><tr><td>Triglyceride [Mass/volume] in Serum or Plasma</td><td>133.0</td><td>40 - 150</td><td></td><td>mg/dL</td></tr></table></div>"
        },
        "status": "final",
        "subject": {
          "reference": "urn:uuid:fc0ffbb7-a352-47b4-a23d-0fac0abf8d72",
          "display": "Khalid Nilsson"
        },
        "effectiveDateTime": "2016-08-15T23:04:23Z",
        "specimen": {
          "reference": "urn:uuid:acff9762-d480-4a06-a6d3-4e58ec648f14"
        }
      }
    },
    {
      "fullUrl": "urn:uuid:1e351efe-2e2b-4d3f-88b2-4a76a5f6dc57",
      "resource": {
        "resourceType": "Observation",
        "id": "1e351efe-2e2b-4d3f-88b2-4a76a5f6dc57",
        "meta": {
          "profile": [
            "http://hl7.eu/fhir/laboratory/StructureDefinition/Observation-resultslab-eu-lab"
          ]
        },
        "performer": [
          {
            "display": "The Central European Lab"
          }
        ],
        "category": [
          {
            "coding": [
              {
                "system": "http://terminology.hl7.org/CodeSystem/observation-category",
                "code": "laboratory"
              }
            ]
          }
        ],
        "code": {
          "coding": [
            {
              "code": "18262-6",
              "system": "http://loinc.org",
              "display": "Cholesterol in LDL [Mass/volume] in Serum or Plasma by Direct assay"
            }
          ],
          "text": "Cholesterol in LDL [Mass/volume] in Serum or Plasma by Direct assay"
        },
        "valueQuantity": {
          "system": "http://unitsofmeasure.org",
          "value": 134.7,
          "unit": "mg/dL",
          "code": "mg/dL"
        },
        "referenceRange": [
          {
            "low": {
              "value": 0,
              "code": "mg/dL",
              "system": "http://unitsofmeasure.org"
            }
          },
          {
            "high": {
              "value": 130,
              "code": "mg/dL",
              "system": "http://unitsofmeasure.org"
            }
          }
        ],
        "interpretation": [
          {
            "coding": [
              {
                "code": "H",
                "system": "http://terminology.hl7.org/CodeSystem/v3-ObservationInterpretation",
                "display": "High"
              }
            ]
          }
        ],
        "text": {
          "status": "generated",
          "div": "<div xmlns=\"http://www.w3.org/1999/xhtml\"><table class=\"hl7__eu__lab__report\"><tr><th>Test</th><th>16-Aug-2016</th><th>Reference&#xA0;Range</th><th>Unit</th></tr><tr><td>Cholesterol in LDL [Mass/volume] in Serum or Plasma by Direct assay</td><td>134.7</td><td>0 - 130</td><td>H</td><td>mg/dL</td></tr></table></div>"
        },
        "status": "final",
        "subject": {
          "reference": "urn:uuid:fc0ffbb7-a352-47b4-a23d-0fac0abf8d72",
          "display": "Khalid Nilsson"
        },
        "effectiveDateTime": "2016-08-15T23:04:23Z",
        "specimen": {
          "reference": "urn:uuid:acff9762-d480-4a06-a6d3-4e58ec648f14"
        }
      }
    },
    {
      "fullUrl": "urn:uuid:5132732d-8f8e-4b7e-bb75-ff21a561070b",
      "resource": {
        "resourceType": "Observation",
        "id": "5132732d-8f8e-4b7e-bb75-ff21a561070b",
        "meta": {
          "profile": [
            "http://hl7.eu/fhir/laboratory/StructureDefinition/Observation-resultslab-eu-lab"
          ]
        },
        "performer": [
          {
            "display": "The Central European Lab"
          }
        ],
        "category": [
          {
            "coding": [
              {
                "system": "http://terminology.hl7.org/CodeSystem/observation-category",
                "code": "laboratory"
              }
            ]
          }
        ],
        "code": {
          "coding": [
            {
              "code": "2085-9",
              "system": "http://loinc.org",
              "display": "Cholesterol in HDL [Mass/volume] in Serum or Plasma"
            }
          ],
          "text": "Cholesterol in HDL [Mass/volume] in Serum or Plasma"
        },
        "valueQuantity": {
          "system": "http://unitsofmeasure.org",
          "value": 27.1,
          "unit": "mg/dL",
          "code": "mg/dL"
        },
        "referenceRange": [
          {
            "low": {
              "value": 40,
              "code": "mg/dL",
              "system": "http://unitsofmeasure.org"
            }
          },
          {
            "high": {
              "value": 100,
              "code": "mg/dL",
              "system": "http://unitsofmeasure.org"
            }
          }
        ],
        "interpretation": [
          {
            "coding": [
              {
                "code": "L",
                "system": "http://terminology.hl7.org/CodeSystem/v3-ObservationInterpretation",
                "display": "Low"
              }
            ]
          }
        ],
        "text": {
          "status": "generated",
          "div": "<div xmlns=\"http://www.w3.org/1999/xhtml\"><table class=\"hl7__eu__lab__report\"><tr><th>Test</th><th>16-Aug-2016</th><th>Reference&#xA0;Range</th><th>Unit</th></tr><tr><td>Cholesterol in HDL [Mass/volume] in Serum or Plasma</td><td>27.1</td><td>40 - 100</td><td>L</td><td>mg/dL</td></tr></table></div>"
        },
        "status": "final",
        "subject": {
          "reference": "urn:uuid:fc0ffbb7-a352-47b4-a23d-0fac0abf8d72",
          "display": "Khalid Nilsson"
        },
        "effectiveDateTime": "2016-08-15T23:04:23Z",
        "specimen": {
          "reference": "urn:uuid:acff9762-d480-4a06-a6d3-4e58ec648f14"
        }
      }
    },
    {
      "fullUrl": "urn:uuid:5b85e8fa-1b60-4e17-859f-f52a3d59621b",
      "resource": {
        "resourceType": "Device",
        "id": "5b85e8fa-1b60-4e17-859f-f52a3d59621b",
        "deviceName": [
          {
            "name": "SYNDERAI Synthetic Generator",
            "type": "manufacturer-name"
          }
        ],
        "version": [
          {
            "value": "5.0"
          }
        ],
        "text": {
          "status": "generated",
          "div": "<div xmlns=\"http://www.w3.org/1999/xhtml\">SYNDERAI Synthetic Generator v5.0</div>"
        },
        "status": "active\"",
        "distinctIdentifier": "synderai-generator-50",
        "manufacturer": "SYNDERAI Project"
      }
    },
    {
      "fullUrl": "urn:uuid:48c839a5-d474-479a-9552-234b66537aa4",
      "resource": {
        "resourceType": "Provenance",
        "id": "48c839a5-d474-479a-9552-234b66537aa4",
        "target": [
          {
            "reference": "Patient/fc0ffbb7-a352-47b4-a23d-0fac0abf8d72"
          },
          {
            "reference": "Bundle/0acfdc58-0e25-46b7-a51d-a3d9d0e4e262"
          },
          {
            "reference": "Composition/9bc9a105-2080-4b8f-894f-a06730fd6e02"
          },
          {
            "reference": "PractitionerRole/faba57a5-6dc7-4ccd-a2a6-466290a8c476"
          },
          {
            "reference": "Practitioner/cee9f8a9-3a7a-4328-a382-6358b2732292"
          },
          {
            "reference": "PractitionerRole/1141606a-8b60-4bc0-9c5a-9bf30ee5ce9e"
          },
          {
            "reference": "Organization/b6ab486a-0671-43de-8711-d164bed03afe"
          }
        ],
        "activity": {
          "text": "Synthetic Example Data Generation"
        },
        "policy": [
          "https://synderai.net/synderai-synthetic-data-policy"
        ],
        "agent": [
          {
            "type": {
              "text": "author"
            },
            "who": {
              "reference": "Device/5b85e8fa-1b60-4e17-859f-f52a3d59621b"
            }
          }
        ],
        "reason": [
          {
            "text": "Interoperability Testing and Training (non-clinical use)"
          }
        ],
        "text": {
          "status": "generated",
          "div": "<div xmlns=\"http://www.w3.org/1999/xhtml\">Provenance for SYNDERAI Synthetic Example Data Resource</div>"
        },
        "recorded": "2016-08-16T01:04:23Z"
      }
    },
    {
      "fullUrl": "urn:uuid:faba57a5-6dc7-4ccd-a2a6-466290a8c476",
      "resource": {
        "resourceType": "PractitionerRole",
        "id": "faba57a5-6dc7-4ccd-a2a6-466290a8c476",
        "meta": {
          "profile": [
            "http://hl7.eu/fhir/base/StructureDefinition/practitionerRole-eu"
          ]
        },
        "text": {
          "status": "generated",
          "div": "<div xmlns=\"http://www.w3.org/1999/xhtml\">Laboratory Role Id: faba57a5-6dc7-4ccd-a2a6-466290a8c476</div>"
        },
        "practitioner": {
          "reference": "urn:uuid:cee9f8a9-3a7a-4328-a382-6358b2732292"
        }
      }
    },
    {
      "fullUrl": "urn:uuid:cee9f8a9-3a7a-4328-a382-6358b2732292",
      "resource": {
        "resourceType": "Practitioner",
        "id": "cee9f8a9-3a7a-4328-a382-6358b2732292",
        "meta": {
          "profile": [
            "http://hl7.eu/fhir/base/StructureDefinition/practitioner-eu"
          ]
        },
        "identifier": [
          {
            "assigner": {
              "display": "HL7 Europe"
            },
            "system": "urn:oid:2.16.840.1.113883.2.51.999",
            "value": "0ef5f05c-e4bb-4a8d-862d-20b0da6c2f82"
          }
        ],
        "name": [
          {
            "prefix": [
              "dr"
            ],
            "given": [
              "Ex"
            ],
            "family": "Ample"
          }
        ],
        "address": [
          {
            "line": [
              "Laboratoire Central Européenne",
              "Boulevard du Jardin Botanique 32"
            ],
            "postalCode": "1000",
            "city": "Brussels",
            "country": "Belgium"
          }
        ],
        "text": {
          "status": "generated",
          "div": "<div xmlns=\"http://www.w3.org/1999/xhtml\">Laboratory: Laboratoire Central Européenne, 1000 Brussels, Belgium</div>"
        }
      }
    }
  ],
  "type": "document",
  "timestamp": "2016-08-16T01:04:23Z"
}
