{
  "resourceType": "Bundle",
  "id": "e6cdf754-a28f-4549-a984-9fad17623b42",
  "meta": {
    "profile": [
      "http://hl7.eu/fhir/laboratory/StructureDefinition/Bundle-eu-lab"
    ]
  },
  "identifier": {
    "assigner": {
      "display": "HL7 Europe"
    },
    "system": "urn:oid:2.16.840.1.113883.2.51.999",
    "value": "b4117bfc-e1d7-4cf8-8a78-c01aa882c363"
  },
  "entry": [
    {
      "fullUrl": "urn:uuid:99fbd369-a522-49a7-aca3-ddaee13f1d11",
      "resource": {
        "resourceType": "Composition",
        "id": "99fbd369-a522-49a7-aca3-ddaee13f1d11",
        "meta": {
          "profile": [
            "http://hl7.eu/fhir/laboratory/StructureDefinition/Composition-eu-lab"
          ]
        },
        "identifier": {
          "assigner": {
            "display": "HL7 Europe"
          },
          "system": "urn:oid:2.16.840.1.113883.2.51.999",
          "value": "03bbc967-6083-488f-a597-2e7d600a6286"
        },
        "author": [
          {
            "reference": "urn:uuid:84b9ffef-b8de-48c2-b270-53c4c69deade"
          }
        ],
        "category": [
          {
            "coding": [
              {
                "code": "26436-6",
                "system": "http://loinc.org",
                "display": "Laboratory studies (set)"
              }
            ]
          }
        ],
        "type": {
          "coding": [
            {
              "code": "11502-2",
              "system": "http://loinc.org",
              "display": "Laboratory report"
            }
          ],
          "text": "Laboratory Report"
        },
        "section": [
          {
            "code": {
              "coding": [
                {
                  "code": "26436-6",
                  "system": "http://loinc.org",
                  "display": "Laboratory studies (set)"
                }
              ],
              "text": "Laboratory studies"
            },
            "section": [
              {
                "code": {
                  "coding": [
                    {
                      "code": "$18719-5",
                      "system": "http://loinc.org",
                      "display": "Chemistry studies (set)"
                    }
                  ],
                  "text": "Chemistry"
                },
                "entry": [
                  {
                    "reference": "urn:uuid:b1a67292-538f-4d2f-ad90-3f0fca1ea969"
                  },
                  {
                    "reference": "urn:uuid:0d3dc32a-53b4-43fb-9010-53ac0df5e2af"
                  },
                  {
                    "reference": "urn:uuid:7495446e-01ac-4e92-a691-f8ff79af0b51"
                  },
                  {
                    "reference": "urn:uuid:dac2b29d-9aba-49ea-90e7-ae09fcfc0004"
                  },
                  {
                    "reference": "urn:uuid:423905be-4ed9-4195-bca4-bd605cd2712a"
                  },
                  {
                    "reference": "urn:uuid:064e57a8-9791-49c6-8dd6-f7cf42df901d"
                  },
                  {
                    "reference": "urn:uuid:6848198c-07fc-443c-bd93-e292a7a086dd"
                  },
                  {
                    "reference": "urn:uuid:ab21492b-7cfd-4252-a409-5185e9dd8037"
                  },
                  {
                    "reference": "urn:uuid:0b12ecd9-11d6-4bff-8ee0-3dfe283cd40d"
                  },
                  {
                    "reference": "urn:uuid:f133617c-3032-4d3a-ab66-525c1adf0a38"
                  },
                  {
                    "reference": "urn:uuid:302e754d-cf06-4c0b-b609-30ef9a2ac6e2"
                  },
                  {
                    "reference": "urn:uuid:5d439ce9-fa7c-4563-ba05-e39163286c77"
                  },
                  {
                    "reference": "urn:uuid:4be6e983-8251-47c6-bce8-b1f59d71e906"
                  },
                  {
                    "reference": "urn:uuid:ab14debb-e215-452e-a1e3-9ea39dd42b38"
                  },
                  {
                    "reference": "urn:uuid:c5acc984-567b-4acb-8be0-8d9fb9f7205f"
                  },
                  {
                    "reference": "urn:uuid:4f40b871-3fcf-4f5e-b39a-0dc4fa856118"
                  }
                ],
                "text": {
                  "status": "generated",
                  "div": "<div xmlns=\"http://www.w3.org/1999/xhtml\"><h3>Chemistry</h3><table class=\"hl7__eu__lab__report\"><thead><tr><th>Test</th><th>29-JUN-2018</th><th>Reference&#xA0;Range</th><th>Unit</th></tr></thead><tbody><tr><td>Glucose [Mass/volume] in Blood</td><td>95.2</td><td>70 - 140</td><td>mg/dL</td></tr><tr><td>Urea nitrogen [Mass/volume] in Blood</td><td>16.0</td><td>7 - 30</td><td>mg/dL</td></tr><tr><td>Creatinine [Mass/volume] in Blood</td><td><strong>3.0 H</strong></td><td>0.5 - 1.3</td><td>mg/dL</td></tr><tr><td>Calcium [Mass/volume] in Blood</td><td>9.2</td><td>8.6 - 10.2</td><td>mg/dL</td></tr><tr><td>Sodium [Moles/volume] in Blood</td><td>143.8</td><td>135 - 145</td><td>mmol/L</td></tr><tr><td>Potassium [Moles/volume] in Blood</td><td>4.1</td><td>3.5 - 5.1</td><td>mmol/L</td></tr><tr><td>Chloride [Moles/volume] in Blood</td><td>102.9</td><td>98 - 114</td><td>mmol/L</td></tr><tr><td>Carbon dioxide, total [Moles/volume] in Blood</td><td>26.8</td><td>22 - 32</td><td>mmol/L</td></tr><tr><td>Protein [Mass/volume] in Serum or Plasma</td><td>6.1</td><td>6 - 8.3</td><td>g/dL</td></tr><tr><td>Albumin [Mass/volume] in Serum or Plasma</td><td>4.1</td><td>3.5 - 5.5</td><td>g/dL</td></tr><tr><td>Globulin [Mass/volume] in Serum by calculation</td><td>3.4</td><td>2 - 3.5</td><td>g/L</td></tr><tr><td>Bilirubin.total [Mass/volume] in Serum or Plasma</td><td><strong>0.2 L</strong></td><td>0.3 - 1.2</td><td>mg/dL</td></tr><tr><td>Alkaline phosphatase [Enzymatic activity/volume] in Serum or Plasma</td><td>134.7</td><td>44 - 142</td><td>U/L</td></tr><tr><td>Alanine aminotransferase [Enzymatic activity/volume] in Serum or Plasma</td><td>20.8</td><td>7 - 40</td><td>U/L</td></tr><tr><td>Aspartate aminotransferase [Enzymatic activity/volume] in Serum or Plasma</td><td>23.5</td><td>10 - 40</td><td>U/L</td></tr><tr><td>Ketones [Presence] in Urine by Test strip</td><td>Urine ketone test = +++</td><td></td><td></td></tr></tbody></table></div>"
                },
                "title": "Chemistry"
              },
              {
                "code": {
                  "coding": [
                    {
                      "code": "$18729-4",
                      "system": "http://loinc.org",
                      "display": "Urinalysis studies (set)"
                    }
                  ],
                  "text": "Urinalysis"
                },
                "entry": [
                  {
                    "reference": "urn:uuid:2e1a2a04-5dbd-4e88-b7ab-6a199f221508"
                  },
                  {
                    "reference": "urn:uuid:27d8ad2b-f1b5-4172-a1db-e800da4e86f7"
                  },
                  {
                    "reference": "urn:uuid:5f8e50d4-2e5e-4780-b32a-59c823eb6514"
                  },
                  {
                    "reference": "urn:uuid:3463b8f4-4a6d-432a-a0aa-65e4ec9dd200"
                  },
                  {
                    "reference": "urn:uuid:3e8e2985-5ae4-41b5-ba8e-09e06670d30a"
                  },
                  {
                    "reference": "urn:uuid:0420f8b0-328a-4f71-b575-4b8773c8f4e0"
                  },
                  {
                    "reference": "urn:uuid:08ff68b1-0623-46b7-b0a1-d150d47582dd"
                  },
                  {
                    "reference": "urn:uuid:5d50eeb8-5b36-4697-b0bd-e10c4e6b66d3"
                  },
                  {
                    "reference": "urn:uuid:40a4a83a-19df-498e-a89e-d7fc577afa73"
                  },
                  {
                    "reference": "urn:uuid:0e52e308-354c-4db7-ab3f-dbfb15e1c5ef"
                  },
                  {
                    "reference": "urn:uuid:abf82b0f-b28c-4762-9624-3770e38f11b2"
                  },
                  {
                    "reference": "urn:uuid:f438fa63-cd83-4ae2-93b5-c97c52e08406"
                  }
                ],
                "text": {
                  "status": "generated",
                  "div": "<div xmlns=\"http://www.w3.org/1999/xhtml\"><h3>Urinalysis</h3><table class=\"hl7__eu__lab__report\"><thead><tr><th>Test</th><th>29-JUN-2018</th><th>Reference&#xA0;Range</th><th>Unit</th></tr></thead><tbody><tr><td>Glucose [Mass/volume] in Urine by Test strip</td><td><strong>0.9 H</strong></td><td>0.8 - 0</td><td>mg/dL</td></tr><tr><td>Glucose [Presence] in Urine by Test strip</td><td>++</td><td></td><td></td></tr><tr><td>Bilirubin.total [Mass/volume] in Urine by Test strip</td><td>0.7</td><td>0 - 1.5</td><td>mg/dL</td></tr><tr><td>Bilirubin.total [Presence] in Urine by Test strip</td><td>Finding of bilirubin in urine</td><td></td><td></td></tr><tr><td>Ketones [Mass/volume] in Urine by Test strip</td><td><strong>14.2 H</strong></td><td>0 - 8</td><td>mg/dL</td></tr><tr><td>Specific gravity of Urine by Test strip</td><td><strong>1.0 L</strong></td><td>1.01 - 1.03</td><td>{nominal}</td></tr><tr><td>pH of Urine by Test strip</td><td>6.9</td><td>4.6 - 7.5</td><td>pH</td></tr><tr><td>Protein [Mass/volume] in Urine by Test strip</td><td><strong>353.1 H</strong></td><td>0 - 14</td><td>mg/dL</td></tr><tr><td>Protein [Presence] in Urine by Test strip</td><td>Urine protein test = +++</td><td></td><td></td></tr><tr><td>Nitrite [Presence] in Urine by Test strip</td><td>Urine nitrite negative</td><td></td><td></td></tr><tr><td>Hemoglobin [Presence] in Urine by Test strip</td><td>Urine blood test = negative</td><td></td><td></td></tr><tr><td>Leukocyte esterase [Presence] in Urine by Test strip</td><td>Urine leukocyte test negative</td><td></td><td></td></tr></tbody></table></div>"
                },
                "title": "Urinalysis"
              },
              {
                "code": {
                  "coding": [
                    {
                      "code": "$LP7846-1",
                      "system": "http://loinc.org",
                      "display": "Specimen information"
                    }
                  ],
                  "text": "Specimen information"
                },
                "entry": [
                  {
                    "reference": "urn:uuid:a8b19c91-31cc-4b99-a9bd-920fdc8ef158"
                  },
                  {
                    "reference": "urn:uuid:ed3391d1-3f76-43a1-bdd1-337a7f5e0054"
                  },
                  {
                    "reference": "urn:uuid:130dc302-42b5-4554-bf5c-851b0ba84eea"
                  },
                  {
                    "reference": "urn:uuid:98e59c89-83b3-4b9c-bc4f-46dcd642366b"
                  }
                ],
                "text": {
                  "status": "generated",
                  "div": "<div xmlns=\"http://www.w3.org/1999/xhtml\"><h3>Specimen information</h3><table class=\"hl7__eu__lab__report\"><thead><tr><th>Test</th><th>29-JUN-2018</th><th>Specimen</th><th></th></tr></thead><tbody><tr><td>Appearance of Urine</td><td>Cloudy urine</td><td>Urine</td><td></td></tr><tr><td>Odor of Urine</td><td>Urine smell ammoniacal</td><td>Urine</td><td></td></tr><tr><td>Clarity of Urine</td><td>Translucent</td><td>Urine</td><td></td></tr><tr><td>Color of Urine</td><td>Brown color</td><td>Urine</td><td></td></tr></tbody></table></div>"
                },
                "title": "Specimen information"
              }
            ],
            "title": "Laboratory Report"
          },
          {
            "text": {
              "status": "generated",
              "div": "<div xmlns=\"http://www.w3.org/1999/xhtml\"><h3>Annotation</h3><table class=\"hl7__eu__lab__report\"><tr><th>Conclusion and Recommendations based on this report and previous findings known to us</th></tr><tr><td>The patient shows markedly elevated serum creatinine, indicating significant renal impairment. Urinalysis reveals proteinuria, glucosuria, and ketonuria, with low specific gravity and abnormal urine appearance, suggesting possible nephrotic syndrome or diabetic nephropathy with impaired concentrating ability. No evidence of urinary tract infection is present. Liver enzymes and electrolytes are within normal limits. Immediate clinical evaluation and nephrology referral are recommended.</td></tr></table></div>"
            },
            "code": {
              "coding": [
                {
                  "system": "http://loinc.org",
                  "code": "48767-8",
                  "display": "Annotation comment"
                }
              ]
            },
            "title": "Annotation comment"
          }
        ],
        "status": "final",
        "subject": {
          "reference": "urn:uuid:3d4759e3-34cb-4eb8-ace7-66dd262888fa",
          "display": "Maria Nohlmans"
        },
        "date": "2018-06-29T11:30:39Z",
        "title": "Laboratory Report",
        "confidentiality": "N"
      }
    },
    {
      "fullUrl": "urn:uuid:0545ddf1-5512-475b-8b72-7180d83d397e",
      "resource": {
        "resourceType": "DiagnosticReport",
        "id": "0545ddf1-5512-475b-8b72-7180d83d397e",
        "meta": {
          "profile": [
            "http://hl7.eu/fhir/laboratory/StructureDefinition/DiagnosticReport-eu-lab"
          ]
        },
        "identifier": [
          {
            "assigner": {
              "display": "HL7 Europe"
            },
            "system": "urn:oid:2.16.840.1.113883.2.51.999",
            "value": "93cba8fd-4bbe-4b10-9449-5fe6e71a2b69"
          }
        ],
        "extension": [
          {
            "url": "http://hl7.org/fhir/5.0/StructureDefinition/extension-DiagnosticReport.composition",
            "valueReference": {
              "reference": "urn:uuid:03bbc967-6083-488f-a597-2e7d600a6286"
            }
          }
        ],
        "category": [
          {
            "coding": [
              {
                "code": "26436-6",
                "system": "http://loinc.org",
                "display": "Laboratory studies (set)"
              }
            ]
          }
        ],
        "specimen": [
          {
            "reference": "urn:uuid:7c678317-924b-49aa-a545-f2ceea8494cc"
          },
          {
            "reference": "urn:uuid:ca98acb0-be2d-402f-8a96-699c73a1b331"
          },
          {
            "reference": "urn:uuid:393c985c-26e6-45b9-b3e0-72f77dd58e2e"
          },
          {
            "reference": "urn:uuid:76747651-3bdc-4020-97ad-facee16b59c5"
          }
        ],
        "result": [
          {
            "reference": "urn:uuid:b1a67292-538f-4d2f-ad90-3f0fca1ea969"
          },
          {
            "reference": "urn:uuid:0d3dc32a-53b4-43fb-9010-53ac0df5e2af"
          },
          {
            "reference": "urn:uuid:7495446e-01ac-4e92-a691-f8ff79af0b51"
          },
          {
            "reference": "urn:uuid:dac2b29d-9aba-49ea-90e7-ae09fcfc0004"
          },
          {
            "reference": "urn:uuid:423905be-4ed9-4195-bca4-bd605cd2712a"
          },
          {
            "reference": "urn:uuid:064e57a8-9791-49c6-8dd6-f7cf42df901d"
          },
          {
            "reference": "urn:uuid:6848198c-07fc-443c-bd93-e292a7a086dd"
          },
          {
            "reference": "urn:uuid:ab21492b-7cfd-4252-a409-5185e9dd8037"
          },
          {
            "reference": "urn:uuid:0b12ecd9-11d6-4bff-8ee0-3dfe283cd40d"
          },
          {
            "reference": "urn:uuid:f133617c-3032-4d3a-ab66-525c1adf0a38"
          },
          {
            "reference": "urn:uuid:302e754d-cf06-4c0b-b609-30ef9a2ac6e2"
          },
          {
            "reference": "urn:uuid:5d439ce9-fa7c-4563-ba05-e39163286c77"
          },
          {
            "reference": "urn:uuid:4be6e983-8251-47c6-bce8-b1f59d71e906"
          },
          {
            "reference": "urn:uuid:ab14debb-e215-452e-a1e3-9ea39dd42b38"
          },
          {
            "reference": "urn:uuid:c5acc984-567b-4acb-8be0-8d9fb9f7205f"
          },
          {
            "reference": "urn:uuid:a8b19c91-31cc-4b99-a9bd-920fdc8ef158"
          },
          {
            "reference": "urn:uuid:ed3391d1-3f76-43a1-bdd1-337a7f5e0054"
          },
          {
            "reference": "urn:uuid:130dc302-42b5-4554-bf5c-851b0ba84eea"
          },
          {
            "reference": "urn:uuid:98e59c89-83b3-4b9c-bc4f-46dcd642366b"
          },
          {
            "reference": "urn:uuid:2e1a2a04-5dbd-4e88-b7ab-6a199f221508"
          },
          {
            "reference": "urn:uuid:27d8ad2b-f1b5-4172-a1db-e800da4e86f7"
          },
          {
            "reference": "urn:uuid:5f8e50d4-2e5e-4780-b32a-59c823eb6514"
          },
          {
            "reference": "urn:uuid:3463b8f4-4a6d-432a-a0aa-65e4ec9dd200"
          },
          {
            "reference": "urn:uuid:3e8e2985-5ae4-41b5-ba8e-09e06670d30a"
          },
          {
            "reference": "urn:uuid:4f40b871-3fcf-4f5e-b39a-0dc4fa856118"
          },
          {
            "reference": "urn:uuid:0420f8b0-328a-4f71-b575-4b8773c8f4e0"
          },
          {
            "reference": "urn:uuid:08ff68b1-0623-46b7-b0a1-d150d47582dd"
          },
          {
            "reference": "urn:uuid:5d50eeb8-5b36-4697-b0bd-e10c4e6b66d3"
          },
          {
            "reference": "urn:uuid:40a4a83a-19df-498e-a89e-d7fc577afa73"
          },
          {
            "reference": "urn:uuid:0e52e308-354c-4db7-ab3f-dbfb15e1c5ef"
          },
          {
            "reference": "urn:uuid:abf82b0f-b28c-4762-9624-3770e38f11b2"
          },
          {
            "reference": "urn:uuid:f438fa63-cd83-4ae2-93b5-c97c52e08406"
          }
        ],
        "status": "registered",
        "code": {
          "coding": [
            {
              "code": "11502-2",
              "system": "http://loinc.org",
              "display": "Laboratory report"
            }
          ]
        },
        "subject": {
          "reference": "urn:uuid:3d4759e3-34cb-4eb8-ace7-66dd262888fa",
          "display": "Maria Nohlmans"
        }
      }
    },
    {
      "fullUrl": "urn:uuid:3d4759e3-34cb-4eb8-ace7-66dd262888fa",
      "resource": {
        "resourceType": "Patient",
        "id": "3d4759e3-34cb-4eb8-ace7-66dd262888fa",
        "meta": {
          "security": [
            {
              "system": "http://terminology.hl7.org/CodeSystem/v3-ActReason",
              "code": "HTEST"
            },
            {
              "system": "http://terminology.hl7.org/CodeSystem/v3-ActReason",
              "code": "TRAIN"
            }
          ],
          "tag": [
            {
              "system": "https://synderai.net/fhir/CodeSystem/tags",
              "code": "synthetic",
              "display": "SYNDERAI Synthetic data"
            }
          ],
          "profile": [
            "http://hl7.eu/fhir/base/StructureDefinition/patient-eu-core"
          ]
        },
        "identifier": [
          {
            "type": {
              "coding": [
                {
                  "code": "PT",
                  "system": "http://terminology.hl7.org/CodeSystem/v2-0203"
                }
              ]
            },
            "system": "http://ec.europa.eu/identifier/eci",
            "value": "6886-506417-1"
          },
          {
            "type": {
              "coding": [
                {
                  "code": "MR",
                  "system": "http://terminology.hl7.org/CodeSystem/v2-0203"
                }
              ]
            },
            "system": "http://local.setting.eu/identifier",
            "value": "2cb21ed6-b617-b1f3-2290-589a710de5ee"
          }
        ],
        "name": [
          {
            "family": "Nohlmans"
          },
          {
            "given": [
              "Maria"
            ]
          },
          {
            "text": "Maria Nohlmans"
          }
        ],
        "address": [
          {
            "line": [
              "Alfons-Wulff-Weg 1"
            ],
            "use": "home",
            "type": "physical",
            "postalCode": "25813",
            "city": "Husum",
            "country": "Germany"
          }
        ],
        "telecom": [
          {
            "system": "phone",
            "value": "+49(0)1911 105501"
          }
        ],
        "extension": [
          {
            "url": "http://hl7.org/fhir/StructureDefinition/patient-nationality",
            "valueCodeableConcept": {
              "coding": [
                {
                  "code": "DE",
                  "system": "http://hl7.org/fhir/ValueSet/country"
                }
              ]
            }
          }
        ],
        "text": {
          "status": "generated",
          "div": "<div xmlns=\"http://www.w3.org/1999/xhtml\"><table class=\"hl7__ips\"><tr><td>Maria Nohlmans</td><td>female</td><td>11-Jun-1947</td></tr></table></div>"
        },
        "gender": "female",
        "birthDate": "1947-06-11"
      }
    },
    {
      "fullUrl": "urn:uuid:1fb18fba-f142-436e-b56d-c10d0322cd18",
      "resource": {
        "resourceType": "ServiceRequest",
        "id": "1fb18fba-f142-436e-b56d-c10d0322cd18",
        "meta": {
          "profile": [
            "http://hl7.eu/fhir/laboratory/StructureDefinition/ServiceRequest-eu-lab"
          ]
        },
        "identifier": [
          {
            "system": "http://example.org",
            "value": "789fe90b-9845-4326-845f-f997a984274a"
          }
        ],
        "specimen": [
          {
            "reference": "urn:uuid:7c678317-924b-49aa-a545-f2ceea8494cc"
          },
          {
            "reference": "urn:uuid:ca98acb0-be2d-402f-8a96-699c73a1b331"
          },
          {
            "reference": "urn:uuid:393c985c-26e6-45b9-b3e0-72f77dd58e2e"
          },
          {
            "reference": "urn:uuid:76747651-3bdc-4020-97ad-facee16b59c5"
          }
        ],
        "reasonCode": [
          {
            "coding": [
              {
                "code": "401314000",
                "system": "http://snomed.info/sct",
                "display": "Acute non-ST segment elevation myocardial infarction"
              }
            ]
          },
          {
            "coding": [
              {
                "code": "157141000119108",
                "system": "http://snomed.info/sct",
                "display": "Proteinuria due to type 2 diabetes mellitus"
              }
            ]
          },
          {
            "coding": [
              {
                "code": "237602007",
                "system": "http://snomed.info/sct",
                "display": "Metabolic syndrome X"
              }
            ]
          },
          {
            "coding": [
              {
                "code": "90781000119102",
                "system": "http://snomed.info/sct",
                "display": "Microalbuminuria due to type 2 diabetes mellitus"
              }
            ]
          },
          {
            "coding": [
              {
                "code": "127013003",
                "system": "http://snomed.info/sct",
                "display": "Disorder of kidney due to diabetes mellitus"
              }
            ]
          },
          {
            "coding": [
              {
                "code": "59621000",
                "system": "http://snomed.info/sct",
                "display": "Essential hypertension"
              }
            ]
          },
          {
            "coding": [
              {
                "code": "271737000",
                "system": "http://snomed.info/sct",
                "display": "Anemia"
              }
            ]
          },
          {
            "coding": [
              {
                "code": "15777000",
                "system": "http://snomed.info/sct",
                "display": "Prediabetes"
              }
            ]
          }
        ],
        "status": "active",
        "intent": "order",
        "code": {
          "coding": [
            {
              "code": "108252007",
              "system": "http://snomed.info/sct",
              "display": "Laboratory procedure"
            }
          ]
        },
        "subject": {
          "reference": "urn:uuid:3d4759e3-34cb-4eb8-ace7-66dd262888fa",
          "display": "Maria Nohlmans"
        },
        "requester": {
          "reference": "urn:uuid:c2094f90-8878-41b7-b0aa-c5eb764ce406"
        }
      }
    },
    {
      "fullUrl": "urn:uuid:c2094f90-8878-41b7-b0aa-c5eb764ce406",
      "resource": {
        "resourceType": "PractitionerRole",
        "id": "c2094f90-8878-41b7-b0aa-c5eb764ce406",
        "meta": {
          "profile": [
            "http://hl7.eu/fhir/base/StructureDefinition/practitionerRole-eu"
          ]
        },
        "text": {
          "status": "generated",
          "div": "<div xmlns=\"http://www.w3.org/1999/xhtml\">Provider Role Id: c2094f90-8878-41b7-b0aa-c5eb764ce406</div>"
        },
        "organization": {
          "reference": "urn:uuid:47f12c50-f7c9-4bb1-a285-caaf8d651ebc"
        }
      }
    },
    {
      "fullUrl": "urn:uuid:47f12c50-f7c9-4bb1-a285-caaf8d651ebc",
      "resource": {
        "resourceType": "Organization",
        "id": "47f12c50-f7c9-4bb1-a285-caaf8d651ebc",
        "meta": {
          "profile": [
            "http://hl7.eu/fhir/base/StructureDefinition/organization-eu"
          ]
        },
        "identifier": [
          {
            "assigner": {
              "display": "HL7 Europe"
            },
            "system": "urn:oid:2.16.840.1.113883.2.51.999",
            "value": "5c1ccb8a-498b-41ea-848a-dec8e87e5560"
          }
        ],
        "address": [
          {
            "line": [
              "Brinckmannstraße 35"
            ],
            "city": "Husum",
            "postalCode": "25813",
            "country": "Germany"
          }
        ],
        "text": {
          "status": "generated",
          "div": "<div xmlns=\"http://www.w3.org/1999/xhtml\">Provider Organization: Dr. Wolfram Hussels Kieferorthopäde</div>"
        },
        "name": "Dr. Wolfram Hussels Kieferorthopäde"
      }
    },
    {
      "fullUrl": "urn:uuid:7c678317-924b-49aa-a545-f2ceea8494cc",
      "resource": {
        "resourceType": "Specimen",
        "id": "7c678317-924b-49aa-a545-f2ceea8494cc",
        "meta": {
          "profile": [
            "http://hl7.eu/fhir/laboratory/StructureDefinition/Specimen-eu-lab"
          ]
        },
        "collection": {
          "collectedDateTime": "2018-06-29"
        },
        "text": {
          "status": "generated",
          "div": "<div xmlns=\"http://www.w3.org/1999/xhtml\"><table class=\"hl7__eu__lab__report\"><tr><th>Specimen</th><th>Collection Date</th></tr><tr><td>Whole blood specimen (specimen)</td><td><span class=\"nb\">29-Jun-2018</span></td></tr></table></div>"
        },
        "type": {
          "coding": [
            {
              "code": "258580003",
              "system": "http://snomed.info/sct",
              "display": "Whole blood specimen (specimen)"
            }
          ]
        }
      }
    },
    {
      "fullUrl": "urn:uuid:ca98acb0-be2d-402f-8a96-699c73a1b331",
      "resource": {
        "resourceType": "Specimen",
        "id": "ca98acb0-be2d-402f-8a96-699c73a1b331",
        "meta": {
          "profile": [
            "http://hl7.eu/fhir/laboratory/StructureDefinition/Specimen-eu-lab"
          ]
        },
        "collection": {
          "collectedDateTime": "2018-06-29"
        },
        "text": {
          "status": "generated",
          "div": "<div xmlns=\"http://www.w3.org/1999/xhtml\"><table class=\"hl7__eu__lab__report\"><tr><th>Specimen</th><th>Collection Date</th></tr><tr><td>Acellular blood (serum or plasma) specimen</td><td><span class=\"nb\">29-Jun-2018</span></td></tr></table></div>"
        },
        "type": {
          "coding": [
            {
              "code": "122592007",
              "system": "http://snomed.info/sct",
              "display": "Acellular blood (serum or plasma) specimen"
            }
          ]
        }
      }
    },
    {
      "fullUrl": "urn:uuid:393c985c-26e6-45b9-b3e0-72f77dd58e2e",
      "resource": {
        "resourceType": "Specimen",
        "id": "393c985c-26e6-45b9-b3e0-72f77dd58e2e",
        "meta": {
          "profile": [
            "http://hl7.eu/fhir/laboratory/StructureDefinition/Specimen-eu-lab"
          ]
        },
        "collection": {
          "collectedDateTime": "2018-06-29"
        },
        "text": {
          "status": "generated",
          "div": "<div xmlns=\"http://www.w3.org/1999/xhtml\"><table class=\"hl7__eu__lab__report\"><tr><th>Specimen</th><th>Collection Date</th></tr><tr><td>Serum specimen</td><td><span class=\"nb\">29-Jun-2018</span></td></tr></table></div>"
        },
        "type": {
          "coding": [
            {
              "code": "119364003",
              "system": "http://snomed.info/sct",
              "display": "Serum specimen"
            }
          ]
        }
      }
    },
    {
      "fullUrl": "urn:uuid:76747651-3bdc-4020-97ad-facee16b59c5",
      "resource": {
        "resourceType": "Specimen",
        "id": "76747651-3bdc-4020-97ad-facee16b59c5",
        "meta": {
          "profile": [
            "http://hl7.eu/fhir/laboratory/StructureDefinition/Specimen-eu-lab"
          ]
        },
        "collection": {
          "collectedDateTime": "2018-06-29"
        },
        "text": {
          "status": "generated",
          "div": "<div xmlns=\"http://www.w3.org/1999/xhtml\"><table class=\"hl7__eu__lab__report\"><tr><th>Specimen</th><th>Collection Date</th></tr><tr><td>Urine specimen</td><td><span class=\"nb\">29-Jun-2018</span></td></tr></table></div>"
        },
        "type": {
          "coding": [
            {
              "code": "122575003",
              "system": "http://snomed.info/sct",
              "display": "Urine specimen"
            }
          ]
        }
      }
    },
    {
      "fullUrl": "urn:uuid:b1a67292-538f-4d2f-ad90-3f0fca1ea969",
      "resource": {
        "resourceType": "Observation",
        "id": "b1a67292-538f-4d2f-ad90-3f0fca1ea969",
        "meta": {
          "profile": [
            "http://hl7.eu/fhir/laboratory/StructureDefinition/Observation-resultslab-eu-lab"
          ]
        },
        "performer": [
          {
            "display": "The Central European Lab"
          }
        ],
        "category": [
          {
            "coding": [
              {
                "system": "http://terminology.hl7.org/CodeSystem/observation-category",
                "code": "laboratory"
              }
            ]
          }
        ],
        "code": {
          "coding": [
            {
              "code": "2339-0",
              "system": "http://loinc.org",
              "display": "Glucose [Mass/volume] in Blood"
            }
          ],
          "text": "Glucose [Mass/volume] in Blood"
        },
        "valueQuantity": {
          "system": "http://unitsofmeasure.org",
          "value": 95.2,
          "unit": "mg/dL",
          "code": "mg/dL"
        },
        "referenceRange": [
          {
            "low": {
              "value": 70,
              "code": "mg/dL",
              "system": "http://unitsofmeasure.org"
            }
          },
          {
            "high": {
              "value": 140,
              "code": "mg/dL",
              "system": "http://unitsofmeasure.org"
            }
          }
        ],
        "text": {
          "status": "generated",
          "div": "<div xmlns=\"http://www.w3.org/1999/xhtml\"><table class=\"hl7__eu__lab__report\"><tr><th>Test</th><th>29-Jun-2018</th><th>Reference&#xA0;Range</th><th>Unit</th></tr><tr><td>Glucose [Mass/volume] in Blood</td><td>95.2</td><td>70 - 140</td><td></td><td>mg/dL</td></tr></table></div>"
        },
        "status": "final",
        "subject": {
          "reference": "urn:uuid:3d4759e3-34cb-4eb8-ace7-66dd262888fa",
          "display": "Maria Nohlmans"
        },
        "effectiveDateTime": "2018-06-29T09:30:39Z",
        "specimen": {
          "reference": "urn:uuid:7c678317-924b-49aa-a545-f2ceea8494cc"
        }
      }
    },
    {
      "fullUrl": "urn:uuid:0d3dc32a-53b4-43fb-9010-53ac0df5e2af",
      "resource": {
        "resourceType": "Observation",
        "id": "0d3dc32a-53b4-43fb-9010-53ac0df5e2af",
        "meta": {
          "profile": [
            "http://hl7.eu/fhir/laboratory/StructureDefinition/Observation-resultslab-eu-lab"
          ]
        },
        "performer": [
          {
            "display": "The Central European Lab"
          }
        ],
        "category": [
          {
            "coding": [
              {
                "system": "http://terminology.hl7.org/CodeSystem/observation-category",
                "code": "laboratory"
              }
            ]
          }
        ],
        "code": {
          "coding": [
            {
              "code": "6299-2",
              "system": "http://loinc.org",
              "display": "Urea nitrogen [Mass/volume] in Blood"
            }
          ],
          "text": "Urea nitrogen [Mass/volume] in Blood"
        },
        "valueQuantity": {
          "system": "http://unitsofmeasure.org",
          "value": 16,
          "unit": "mg/dL",
          "code": "mg/dL"
        },
        "referenceRange": [
          {
            "low": {
              "value": 7,
              "code": "mg/dL",
              "system": "http://unitsofmeasure.org"
            }
          },
          {
            "high": {
              "value": 30,
              "code": "mg/dL",
              "system": "http://unitsofmeasure.org"
            }
          }
        ],
        "text": {
          "status": "generated",
          "div": "<div xmlns=\"http://www.w3.org/1999/xhtml\"><table class=\"hl7__eu__lab__report\"><tr><th>Test</th><th>29-Jun-2018</th><th>Reference&#xA0;Range</th><th>Unit</th></tr><tr><td>Urea nitrogen [Mass/volume] in Blood</td><td>16.0</td><td>7 - 30</td><td></td><td>mg/dL</td></tr></table></div>"
        },
        "status": "final",
        "subject": {
          "reference": "urn:uuid:3d4759e3-34cb-4eb8-ace7-66dd262888fa",
          "display": "Maria Nohlmans"
        },
        "effectiveDateTime": "2018-06-29T09:30:39Z",
        "specimen": {
          "reference": "urn:uuid:7c678317-924b-49aa-a545-f2ceea8494cc"
        }
      }
    },
    {
      "fullUrl": "urn:uuid:7495446e-01ac-4e92-a691-f8ff79af0b51",
      "resource": {
        "resourceType": "Observation",
        "id": "7495446e-01ac-4e92-a691-f8ff79af0b51",
        "meta": {
          "profile": [
            "http://hl7.eu/fhir/laboratory/StructureDefinition/Observation-resultslab-eu-lab"
          ]
        },
        "performer": [
          {
            "display": "The Central European Lab"
          }
        ],
        "category": [
          {
            "coding": [
              {
                "system": "http://terminology.hl7.org/CodeSystem/observation-category",
                "code": "laboratory"
              }
            ]
          }
        ],
        "code": {
          "coding": [
            {
              "code": "38483-4",
              "system": "http://loinc.org",
              "display": "Creatinine [Mass/volume] in Blood"
            }
          ],
          "text": "Creatinine [Mass/volume] in Blood"
        },
        "valueQuantity": {
          "system": "http://unitsofmeasure.org",
          "value": 3,
          "unit": "mg/dL",
          "code": "mg/dL"
        },
        "referenceRange": [
          {
            "low": {
              "value": 0.5,
              "code": "mg/dL",
              "system": "http://unitsofmeasure.org"
            }
          },
          {
            "high": {
              "value": 1.3,
              "code": "mg/dL",
              "system": "http://unitsofmeasure.org"
            }
          }
        ],
        "interpretation": [
          {
            "coding": [
              {
                "code": "H",
                "system": "http://terminology.hl7.org/CodeSystem/v3-ObservationInterpretation",
                "display": "High"
              }
            ]
          }
        ],
        "text": {
          "status": "generated",
          "div": "<div xmlns=\"http://www.w3.org/1999/xhtml\"><table class=\"hl7__eu__lab__report\"><tr><th>Test</th><th>29-Jun-2018</th><th>Reference&#xA0;Range</th><th>Unit</th></tr><tr><td>Creatinine [Mass/volume] in Blood</td><td>3.0</td><td>0.5 - 1.3</td><td>H</td><td>mg/dL</td></tr></table></div>"
        },
        "status": "final",
        "subject": {
          "reference": "urn:uuid:3d4759e3-34cb-4eb8-ace7-66dd262888fa",
          "display": "Maria Nohlmans"
        },
        "effectiveDateTime": "2018-06-29T09:30:39Z",
        "specimen": {
          "reference": "urn:uuid:7c678317-924b-49aa-a545-f2ceea8494cc"
        }
      }
    },
    {
      "fullUrl": "urn:uuid:dac2b29d-9aba-49ea-90e7-ae09fcfc0004",
      "resource": {
        "resourceType": "Observation",
        "id": "dac2b29d-9aba-49ea-90e7-ae09fcfc0004",
        "meta": {
          "profile": [
            "http://hl7.eu/fhir/laboratory/StructureDefinition/Observation-resultslab-eu-lab"
          ]
        },
        "performer": [
          {
            "display": "The Central European Lab"
          }
        ],
        "category": [
          {
            "coding": [
              {
                "system": "http://terminology.hl7.org/CodeSystem/observation-category",
                "code": "laboratory"
              }
            ]
          }
        ],
        "code": {
          "coding": [
            {
              "code": "49765-1",
              "system": "http://loinc.org",
              "display": "Calcium [Mass/volume] in Blood"
            }
          ],
          "text": "Calcium [Mass/volume] in Blood"
        },
        "valueQuantity": {
          "system": "http://unitsofmeasure.org",
          "value": 9.2,
          "unit": "mg/dL",
          "code": "mg/dL"
        },
        "referenceRange": [
          {
            "low": {
              "value": 8.6,
              "code": "mg/dL",
              "system": "http://unitsofmeasure.org"
            }
          },
          {
            "high": {
              "value": 10.2,
              "code": "mg/dL",
              "system": "http://unitsofmeasure.org"
            }
          }
        ],
        "text": {
          "status": "generated",
          "div": "<div xmlns=\"http://www.w3.org/1999/xhtml\"><table class=\"hl7__eu__lab__report\"><tr><th>Test</th><th>29-Jun-2018</th><th>Reference&#xA0;Range</th><th>Unit</th></tr><tr><td>Calcium [Mass/volume] in Blood</td><td>9.2</td><td>8.6 - 10.2</td><td></td><td>mg/dL</td></tr></table></div>"
        },
        "status": "final",
        "subject": {
          "reference": "urn:uuid:3d4759e3-34cb-4eb8-ace7-66dd262888fa",
          "display": "Maria Nohlmans"
        },
        "effectiveDateTime": "2018-06-29T09:30:39Z",
        "specimen": {
          "reference": "urn:uuid:7c678317-924b-49aa-a545-f2ceea8494cc"
        }
      }
    },
    {
      "fullUrl": "urn:uuid:423905be-4ed9-4195-bca4-bd605cd2712a",
      "resource": {
        "resourceType": "Observation",
        "id": "423905be-4ed9-4195-bca4-bd605cd2712a",
        "meta": {
          "profile": [
            "http://hl7.eu/fhir/laboratory/StructureDefinition/Observation-resultslab-eu-lab"
          ]
        },
        "performer": [
          {
            "display": "The Central European Lab"
          }
        ],
        "category": [
          {
            "coding": [
              {
                "system": "http://terminology.hl7.org/CodeSystem/observation-category",
                "code": "laboratory"
              }
            ]
          }
        ],
        "code": {
          "coding": [
            {
              "code": "2947-0",
              "system": "http://loinc.org",
              "display": "Sodium [Moles/volume] in Blood"
            }
          ],
          "text": "Sodium [Moles/volume] in Blood"
        },
        "valueQuantity": {
          "system": "http://unitsofmeasure.org",
          "value": 143.8,
          "unit": "mmol/L",
          "code": "mmol/L"
        },
        "referenceRange": [
          {
            "low": {
              "value": 135,
              "code": "mmol/L",
              "system": "http://unitsofmeasure.org"
            }
          },
          {
            "high": {
              "value": 145,
              "code": "mmol/L",
              "system": "http://unitsofmeasure.org"
            }
          }
        ],
        "text": {
          "status": "generated",
          "div": "<div xmlns=\"http://www.w3.org/1999/xhtml\"><table class=\"hl7__eu__lab__report\"><tr><th>Test</th><th>29-Jun-2018</th><th>Reference&#xA0;Range</th><th>Unit</th></tr><tr><td>Sodium [Moles/volume] in Blood</td><td>143.8</td><td>135 - 145</td><td></td><td>mmol/L</td></tr></table></div>"
        },
        "status": "final",
        "subject": {
          "reference": "urn:uuid:3d4759e3-34cb-4eb8-ace7-66dd262888fa",
          "display": "Maria Nohlmans"
        },
        "effectiveDateTime": "2018-06-29T09:30:39Z",
        "specimen": {
          "reference": "urn:uuid:7c678317-924b-49aa-a545-f2ceea8494cc"
        }
      }
    },
    {
      "fullUrl": "urn:uuid:064e57a8-9791-49c6-8dd6-f7cf42df901d",
      "resource": {
        "resourceType": "Observation",
        "id": "064e57a8-9791-49c6-8dd6-f7cf42df901d",
        "meta": {
          "profile": [
            "http://hl7.eu/fhir/laboratory/StructureDefinition/Observation-resultslab-eu-lab"
          ]
        },
        "performer": [
          {
            "display": "The Central European Lab"
          }
        ],
        "category": [
          {
            "coding": [
              {
                "system": "http://terminology.hl7.org/CodeSystem/observation-category",
                "code": "laboratory"
              }
            ]
          }
        ],
        "code": {
          "coding": [
            {
              "code": "6298-4",
              "system": "http://loinc.org",
              "display": "Potassium [Moles/volume] in Blood"
            }
          ],
          "text": "Potassium [Moles/volume] in Blood"
        },
        "valueQuantity": {
          "system": "http://unitsofmeasure.org",
          "value": 4.1,
          "unit": "mmol/L",
          "code": "mmol/L"
        },
        "referenceRange": [
          {
            "low": {
              "value": 3.5,
              "code": "mmol/L",
              "system": "http://unitsofmeasure.org"
            }
          },
          {
            "high": {
              "value": 5.1,
              "code": "mmol/L",
              "system": "http://unitsofmeasure.org"
            }
          }
        ],
        "text": {
          "status": "generated",
          "div": "<div xmlns=\"http://www.w3.org/1999/xhtml\"><table class=\"hl7__eu__lab__report\"><tr><th>Test</th><th>29-Jun-2018</th><th>Reference&#xA0;Range</th><th>Unit</th></tr><tr><td>Potassium [Moles/volume] in Blood</td><td>4.1</td><td>3.5 - 5.1</td><td></td><td>mmol/L</td></tr></table></div>"
        },
        "status": "final",
        "subject": {
          "reference": "urn:uuid:3d4759e3-34cb-4eb8-ace7-66dd262888fa",
          "display": "Maria Nohlmans"
        },
        "effectiveDateTime": "2018-06-29T09:30:39Z",
        "specimen": {
          "reference": "urn:uuid:7c678317-924b-49aa-a545-f2ceea8494cc"
        }
      }
    },
    {
      "fullUrl": "urn:uuid:6848198c-07fc-443c-bd93-e292a7a086dd",
      "resource": {
        "resourceType": "Observation",
        "id": "6848198c-07fc-443c-bd93-e292a7a086dd",
        "meta": {
          "profile": [
            "http://hl7.eu/fhir/laboratory/StructureDefinition/Observation-resultslab-eu-lab"
          ]
        },
        "performer": [
          {
            "display": "The Central European Lab"
          }
        ],
        "category": [
          {
            "coding": [
              {
                "system": "http://terminology.hl7.org/CodeSystem/observation-category",
                "code": "laboratory"
              }
            ]
          }
        ],
        "code": {
          "coding": [
            {
              "code": "2069-3",
              "system": "http://loinc.org",
              "display": "Chloride [Moles/volume] in Blood"
            }
          ],
          "text": "Chloride [Moles/volume] in Blood"
        },
        "valueQuantity": {
          "system": "http://unitsofmeasure.org",
          "value": 102.9,
          "unit": "mmol/L",
          "code": "mmol/L"
        },
        "referenceRange": [
          {
            "low": {
              "value": 98,
              "code": "mmol/L",
              "system": "http://unitsofmeasure.org"
            }
          },
          {
            "high": {
              "value": 114,
              "code": "mmol/L",
              "system": "http://unitsofmeasure.org"
            }
          }
        ],
        "text": {
          "status": "generated",
          "div": "<div xmlns=\"http://www.w3.org/1999/xhtml\"><table class=\"hl7__eu__lab__report\"><tr><th>Test</th><th>29-Jun-2018</th><th>Reference&#xA0;Range</th><th>Unit</th></tr><tr><td>Chloride [Moles/volume] in Blood</td><td>102.9</td><td>98 - 114</td><td></td><td>mmol/L</td></tr></table></div>"
        },
        "status": "final",
        "subject": {
          "reference": "urn:uuid:3d4759e3-34cb-4eb8-ace7-66dd262888fa",
          "display": "Maria Nohlmans"
        },
        "effectiveDateTime": "2018-06-29T09:30:39Z",
        "specimen": {
          "reference": "urn:uuid:7c678317-924b-49aa-a545-f2ceea8494cc"
        }
      }
    },
    {
      "fullUrl": "urn:uuid:ab21492b-7cfd-4252-a409-5185e9dd8037",
      "resource": {
        "resourceType": "Observation",
        "id": "ab21492b-7cfd-4252-a409-5185e9dd8037",
        "meta": {
          "profile": [
            "http://hl7.eu/fhir/laboratory/StructureDefinition/Observation-resultslab-eu-lab"
          ]
        },
        "performer": [
          {
            "display": "The Central European Lab"
          }
        ],
        "category": [
          {
            "coding": [
              {
                "system": "http://terminology.hl7.org/CodeSystem/observation-category",
                "code": "laboratory"
              }
            ]
          }
        ],
        "code": {
          "coding": [
            {
              "code": "20565-8",
              "system": "http://loinc.org",
              "display": "Carbon dioxide, total [Moles/volume] in Blood"
            }
          ],
          "text": "Carbon dioxide, total [Moles/volume] in Blood"
        },
        "valueQuantity": {
          "system": "http://unitsofmeasure.org",
          "value": 26.8,
          "unit": "mmol/L",
          "code": "mmol/L"
        },
        "referenceRange": [
          {
            "low": {
              "value": 22,
              "code": "mmol/L",
              "system": "http://unitsofmeasure.org"
            }
          },
          {
            "high": {
              "value": 32,
              "code": "mmol/L",
              "system": "http://unitsofmeasure.org"
            }
          }
        ],
        "text": {
          "status": "generated",
          "div": "<div xmlns=\"http://www.w3.org/1999/xhtml\"><table class=\"hl7__eu__lab__report\"><tr><th>Test</th><th>29-Jun-2018</th><th>Reference&#xA0;Range</th><th>Unit</th></tr><tr><td>Carbon dioxide, total [Moles/volume] in Blood</td><td>26.8</td><td>22 - 32</td><td></td><td>mmol/L</td></tr></table></div>"
        },
        "status": "final",
        "subject": {
          "reference": "urn:uuid:3d4759e3-34cb-4eb8-ace7-66dd262888fa",
          "display": "Maria Nohlmans"
        },
        "effectiveDateTime": "2018-06-29T09:30:39Z",
        "specimen": {
          "reference": "urn:uuid:7c678317-924b-49aa-a545-f2ceea8494cc"
        }
      }
    },
    {
      "fullUrl": "urn:uuid:0b12ecd9-11d6-4bff-8ee0-3dfe283cd40d",
      "resource": {
        "resourceType": "Observation",
        "id": "0b12ecd9-11d6-4bff-8ee0-3dfe283cd40d",
        "meta": {
          "profile": [
            "http://hl7.eu/fhir/laboratory/StructureDefinition/Observation-resultslab-eu-lab"
          ]
        },
        "performer": [
          {
            "display": "The Central European Lab"
          }
        ],
        "category": [
          {
            "coding": [
              {
                "system": "http://terminology.hl7.org/CodeSystem/observation-category",
                "code": "laboratory"
              }
            ]
          }
        ],
        "code": {
          "coding": [
            {
              "code": "2885-2",
              "system": "http://loinc.org",
              "display": "Protein [Mass/volume] in Serum or Plasma"
            }
          ],
          "text": "Protein [Mass/volume] in Serum or Plasma"
        },
        "valueQuantity": {
          "system": "http://unitsofmeasure.org",
          "value": 6.1,
          "unit": "g/dL",
          "code": "g/dL"
        },
        "referenceRange": [
          {
            "low": {
              "value": 6,
              "code": "g/dL",
              "system": "http://unitsofmeasure.org"
            }
          },
          {
            "high": {
              "value": 8.3,
              "code": "g/dL",
              "system": "http://unitsofmeasure.org"
            }
          }
        ],
        "text": {
          "status": "generated",
          "div": "<div xmlns=\"http://www.w3.org/1999/xhtml\"><table class=\"hl7__eu__lab__report\"><tr><th>Test</th><th>29-Jun-2018</th><th>Reference&#xA0;Range</th><th>Unit</th></tr><tr><td>Protein [Mass/volume] in Serum or Plasma</td><td>6.1</td><td>6 - 8.3</td><td></td><td>g/dL</td></tr></table></div>"
        },
        "status": "final",
        "subject": {
          "reference": "urn:uuid:3d4759e3-34cb-4eb8-ace7-66dd262888fa",
          "display": "Maria Nohlmans"
        },
        "effectiveDateTime": "2018-06-29T09:30:39Z",
        "specimen": {
          "reference": "urn:uuid:ca98acb0-be2d-402f-8a96-699c73a1b331"
        }
      }
    },
    {
      "fullUrl": "urn:uuid:f133617c-3032-4d3a-ab66-525c1adf0a38",
      "resource": {
        "resourceType": "Observation",
        "id": "f133617c-3032-4d3a-ab66-525c1adf0a38",
        "meta": {
          "profile": [
            "http://hl7.eu/fhir/laboratory/StructureDefinition/Observation-resultslab-eu-lab"
          ]
        },
        "performer": [
          {
            "display": "The Central European Lab"
          }
        ],
        "category": [
          {
            "coding": [
              {
                "system": "http://terminology.hl7.org/CodeSystem/observation-category",
                "code": "laboratory"
              }
            ]
          }
        ],
        "code": {
          "coding": [
            {
              "code": "1751-7",
              "system": "http://loinc.org",
              "display": "Albumin [Mass/volume] in Serum or Plasma"
            }
          ],
          "text": "Albumin [Mass/volume] in Serum or Plasma"
        },
        "valueQuantity": {
          "system": "http://unitsofmeasure.org",
          "value": 4.1,
          "unit": "g/dL",
          "code": "g/dL"
        },
        "referenceRange": [
          {
            "low": {
              "value": 3.5,
              "code": "g/dL",
              "system": "http://unitsofmeasure.org"
            }
          },
          {
            "high": {
              "value": 5.5,
              "code": "g/dL",
              "system": "http://unitsofmeasure.org"
            }
          }
        ],
        "text": {
          "status": "generated",
          "div": "<div xmlns=\"http://www.w3.org/1999/xhtml\"><table class=\"hl7__eu__lab__report\"><tr><th>Test</th><th>29-Jun-2018</th><th>Reference&#xA0;Range</th><th>Unit</th></tr><tr><td>Albumin [Mass/volume] in Serum or Plasma</td><td>4.1</td><td>3.5 - 5.5</td><td></td><td>g/dL</td></tr></table></div>"
        },
        "status": "final",
        "subject": {
          "reference": "urn:uuid:3d4759e3-34cb-4eb8-ace7-66dd262888fa",
          "display": "Maria Nohlmans"
        },
        "effectiveDateTime": "2018-06-29T09:30:39Z",
        "specimen": {
          "reference": "urn:uuid:ca98acb0-be2d-402f-8a96-699c73a1b331"
        }
      }
    },
    {
      "fullUrl": "urn:uuid:302e754d-cf06-4c0b-b609-30ef9a2ac6e2",
      "resource": {
        "resourceType": "Observation",
        "id": "302e754d-cf06-4c0b-b609-30ef9a2ac6e2",
        "meta": {
          "profile": [
            "http://hl7.eu/fhir/laboratory/StructureDefinition/Observation-resultslab-eu-lab"
          ]
        },
        "performer": [
          {
            "display": "The Central European Lab"
          }
        ],
        "category": [
          {
            "coding": [
              {
                "system": "http://terminology.hl7.org/CodeSystem/observation-category",
                "code": "laboratory"
              }
            ]
          }
        ],
        "code": {
          "coding": [
            {
              "code": "10834-0",
              "system": "http://loinc.org",
              "display": "Globulin [Mass/volume] in Serum by calculation"
            }
          ],
          "text": "Globulin [Mass/volume] in Serum by calculation"
        },
        "valueQuantity": {
          "system": "http://unitsofmeasure.org",
          "value": 3.4,
          "unit": "g/L",
          "code": "g/L"
        },
        "referenceRange": [
          {
            "low": {
              "value": 2,
              "code": "g/L",
              "system": "http://unitsofmeasure.org"
            }
          },
          {
            "high": {
              "value": 3.5,
              "code": "g/L",
              "system": "http://unitsofmeasure.org"
            }
          }
        ],
        "text": {
          "status": "generated",
          "div": "<div xmlns=\"http://www.w3.org/1999/xhtml\"><table class=\"hl7__eu__lab__report\"><tr><th>Test</th><th>29-Jun-2018</th><th>Reference&#xA0;Range</th><th>Unit</th></tr><tr><td>Globulin [Mass/volume] in Serum by calculation</td><td>3.4</td><td>2 - 3.5</td><td></td><td>g/L</td></tr></table></div>"
        },
        "status": "final",
        "subject": {
          "reference": "urn:uuid:3d4759e3-34cb-4eb8-ace7-66dd262888fa",
          "display": "Maria Nohlmans"
        },
        "effectiveDateTime": "2018-06-29T09:30:39Z",
        "specimen": {
          "reference": "urn:uuid:393c985c-26e6-45b9-b3e0-72f77dd58e2e"
        }
      }
    },
    {
      "fullUrl": "urn:uuid:5d439ce9-fa7c-4563-ba05-e39163286c77",
      "resource": {
        "resourceType": "Observation",
        "id": "5d439ce9-fa7c-4563-ba05-e39163286c77",
        "meta": {
          "profile": [
            "http://hl7.eu/fhir/laboratory/StructureDefinition/Observation-resultslab-eu-lab"
          ]
        },
        "performer": [
          {
            "display": "The Central European Lab"
          }
        ],
        "category": [
          {
            "coding": [
              {
                "system": "http://terminology.hl7.org/CodeSystem/observation-category",
                "code": "laboratory"
              }
            ]
          }
        ],
        "code": {
          "coding": [
            {
              "code": "1975-2",
              "system": "http://loinc.org",
              "display": "Bilirubin.total [Mass/volume] in Serum or Plasma"
            }
          ],
          "text": "Bilirubin.total [Mass/volume] in Serum or Plasma"
        },
        "valueQuantity": {
          "system": "http://unitsofmeasure.org",
          "value": 0.2,
          "unit": "mg/dL",
          "code": "mg/dL"
        },
        "referenceRange": [
          {
            "low": {
              "value": 0.3,
              "code": "mg/dL",
              "system": "http://unitsofmeasure.org"
            }
          },
          {
            "high": {
              "value": 1.2,
              "code": "mg/dL",
              "system": "http://unitsofmeasure.org"
            }
          }
        ],
        "interpretation": [
          {
            "coding": [
              {
                "code": "L",
                "system": "http://terminology.hl7.org/CodeSystem/v3-ObservationInterpretation",
                "display": "Low"
              }
            ]
          }
        ],
        "text": {
          "status": "generated",
          "div": "<div xmlns=\"http://www.w3.org/1999/xhtml\"><table class=\"hl7__eu__lab__report\"><tr><th>Test</th><th>29-Jun-2018</th><th>Reference&#xA0;Range</th><th>Unit</th></tr><tr><td>Bilirubin.total [Mass/volume] in Serum or Plasma</td><td>0.2</td><td>0.3 - 1.2</td><td>L</td><td>mg/dL</td></tr></table></div>"
        },
        "status": "final",
        "subject": {
          "reference": "urn:uuid:3d4759e3-34cb-4eb8-ace7-66dd262888fa",
          "display": "Maria Nohlmans"
        },
        "effectiveDateTime": "2018-06-29T09:30:39Z",
        "specimen": {
          "reference": "urn:uuid:ca98acb0-be2d-402f-8a96-699c73a1b331"
        }
      }
    },
    {
      "fullUrl": "urn:uuid:4be6e983-8251-47c6-bce8-b1f59d71e906",
      "resource": {
        "resourceType": "Observation",
        "id": "4be6e983-8251-47c6-bce8-b1f59d71e906",
        "meta": {
          "profile": [
            "http://hl7.eu/fhir/laboratory/StructureDefinition/Observation-resultslab-eu-lab"
          ]
        },
        "performer": [
          {
            "display": "The Central European Lab"
          }
        ],
        "category": [
          {
            "coding": [
              {
                "system": "http://terminology.hl7.org/CodeSystem/observation-category",
                "code": "laboratory"
              }
            ]
          }
        ],
        "code": {
          "coding": [
            {
              "code": "6768-6",
              "system": "http://loinc.org",
              "display": "Alkaline phosphatase [Enzymatic activity/volume] in Serum or Plasma"
            }
          ],
          "text": "Alkaline phosphatase [Enzymatic activity/volume] in Serum or Plasma"
        },
        "valueQuantity": {
          "system": "http://unitsofmeasure.org",
          "value": 134.7,
          "unit": "U/L",
          "code": "U/L"
        },
        "referenceRange": [
          {
            "low": {
              "value": 44,
              "code": "U/L",
              "system": "http://unitsofmeasure.org"
            }
          },
          {
            "high": {
              "value": 142,
              "code": "U/L",
              "system": "http://unitsofmeasure.org"
            }
          }
        ],
        "text": {
          "status": "generated",
          "div": "<div xmlns=\"http://www.w3.org/1999/xhtml\"><table class=\"hl7__eu__lab__report\"><tr><th>Test</th><th>29-Jun-2018</th><th>Reference&#xA0;Range</th><th>Unit</th></tr><tr><td>Alkaline phosphatase [Enzymatic activity/volume] in Serum or Plasma</td><td>134.7</td><td>44 - 142</td><td></td><td>U/L</td></tr></table></div>"
        },
        "status": "final",
        "subject": {
          "reference": "urn:uuid:3d4759e3-34cb-4eb8-ace7-66dd262888fa",
          "display": "Maria Nohlmans"
        },
        "effectiveDateTime": "2018-06-29T09:30:39Z",
        "specimen": {
          "reference": "urn:uuid:ca98acb0-be2d-402f-8a96-699c73a1b331"
        }
      }
    },
    {
      "fullUrl": "urn:uuid:ab14debb-e215-452e-a1e3-9ea39dd42b38",
      "resource": {
        "resourceType": "Observation",
        "id": "ab14debb-e215-452e-a1e3-9ea39dd42b38",
        "meta": {
          "profile": [
            "http://hl7.eu/fhir/laboratory/StructureDefinition/Observation-resultslab-eu-lab"
          ]
        },
        "performer": [
          {
            "display": "The Central European Lab"
          }
        ],
        "category": [
          {
            "coding": [
              {
                "system": "http://terminology.hl7.org/CodeSystem/observation-category",
                "code": "laboratory"
              }
            ]
          }
        ],
        "code": {
          "coding": [
            {
              "code": "1742-6",
              "system": "http://loinc.org",
              "display": "Alanine aminotransferase [Enzymatic activity/volume] in Serum or Plasma"
            }
          ],
          "text": "Alanine aminotransferase [Enzymatic activity/volume] in Serum or Plasma"
        },
        "valueQuantity": {
          "system": "http://unitsofmeasure.org",
          "value": 20.8,
          "unit": "U/L",
          "code": "U/L"
        },
        "referenceRange": [
          {
            "low": {
              "value": 7,
              "code": "U/L",
              "system": "http://unitsofmeasure.org"
            }
          },
          {
            "high": {
              "value": 40,
              "code": "U/L",
              "system": "http://unitsofmeasure.org"
            }
          }
        ],
        "text": {
          "status": "generated",
          "div": "<div xmlns=\"http://www.w3.org/1999/xhtml\"><table class=\"hl7__eu__lab__report\"><tr><th>Test</th><th>29-Jun-2018</th><th>Reference&#xA0;Range</th><th>Unit</th></tr><tr><td>Alanine aminotransferase [Enzymatic activity/volume] in Serum or Plasma</td><td>20.8</td><td>7 - 40</td><td></td><td>U/L</td></tr></table></div>"
        },
        "status": "final",
        "subject": {
          "reference": "urn:uuid:3d4759e3-34cb-4eb8-ace7-66dd262888fa",
          "display": "Maria Nohlmans"
        },
        "effectiveDateTime": "2018-06-29T09:30:39Z",
        "specimen": {
          "reference": "urn:uuid:ca98acb0-be2d-402f-8a96-699c73a1b331"
        }
      }
    },
    {
      "fullUrl": "urn:uuid:c5acc984-567b-4acb-8be0-8d9fb9f7205f",
      "resource": {
        "resourceType": "Observation",
        "id": "c5acc984-567b-4acb-8be0-8d9fb9f7205f",
        "meta": {
          "profile": [
            "http://hl7.eu/fhir/laboratory/StructureDefinition/Observation-resultslab-eu-lab"
          ]
        },
        "performer": [
          {
            "display": "The Central European Lab"
          }
        ],
        "category": [
          {
            "coding": [
              {
                "system": "http://terminology.hl7.org/CodeSystem/observation-category",
                "code": "laboratory"
              }
            ]
          }
        ],
        "code": {
          "coding": [
            {
              "code": "1920-8",
              "system": "http://loinc.org",
              "display": "Aspartate aminotransferase [Enzymatic activity/volume] in Serum or Plasma"
            }
          ],
          "text": "Aspartate aminotransferase [Enzymatic activity/volume] in Serum or Plasma"
        },
        "valueQuantity": {
          "system": "http://unitsofmeasure.org",
          "value": 23.5,
          "unit": "U/L",
          "code": "U/L"
        },
        "referenceRange": [
          {
            "low": {
              "value": 10,
              "code": "U/L",
              "system": "http://unitsofmeasure.org"
            }
          },
          {
            "high": {
              "value": 40,
              "code": "U/L",
              "system": "http://unitsofmeasure.org"
            }
          }
        ],
        "text": {
          "status": "generated",
          "div": "<div xmlns=\"http://www.w3.org/1999/xhtml\"><table class=\"hl7__eu__lab__report\"><tr><th>Test</th><th>29-Jun-2018</th><th>Reference&#xA0;Range</th><th>Unit</th></tr><tr><td>Aspartate aminotransferase [Enzymatic activity/volume] in Serum or Plasma</td><td>23.5</td><td>10 - 40</td><td></td><td>U/L</td></tr></table></div>"
        },
        "status": "final",
        "subject": {
          "reference": "urn:uuid:3d4759e3-34cb-4eb8-ace7-66dd262888fa",
          "display": "Maria Nohlmans"
        },
        "effectiveDateTime": "2018-06-29T09:30:39Z",
        "specimen": {
          "reference": "urn:uuid:ca98acb0-be2d-402f-8a96-699c73a1b331"
        }
      }
    },
    {
      "fullUrl": "urn:uuid:a8b19c91-31cc-4b99-a9bd-920fdc8ef158",
      "resource": {
        "resourceType": "Observation",
        "id": "a8b19c91-31cc-4b99-a9bd-920fdc8ef158",
        "meta": {
          "profile": [
            "http://hl7.eu/fhir/laboratory/StructureDefinition/Observation-resultslab-eu-lab"
          ]
        },
        "performer": [
          {
            "display": "The Central European Lab"
          }
        ],
        "category": [
          {
            "coding": [
              {
                "system": "http://terminology.hl7.org/CodeSystem/observation-category",
                "code": "laboratory"
              }
            ]
          }
        ],
        "code": {
          "coding": [
            {
              "code": "5767-9",
              "system": "http://loinc.org",
              "display": "Appearance of Urine"
            }
          ],
          "text": "Appearance of Urine"
        },
        "text": {
          "status": "generated",
          "div": "<div xmlns=\"http://www.w3.org/1999/xhtml\"><table class=\"hl7__eu__lab__report\"><tr><th>Test</th><th>29-Jun-2018</th><th>Reference&#xA0;Range</th><th>Unit</th></tr><tr><td>Appearance of Urine</td></tr></table></div>"
        },
        "status": "final",
        "subject": {
          "reference": "urn:uuid:3d4759e3-34cb-4eb8-ace7-66dd262888fa",
          "display": "Maria Nohlmans"
        },
        "effectiveDateTime": "2018-06-29T09:30:39Z",
        "specimen": {
          "reference": "urn:uuid:76747651-3bdc-4020-97ad-facee16b59c5"
        }
      }
    },
    {
      "fullUrl": "urn:uuid:ed3391d1-3f76-43a1-bdd1-337a7f5e0054",
      "resource": {
        "resourceType": "Observation",
        "id": "ed3391d1-3f76-43a1-bdd1-337a7f5e0054",
        "meta": {
          "profile": [
            "http://hl7.eu/fhir/laboratory/StructureDefinition/Observation-resultslab-eu-lab"
          ]
        },
        "performer": [
          {
            "display": "The Central European Lab"
          }
        ],
        "category": [
          {
            "coding": [
              {
                "system": "http://terminology.hl7.org/CodeSystem/observation-category",
                "code": "laboratory"
              }
            ]
          }
        ],
        "code": {
          "coding": [
            {
              "code": "34533-0",
              "system": "http://loinc.org",
              "display": "Odor of Urine"
            }
          ],
          "text": "Odor of Urine"
        },
        "text": {
          "status": "generated",
          "div": "<div xmlns=\"http://www.w3.org/1999/xhtml\"><table class=\"hl7__eu__lab__report\"><tr><th>Test</th><th>29-Jun-2018</th><th>Reference&#xA0;Range</th><th>Unit</th></tr><tr><td>Odor of Urine</td></tr></table></div>"
        },
        "status": "final",
        "subject": {
          "reference": "urn:uuid:3d4759e3-34cb-4eb8-ace7-66dd262888fa",
          "display": "Maria Nohlmans"
        },
        "effectiveDateTime": "2018-06-29T09:30:39Z",
        "specimen": {
          "reference": "urn:uuid:76747651-3bdc-4020-97ad-facee16b59c5"
        }
      }
    },
    {
      "fullUrl": "urn:uuid:130dc302-42b5-4554-bf5c-851b0ba84eea",
      "resource": {
        "resourceType": "Observation",
        "id": "130dc302-42b5-4554-bf5c-851b0ba84eea",
        "meta": {
          "profile": [
            "http://hl7.eu/fhir/laboratory/StructureDefinition/Observation-resultslab-eu-lab"
          ]
        },
        "performer": [
          {
            "display": "The Central European Lab"
          }
        ],
        "category": [
          {
            "coding": [
              {
                "system": "http://terminology.hl7.org/CodeSystem/observation-category",
                "code": "laboratory"
              }
            ]
          }
        ],
        "code": {
          "coding": [
            {
              "code": "32167-9",
              "system": "http://loinc.org",
              "display": "Clarity of Urine"
            }
          ],
          "text": "Clarity of Urine"
        },
        "text": {
          "status": "generated",
          "div": "<div xmlns=\"http://www.w3.org/1999/xhtml\"><table class=\"hl7__eu__lab__report\"><tr><th>Test</th><th>29-Jun-2018</th><th>Reference&#xA0;Range</th><th>Unit</th></tr><tr><td>Clarity of Urine</td></tr></table></div>"
        },
        "status": "final",
        "subject": {
          "reference": "urn:uuid:3d4759e3-34cb-4eb8-ace7-66dd262888fa",
          "display": "Maria Nohlmans"
        },
        "effectiveDateTime": "2018-06-29T09:30:39Z",
        "specimen": {
          "reference": "urn:uuid:76747651-3bdc-4020-97ad-facee16b59c5"
        }
      }
    },
    {
      "fullUrl": "urn:uuid:98e59c89-83b3-4b9c-bc4f-46dcd642366b",
      "resource": {
        "resourceType": "Observation",
        "id": "98e59c89-83b3-4b9c-bc4f-46dcd642366b",
        "meta": {
          "profile": [
            "http://hl7.eu/fhir/laboratory/StructureDefinition/Observation-resultslab-eu-lab"
          ]
        },
        "performer": [
          {
            "display": "The Central European Lab"
          }
        ],
        "category": [
          {
            "coding": [
              {
                "system": "http://terminology.hl7.org/CodeSystem/observation-category",
                "code": "laboratory"
              }
            ]
          }
        ],
        "code": {
          "coding": [
            {
              "code": "5778-6",
              "system": "http://loinc.org",
              "display": "Color of Urine"
            }
          ],
          "text": "Color of Urine"
        },
        "text": {
          "status": "generated",
          "div": "<div xmlns=\"http://www.w3.org/1999/xhtml\"><table class=\"hl7__eu__lab__report\"><tr><th>Test</th><th>29-Jun-2018</th><th>Reference&#xA0;Range</th><th>Unit</th></tr><tr><td>Color of Urine</td></tr></table></div>"
        },
        "status": "final",
        "subject": {
          "reference": "urn:uuid:3d4759e3-34cb-4eb8-ace7-66dd262888fa",
          "display": "Maria Nohlmans"
        },
        "effectiveDateTime": "2018-06-29T09:30:39Z",
        "specimen": {
          "reference": "urn:uuid:76747651-3bdc-4020-97ad-facee16b59c5"
        }
      }
    },
    {
      "fullUrl": "urn:uuid:2e1a2a04-5dbd-4e88-b7ab-6a199f221508",
      "resource": {
        "resourceType": "Observation",
        "id": "2e1a2a04-5dbd-4e88-b7ab-6a199f221508",
        "meta": {
          "profile": [
            "http://hl7.eu/fhir/laboratory/StructureDefinition/Observation-resultslab-eu-lab"
          ]
        },
        "performer": [
          {
            "display": "The Central European Lab"
          }
        ],
        "category": [
          {
            "coding": [
              {
                "system": "http://terminology.hl7.org/CodeSystem/observation-category",
                "code": "laboratory"
              }
            ]
          }
        ],
        "code": {
          "coding": [
            {
              "code": "5792-7",
              "system": "http://loinc.org",
              "display": "Glucose [Mass/volume] in Urine by Test strip"
            }
          ],
          "text": "Glucose [Mass/volume] in Urine by Test strip"
        },
        "valueQuantity": {
          "system": "http://unitsofmeasure.org",
          "value": 0.9,
          "unit": "mg/dL",
          "code": "mg/dL"
        },
        "referenceRange": [
          {
            "low": {
              "value": 0.8,
              "code": "mg/dL",
              "system": "http://unitsofmeasure.org"
            }
          },
          {
            "high": {
              "value": 0,
              "code": "mg/dL",
              "system": "http://unitsofmeasure.org"
            }
          }
        ],
        "interpretation": [
          {
            "coding": [
              {
                "code": "H",
                "system": "http://terminology.hl7.org/CodeSystem/v3-ObservationInterpretation",
                "display": "High"
              }
            ]
          }
        ],
        "text": {
          "status": "generated",
          "div": "<div xmlns=\"http://www.w3.org/1999/xhtml\"><table class=\"hl7__eu__lab__report\"><tr><th>Test</th><th>29-Jun-2018</th><th>Reference&#xA0;Range</th><th>Unit</th></tr><tr><td>Glucose [Mass/volume] in Urine by Test strip</td><td>0.9</td><td>0.8 - 0</td><td>H</td><td>mg/dL</td></tr></table></div>"
        },
        "status": "final",
        "subject": {
          "reference": "urn:uuid:3d4759e3-34cb-4eb8-ace7-66dd262888fa",
          "display": "Maria Nohlmans"
        },
        "effectiveDateTime": "2018-06-29T09:30:39Z",
        "specimen": {
          "reference": "urn:uuid:76747651-3bdc-4020-97ad-facee16b59c5"
        }
      }
    },
    {
      "fullUrl": "urn:uuid:27d8ad2b-f1b5-4172-a1db-e800da4e86f7",
      "resource": {
        "resourceType": "Observation",
        "id": "27d8ad2b-f1b5-4172-a1db-e800da4e86f7",
        "meta": {
          "profile": [
            "http://hl7.eu/fhir/laboratory/StructureDefinition/Observation-resultslab-eu-lab"
          ]
        },
        "performer": [
          {
            "display": "The Central European Lab"
          }
        ],
        "category": [
          {
            "coding": [
              {
                "system": "http://terminology.hl7.org/CodeSystem/observation-category",
                "code": "laboratory"
              }
            ]
          }
        ],
        "code": {
          "coding": [
            {
              "code": "25428-4",
              "system": "http://loinc.org",
              "display": "Glucose [Presence] in Urine by Test strip"
            }
          ],
          "text": "Glucose [Presence] in Urine by Test strip"
        },
        "text": {
          "status": "generated",
          "div": "<div xmlns=\"http://www.w3.org/1999/xhtml\"><table class=\"hl7__eu__lab__report\"><tr><th>Test</th><th>29-Jun-2018</th><th>Reference&#xA0;Range</th><th>Unit</th></tr><tr><td>Glucose [Presence] in Urine by Test strip</td></tr></table></div>"
        },
        "status": "final",
        "subject": {
          "reference": "urn:uuid:3d4759e3-34cb-4eb8-ace7-66dd262888fa",
          "display": "Maria Nohlmans"
        },
        "effectiveDateTime": "2018-06-29T09:30:39Z",
        "specimen": {
          "reference": "urn:uuid:76747651-3bdc-4020-97ad-facee16b59c5"
        }
      }
    },
    {
      "fullUrl": "urn:uuid:5f8e50d4-2e5e-4780-b32a-59c823eb6514",
      "resource": {
        "resourceType": "Observation",
        "id": "5f8e50d4-2e5e-4780-b32a-59c823eb6514",
        "meta": {
          "profile": [
            "http://hl7.eu/fhir/laboratory/StructureDefinition/Observation-resultslab-eu-lab"
          ]
        },
        "performer": [
          {
            "display": "The Central European Lab"
          }
        ],
        "category": [
          {
            "coding": [
              {
                "system": "http://terminology.hl7.org/CodeSystem/observation-category",
                "code": "laboratory"
              }
            ]
          }
        ],
        "code": {
          "coding": [
            {
              "code": "20505-4",
              "system": "http://loinc.org",
              "display": "Bilirubin.total [Mass/volume] in Urine by Test strip"
            }
          ],
          "text": "Bilirubin.total [Mass/volume] in Urine by Test strip"
        },
        "valueQuantity": {
          "system": "http://unitsofmeasure.org",
          "value": 0.7,
          "unit": "mg/dL",
          "code": "mg/dL"
        },
        "referenceRange": [
          {
            "low": {
              "value": 0,
              "code": "mg/dL",
              "system": "http://unitsofmeasure.org"
            }
          },
          {
            "high": {
              "value": 1.5,
              "code": "mg/dL",
              "system": "http://unitsofmeasure.org"
            }
          }
        ],
        "text": {
          "status": "generated",
          "div": "<div xmlns=\"http://www.w3.org/1999/xhtml\"><table class=\"hl7__eu__lab__report\"><tr><th>Test</th><th>29-Jun-2018</th><th>Reference&#xA0;Range</th><th>Unit</th></tr><tr><td>Bilirubin.total [Mass/volume] in Urine by Test strip</td><td>0.7</td><td>0 - 1.5</td><td></td><td>mg/dL</td></tr></table></div>"
        },
        "status": "final",
        "subject": {
          "reference": "urn:uuid:3d4759e3-34cb-4eb8-ace7-66dd262888fa",
          "display": "Maria Nohlmans"
        },
        "effectiveDateTime": "2018-06-29T09:30:39Z",
        "specimen": {
          "reference": "urn:uuid:76747651-3bdc-4020-97ad-facee16b59c5"
        }
      }
    },
    {
      "fullUrl": "urn:uuid:3463b8f4-4a6d-432a-a0aa-65e4ec9dd200",
      "resource": {
        "resourceType": "Observation",
        "id": "3463b8f4-4a6d-432a-a0aa-65e4ec9dd200",
        "meta": {
          "profile": [
            "http://hl7.eu/fhir/laboratory/StructureDefinition/Observation-resultslab-eu-lab"
          ]
        },
        "performer": [
          {
            "display": "The Central European Lab"
          }
        ],
        "category": [
          {
            "coding": [
              {
                "system": "http://terminology.hl7.org/CodeSystem/observation-category",
                "code": "laboratory"
              }
            ]
          }
        ],
        "code": {
          "coding": [
            {
              "code": "5770-3",
              "system": "http://loinc.org",
              "display": "Bilirubin.total [Presence] in Urine by Test strip"
            }
          ],
          "text": "Bilirubin.total [Presence] in Urine by Test strip"
        },
        "text": {
          "status": "generated",
          "div": "<div xmlns=\"http://www.w3.org/1999/xhtml\"><table class=\"hl7__eu__lab__report\"><tr><th>Test</th><th>29-Jun-2018</th><th>Reference&#xA0;Range</th><th>Unit</th></tr><tr><td>Bilirubin.total [Presence] in Urine by Test strip</td></tr></table></div>"
        },
        "status": "final",
        "subject": {
          "reference": "urn:uuid:3d4759e3-34cb-4eb8-ace7-66dd262888fa",
          "display": "Maria Nohlmans"
        },
        "effectiveDateTime": "2018-06-29T09:30:39Z",
        "specimen": {
          "reference": "urn:uuid:76747651-3bdc-4020-97ad-facee16b59c5"
        }
      }
    },
    {
      "fullUrl": "urn:uuid:3e8e2985-5ae4-41b5-ba8e-09e06670d30a",
      "resource": {
        "resourceType": "Observation",
        "id": "3e8e2985-5ae4-41b5-ba8e-09e06670d30a",
        "meta": {
          "profile": [
            "http://hl7.eu/fhir/laboratory/StructureDefinition/Observation-resultslab-eu-lab"
          ]
        },
        "performer": [
          {
            "display": "The Central European Lab"
          }
        ],
        "category": [
          {
            "coding": [
              {
                "system": "http://terminology.hl7.org/CodeSystem/observation-category",
                "code": "laboratory"
              }
            ]
          }
        ],
        "code": {
          "coding": [
            {
              "code": "5797-6",
              "system": "http://loinc.org",
              "display": "Ketones [Mass/volume] in Urine by Test strip"
            }
          ],
          "text": "Ketones [Mass/volume] in Urine by Test strip"
        },
        "valueQuantity": {
          "system": "http://unitsofmeasure.org",
          "value": 14.2,
          "unit": "mg/dL",
          "code": "mg/dL"
        },
        "referenceRange": [
          {
            "low": {
              "value": 0,
              "code": "mg/dL",
              "system": "http://unitsofmeasure.org"
            }
          },
          {
            "high": {
              "value": 8,
              "code": "mg/dL",
              "system": "http://unitsofmeasure.org"
            }
          }
        ],
        "interpretation": [
          {
            "coding": [
              {
                "code": "H",
                "system": "http://terminology.hl7.org/CodeSystem/v3-ObservationInterpretation",
                "display": "High"
              }
            ]
          }
        ],
        "text": {
          "status": "generated",
          "div": "<div xmlns=\"http://www.w3.org/1999/xhtml\"><table class=\"hl7__eu__lab__report\"><tr><th>Test</th><th>29-Jun-2018</th><th>Reference&#xA0;Range</th><th>Unit</th></tr><tr><td>Ketones [Mass/volume] in Urine by Test strip</td><td>14.2</td><td>0 - 8</td><td>H</td><td>mg/dL</td></tr></table></div>"
        },
        "status": "final",
        "subject": {
          "reference": "urn:uuid:3d4759e3-34cb-4eb8-ace7-66dd262888fa",
          "display": "Maria Nohlmans"
        },
        "effectiveDateTime": "2018-06-29T09:30:39Z",
        "specimen": {
          "reference": "urn:uuid:76747651-3bdc-4020-97ad-facee16b59c5"
        }
      }
    },
    {
      "fullUrl": "urn:uuid:4f40b871-3fcf-4f5e-b39a-0dc4fa856118",
      "resource": {
        "resourceType": "Observation",
        "id": "4f40b871-3fcf-4f5e-b39a-0dc4fa856118",
        "meta": {
          "profile": [
            "http://hl7.eu/fhir/laboratory/StructureDefinition/Observation-resultslab-eu-lab"
          ]
        },
        "performer": [
          {
            "display": "The Central European Lab"
          }
        ],
        "category": [
          {
            "coding": [
              {
                "system": "http://terminology.hl7.org/CodeSystem/observation-category",
                "code": "laboratory"
              }
            ]
          }
        ],
        "code": {
          "coding": [
            {
              "code": "2514-8",
              "system": "http://loinc.org",
              "display": "Ketones [Presence] in Urine by Test strip"
            }
          ],
          "text": "Ketones [Presence] in Urine by Test strip"
        },
        "text": {
          "status": "generated",
          "div": "<div xmlns=\"http://www.w3.org/1999/xhtml\"><table class=\"hl7__eu__lab__report\"><tr><th>Test</th><th>29-Jun-2018</th><th>Reference&#xA0;Range</th><th>Unit</th></tr><tr><td>Ketones [Presence] in Urine by Test strip</td></tr></table></div>"
        },
        "status": "final",
        "subject": {
          "reference": "urn:uuid:3d4759e3-34cb-4eb8-ace7-66dd262888fa",
          "display": "Maria Nohlmans"
        },
        "effectiveDateTime": "2018-06-29T09:30:39Z",
        "specimen": {
          "reference": "urn:uuid:76747651-3bdc-4020-97ad-facee16b59c5"
        }
      }
    },
    {
      "fullUrl": "urn:uuid:0420f8b0-328a-4f71-b575-4b8773c8f4e0",
      "resource": {
        "resourceType": "Observation",
        "id": "0420f8b0-328a-4f71-b575-4b8773c8f4e0",
        "meta": {
          "profile": [
            "http://hl7.eu/fhir/laboratory/StructureDefinition/Observation-resultslab-eu-lab"
          ]
        },
        "performer": [
          {
            "display": "The Central European Lab"
          }
        ],
        "category": [
          {
            "coding": [
              {
                "system": "http://terminology.hl7.org/CodeSystem/observation-category",
                "code": "laboratory"
              }
            ]
          }
        ],
        "code": {
          "coding": [
            {
              "code": "5811-5",
              "system": "http://loinc.org",
              "display": "Specific gravity of Urine by Test strip"
            }
          ],
          "text": "Specific gravity of Urine by Test strip"
        },
        "valueQuantity": {
          "system": "http://unitsofmeasure.org",
          "value": 1,
          "unit": "{nominal}",
          "code": "{nominal}"
        },
        "referenceRange": [
          {
            "low": {
              "value": 1.01,
              "code": "g/mL",
              "system": "http://unitsofmeasure.org"
            }
          },
          {
            "high": {
              "value": 1.03,
              "code": "g/mL",
              "system": "http://unitsofmeasure.org"
            }
          }
        ],
        "interpretation": [
          {
            "coding": [
              {
                "code": "L",
                "system": "http://terminology.hl7.org/CodeSystem/v3-ObservationInterpretation",
                "display": "Low"
              }
            ]
          }
        ],
        "text": {
          "status": "generated",
          "div": "<div xmlns=\"http://www.w3.org/1999/xhtml\"><table class=\"hl7__eu__lab__report\"><tr><th>Test</th><th>29-Jun-2018</th><th>Reference&#xA0;Range</th><th>Unit</th></tr><tr><td>Specific gravity of Urine by Test strip</td><td>1.0</td><td>1.01 - 1.03</td><td>L</td><td>{nominal}</td></tr></table></div>"
        },
        "status": "final",
        "subject": {
          "reference": "urn:uuid:3d4759e3-34cb-4eb8-ace7-66dd262888fa",
          "display": "Maria Nohlmans"
        },
        "effectiveDateTime": "2018-06-29T09:30:39Z",
        "specimen": {
          "reference": "urn:uuid:76747651-3bdc-4020-97ad-facee16b59c5"
        }
      }
    },
    {
      "fullUrl": "urn:uuid:08ff68b1-0623-46b7-b0a1-d150d47582dd",
      "resource": {
        "resourceType": "Observation",
        "id": "08ff68b1-0623-46b7-b0a1-d150d47582dd",
        "meta": {
          "profile": [
            "http://hl7.eu/fhir/laboratory/StructureDefinition/Observation-resultslab-eu-lab"
          ]
        },
        "performer": [
          {
            "display": "The Central European Lab"
          }
        ],
        "category": [
          {
            "coding": [
              {
                "system": "http://terminology.hl7.org/CodeSystem/observation-category",
                "code": "laboratory"
              }
            ]
          }
        ],
        "code": {
          "coding": [
            {
              "code": "5803-2",
              "system": "http://loinc.org",
              "display": "pH of Urine by Test strip"
            }
          ],
          "text": "pH of Urine by Test strip"
        },
        "valueQuantity": {
          "system": "http://unitsofmeasure.org",
          "value": 6.9,
          "unit": "pH",
          "code": "pH"
        },
        "referenceRange": [
          {
            "low": {
              "value": 4.6,
              "code": "pH",
              "system": "http://unitsofmeasure.org"
            }
          },
          {
            "high": {
              "value": 7.5,
              "code": "pH",
              "system": "http://unitsofmeasure.org"
            }
          }
        ],
        "text": {
          "status": "generated",
          "div": "<div xmlns=\"http://www.w3.org/1999/xhtml\"><table class=\"hl7__eu__lab__report\"><tr><th>Test</th><th>29-Jun-2018</th><th>Reference&#xA0;Range</th><th>Unit</th></tr><tr><td>pH of Urine by Test strip</td><td>6.9</td><td>4.6 - 7.5</td><td></td><td>pH</td></tr></table></div>"
        },
        "status": "final",
        "subject": {
          "reference": "urn:uuid:3d4759e3-34cb-4eb8-ace7-66dd262888fa",
          "display": "Maria Nohlmans"
        },
        "effectiveDateTime": "2018-06-29T09:30:39Z",
        "specimen": {
          "reference": "urn:uuid:76747651-3bdc-4020-97ad-facee16b59c5"
        }
      }
    },
    {
      "fullUrl": "urn:uuid:5d50eeb8-5b36-4697-b0bd-e10c4e6b66d3",
      "resource": {
        "resourceType": "Observation",
        "id": "5d50eeb8-5b36-4697-b0bd-e10c4e6b66d3",
        "meta": {
          "profile": [
            "http://hl7.eu/fhir/laboratory/StructureDefinition/Observation-resultslab-eu-lab"
          ]
        },
        "performer": [
          {
            "display": "The Central European Lab"
          }
        ],
        "category": [
          {
            "coding": [
              {
                "system": "http://terminology.hl7.org/CodeSystem/observation-category",
                "code": "laboratory"
              }
            ]
          }
        ],
        "code": {
          "coding": [
            {
              "code": "5804-0",
              "system": "http://loinc.org",
              "display": "Protein [Mass/volume] in Urine by Test strip"
            }
          ],
          "text": "Protein [Mass/volume] in Urine by Test strip"
        },
        "valueQuantity": {
          "system": "http://unitsofmeasure.org",
          "value": 353.1,
          "unit": "mg/dL",
          "code": "mg/dL"
        },
        "referenceRange": [
          {
            "low": {
              "value": 0,
              "code": "mg/dL",
              "system": "http://unitsofmeasure.org"
            }
          },
          {
            "high": {
              "value": 14,
              "code": "mg/dL",
              "system": "http://unitsofmeasure.org"
            }
          }
        ],
        "interpretation": [
          {
            "coding": [
              {
                "code": "H",
                "system": "http://terminology.hl7.org/CodeSystem/v3-ObservationInterpretation",
                "display": "High"
              }
            ]
          }
        ],
        "text": {
          "status": "generated",
          "div": "<div xmlns=\"http://www.w3.org/1999/xhtml\"><table class=\"hl7__eu__lab__report\"><tr><th>Test</th><th>29-Jun-2018</th><th>Reference&#xA0;Range</th><th>Unit</th></tr><tr><td>Protein [Mass/volume] in Urine by Test strip</td><td>353.1</td><td>0 - 14</td><td>H</td><td>mg/dL</td></tr></table></div>"
        },
        "status": "final",
        "subject": {
          "reference": "urn:uuid:3d4759e3-34cb-4eb8-ace7-66dd262888fa",
          "display": "Maria Nohlmans"
        },
        "effectiveDateTime": "2018-06-29T09:30:39Z",
        "specimen": {
          "reference": "urn:uuid:76747651-3bdc-4020-97ad-facee16b59c5"
        }
      }
    },
    {
      "fullUrl": "urn:uuid:40a4a83a-19df-498e-a89e-d7fc577afa73",
      "resource": {
        "resourceType": "Observation",
        "id": "40a4a83a-19df-498e-a89e-d7fc577afa73",
        "meta": {
          "profile": [
            "http://hl7.eu/fhir/laboratory/StructureDefinition/Observation-resultslab-eu-lab"
          ]
        },
        "performer": [
          {
            "display": "The Central European Lab"
          }
        ],
        "category": [
          {
            "coding": [
              {
                "system": "http://terminology.hl7.org/CodeSystem/observation-category",
                "code": "laboratory"
              }
            ]
          }
        ],
        "code": {
          "coding": [
            {
              "code": "20454-5",
              "system": "http://loinc.org",
              "display": "Protein [Presence] in Urine by Test strip"
            }
          ],
          "text": "Protein [Presence] in Urine by Test strip"
        },
        "text": {
          "status": "generated",
          "div": "<div xmlns=\"http://www.w3.org/1999/xhtml\"><table class=\"hl7__eu__lab__report\"><tr><th>Test</th><th>29-Jun-2018</th><th>Reference&#xA0;Range</th><th>Unit</th></tr><tr><td>Protein [Presence] in Urine by Test strip</td></tr></table></div>"
        },
        "status": "final",
        "subject": {
          "reference": "urn:uuid:3d4759e3-34cb-4eb8-ace7-66dd262888fa",
          "display": "Maria Nohlmans"
        },
        "effectiveDateTime": "2018-06-29T09:30:39Z",
        "specimen": {
          "reference": "urn:uuid:76747651-3bdc-4020-97ad-facee16b59c5"
        }
      }
    },
    {
      "fullUrl": "urn:uuid:0e52e308-354c-4db7-ab3f-dbfb15e1c5ef",
      "resource": {
        "resourceType": "Observation",
        "id": "0e52e308-354c-4db7-ab3f-dbfb15e1c5ef",
        "meta": {
          "profile": [
            "http://hl7.eu/fhir/laboratory/StructureDefinition/Observation-resultslab-eu-lab"
          ]
        },
        "performer": [
          {
            "display": "The Central European Lab"
          }
        ],
        "category": [
          {
            "coding": [
              {
                "system": "http://terminology.hl7.org/CodeSystem/observation-category",
                "code": "laboratory"
              }
            ]
          }
        ],
        "code": {
          "coding": [
            {
              "code": "5802-4",
              "system": "http://loinc.org",
              "display": "Nitrite [Presence] in Urine by Test strip"
            }
          ],
          "text": "Nitrite [Presence] in Urine by Test strip"
        },
        "text": {
          "status": "generated",
          "div": "<div xmlns=\"http://www.w3.org/1999/xhtml\"><table class=\"hl7__eu__lab__report\"><tr><th>Test</th><th>29-Jun-2018</th><th>Reference&#xA0;Range</th><th>Unit</th></tr><tr><td>Nitrite [Presence] in Urine by Test strip</td></tr></table></div>"
        },
        "status": "final",
        "subject": {
          "reference": "urn:uuid:3d4759e3-34cb-4eb8-ace7-66dd262888fa",
          "display": "Maria Nohlmans"
        },
        "effectiveDateTime": "2018-06-29T09:30:39Z",
        "specimen": {
          "reference": "urn:uuid:76747651-3bdc-4020-97ad-facee16b59c5"
        }
      }
    },
    {
      "fullUrl": "urn:uuid:abf82b0f-b28c-4762-9624-3770e38f11b2",
      "resource": {
        "resourceType": "Observation",
        "id": "abf82b0f-b28c-4762-9624-3770e38f11b2",
        "meta": {
          "profile": [
            "http://hl7.eu/fhir/laboratory/StructureDefinition/Observation-resultslab-eu-lab"
          ]
        },
        "performer": [
          {
            "display": "The Central European Lab"
          }
        ],
        "category": [
          {
            "coding": [
              {
                "system": "http://terminology.hl7.org/CodeSystem/observation-category",
                "code": "laboratory"
              }
            ]
          }
        ],
        "code": {
          "coding": [
            {
              "code": "5794-3",
              "system": "http://loinc.org",
              "display": "Hemoglobin [Presence] in Urine by Test strip"
            }
          ],
          "text": "Hemoglobin [Presence] in Urine by Test strip"
        },
        "text": {
          "status": "generated",
          "div": "<div xmlns=\"http://www.w3.org/1999/xhtml\"><table class=\"hl7__eu__lab__report\"><tr><th>Test</th><th>29-Jun-2018</th><th>Reference&#xA0;Range</th><th>Unit</th></tr><tr><td>Hemoglobin [Presence] in Urine by Test strip</td></tr></table></div>"
        },
        "status": "final",
        "subject": {
          "reference": "urn:uuid:3d4759e3-34cb-4eb8-ace7-66dd262888fa",
          "display": "Maria Nohlmans"
        },
        "effectiveDateTime": "2018-06-29T09:30:39Z",
        "specimen": {
          "reference": "urn:uuid:76747651-3bdc-4020-97ad-facee16b59c5"
        }
      }
    },
    {
      "fullUrl": "urn:uuid:f438fa63-cd83-4ae2-93b5-c97c52e08406",
      "resource": {
        "resourceType": "Observation",
        "id": "f438fa63-cd83-4ae2-93b5-c97c52e08406",
        "meta": {
          "profile": [
            "http://hl7.eu/fhir/laboratory/StructureDefinition/Observation-resultslab-eu-lab"
          ]
        },
        "performer": [
          {
            "display": "The Central European Lab"
          }
        ],
        "category": [
          {
            "coding": [
              {
                "system": "http://terminology.hl7.org/CodeSystem/observation-category",
                "code": "laboratory"
              }
            ]
          }
        ],
        "code": {
          "coding": [
            {
              "code": "5799-2",
              "system": "http://loinc.org",
              "display": "Leukocyte esterase [Presence] in Urine by Test strip"
            }
          ],
          "text": "Leukocyte esterase [Presence] in Urine by Test strip"
        },
        "text": {
          "status": "generated",
          "div": "<div xmlns=\"http://www.w3.org/1999/xhtml\"><table class=\"hl7__eu__lab__report\"><tr><th>Test</th><th>29-Jun-2018</th><th>Reference&#xA0;Range</th><th>Unit</th></tr><tr><td>Leukocyte esterase [Presence] in Urine by Test strip</td></tr></table></div>"
        },
        "status": "final",
        "subject": {
          "reference": "urn:uuid:3d4759e3-34cb-4eb8-ace7-66dd262888fa",
          "display": "Maria Nohlmans"
        },
        "effectiveDateTime": "2018-06-29T09:30:39Z",
        "specimen": {
          "reference": "urn:uuid:76747651-3bdc-4020-97ad-facee16b59c5"
        }
      }
    },
    {
      "fullUrl": "urn:uuid:e3287fda-7938-4053-8c36-f94b985b61ba",
      "resource": {
        "resourceType": "Device",
        "id": "e3287fda-7938-4053-8c36-f94b985b61ba",
        "deviceName": [
          {
            "name": "SYNDERAI Synthetic Generator",
            "type": "manufacturer-name"
          }
        ],
        "version": [
          {
            "value": "5.0"
          }
        ],
        "text": {
          "status": "generated",
          "div": "<div xmlns=\"http://www.w3.org/1999/xhtml\">SYNDERAI Synthetic Generator v5.0</div>"
        },
        "status": "active\"",
        "distinctIdentifier": "synderai-generator-50",
        "manufacturer": "SYNDERAI Project"
      }
    },
    {
      "fullUrl": "urn:uuid:150073d9-2495-4f23-8525-77408818359f",
      "resource": {
        "resourceType": "Provenance",
        "id": "150073d9-2495-4f23-8525-77408818359f",
        "target": [
          {
            "reference": "Patient/3d4759e3-34cb-4eb8-ace7-66dd262888fa"
          },
          {
            "reference": "Bundle/e6cdf754-a28f-4549-a984-9fad17623b42"
          },
          {
            "reference": "Composition/99fbd369-a522-49a7-aca3-ddaee13f1d11"
          },
          {
            "reference": "PractitionerRole/84b9ffef-b8de-48c2-b270-53c4c69deade"
          },
          {
            "reference": "Practitioner/9e6f82ae-a885-42ff-a5f5-aed1d82012be"
          },
          {
            "reference": "PractitionerRole/c2094f90-8878-41b7-b0aa-c5eb764ce406"
          },
          {
            "reference": "Organization/47f12c50-f7c9-4bb1-a285-caaf8d651ebc"
          }
        ],
        "activity": {
          "text": "Synthetic Example Data Generation"
        },
        "policy": [
          "https://synderai.net/synderai-synthetic-data-policy"
        ],
        "agent": [
          {
            "type": {
              "text": "author"
            },
            "who": {
              "reference": "Device/e3287fda-7938-4053-8c36-f94b985b61ba"
            }
          }
        ],
        "reason": [
          {
            "text": "Interoperability Testing and Training (non-clinical use)"
          }
        ],
        "text": {
          "status": "generated",
          "div": "<div xmlns=\"http://www.w3.org/1999/xhtml\">Provenance for SYNDERAI Synthetic Example Data Resource</div>"
        },
        "recorded": "2018-06-29T11:30:39Z"
      }
    },
    {
      "fullUrl": "urn:uuid:84b9ffef-b8de-48c2-b270-53c4c69deade",
      "resource": {
        "resourceType": "PractitionerRole",
        "id": "84b9ffef-b8de-48c2-b270-53c4c69deade",
        "meta": {
          "profile": [
            "http://hl7.eu/fhir/base/StructureDefinition/practitionerRole-eu"
          ]
        },
        "text": {
          "status": "generated",
          "div": "<div xmlns=\"http://www.w3.org/1999/xhtml\">Laboratory Role Id: 84b9ffef-b8de-48c2-b270-53c4c69deade</div>"
        },
        "practitioner": {
          "reference": "urn:uuid:9e6f82ae-a885-42ff-a5f5-aed1d82012be"
        }
      }
    },
    {
      "fullUrl": "urn:uuid:9e6f82ae-a885-42ff-a5f5-aed1d82012be",
      "resource": {
        "resourceType": "Practitioner",
        "id": "9e6f82ae-a885-42ff-a5f5-aed1d82012be",
        "meta": {
          "profile": [
            "http://hl7.eu/fhir/base/StructureDefinition/practitioner-eu"
          ]
        },
        "identifier": [
          {
            "assigner": {
              "display": "HL7 Europe"
            },
            "system": "urn:oid:2.16.840.1.113883.2.51.999",
            "value": "9465a6e8-4cc5-4a3c-b028-daf645ceef46"
          }
        ],
        "name": [
          {
            "prefix": [
              "dr"
            ],
            "given": [
              "Ex"
            ],
            "family": "Ample"
          }
        ],
        "address": [
          {
            "line": [
              "Laboratoire Central Européenne",
              "Boulevard du Jardin Botanique 32"
            ],
            "postalCode": "1000",
            "city": "Brussels",
            "country": "Belgium"
          }
        ],
        "text": {
          "status": "generated",
          "div": "<div xmlns=\"http://www.w3.org/1999/xhtml\">Laboratory: Laboratoire Central Européenne, 1000 Brussels, Belgium</div>"
        }
      }
    }
  ],
  "type": "document",
  "timestamp": "2018-06-29T11:30:39Z"
}
