{
  "resourceType": "Bundle",
  "id": "842ac787-2bbf-495f-9c47-4ebadeb18aa5",
  "meta": {
    "profile": [
      "http://hl7.eu/fhir/laboratory/StructureDefinition/Bundle-eu-lab"
    ]
  },
  "identifier": {
    "assigner": {
      "display": "HL7 Europe"
    },
    "system": "urn:oid:2.16.840.1.113883.2.51.999",
    "value": "f118f603-466d-49ee-a5ed-e6731a557c87"
  },
  "entry": [
    {
      "fullUrl": "urn:uuid:c8b3afdd-9451-4d75-9641-c0bcc63b9486",
      "resource": {
        "resourceType": "Composition",
        "id": "c8b3afdd-9451-4d75-9641-c0bcc63b9486",
        "meta": {
          "profile": [
            "http://hl7.eu/fhir/laboratory/StructureDefinition/Composition-eu-lab"
          ]
        },
        "identifier": {
          "assigner": {
            "display": "HL7 Europe"
          },
          "system": "urn:oid:2.16.840.1.113883.2.51.999",
          "value": "e4bd63b3-801b-42aa-bd90-7a9883ede1fa"
        },
        "author": [
          {
            "reference": "urn:uuid:3405ea7e-b417-495a-855d-f44d8f8716a3"
          }
        ],
        "category": [
          {
            "coding": [
              {
                "code": "26436-6",
                "system": "http://loinc.org",
                "display": "Laboratory studies (set)"
              }
            ]
          }
        ],
        "type": {
          "coding": [
            {
              "code": "11502-2",
              "system": "http://loinc.org",
              "display": "Laboratory report"
            }
          ],
          "text": "Laboratory Report"
        },
        "section": [
          {
            "code": {
              "coding": [
                {
                  "code": "26436-6",
                  "system": "http://loinc.org",
                  "display": "Laboratory studies (set)"
                }
              ],
              "text": "Laboratory studies"
            },
            "section": [
              {
                "code": {
                  "coding": [
                    {
                      "code": "$18723-7",
                      "system": "http://loinc.org",
                      "display": "Hematology studies (set)"
                    }
                  ],
                  "text": "Hematology"
                },
                "entry": [
                  {
                    "reference": "urn:uuid:b6e71210-e089-49e6-b9a3-6cb5327889dc"
                  },
                  {
                    "reference": "urn:uuid:6778fba9-7865-4954-a162-e683fe457bf5"
                  },
                  {
                    "reference": "urn:uuid:dd04f88a-41bc-4c52-b155-240128e0b89b"
                  },
                  {
                    "reference": "urn:uuid:56f61b88-5351-4bdd-92ad-358d41c600f6"
                  },
                  {
                    "reference": "urn:uuid:b293b00f-c6b8-4ed8-904d-2e38ba4c793d"
                  },
                  {
                    "reference": "urn:uuid:dbee0373-7c54-4c8c-8e15-d5120cc5d613"
                  },
                  {
                    "reference": "urn:uuid:8391d631-5115-411c-8260-93705821a000"
                  },
                  {
                    "reference": "urn:uuid:352a2e7f-c644-44e2-817d-7a0cbc404e2c"
                  },
                  {
                    "reference": "urn:uuid:63f9565a-2b06-4cab-9120-a25be7c698e4"
                  },
                  {
                    "reference": "urn:uuid:42cf2ba3-b165-48ae-b699-80464f4fea65"
                  },
                  {
                    "reference": "urn:uuid:5d26c37e-acc6-4758-a193-95f685b665cd"
                  }
                ],
                "text": {
                  "status": "generated",
                  "div": "<div xmlns=\"http://www.w3.org/1999/xhtml\"><h3>Hematology</h3><table class=\"hl7__eu__lab__report\"><thead><tr><th>Test</th><th>07-JAN-2024</th><th>Reference&#xA0;Range</th><th>Unit</th></tr></thead><tbody><tr><td>Leukocytes [#/volume] in Blood by Automated count</td><td>3.6</td><td>3.4 - 10.6</td><td>10*3/uL</td></tr><tr><td>Erythrocytes [#/volume] in Blood by Automated count</td><td>4.5</td><td>4.2 - 6.2</td><td>10*6/uL</td></tr><tr><td>Hemoglobin [Mass/volume] in Blood</td><td><strong>13.1 L</strong></td><td>13.8 - 17.5</td><td>g/dL</td></tr><tr><td>Hematocrit [Volume Fraction] of Blood by Automated count</td><td>47.7</td><td>38 - 50</td><td>%</td></tr><tr><td>MCV [Entitic volume] by Automated count</td><td>94.3</td><td>76 - 98</td><td>fL</td></tr><tr><td>MCH [Entitic mass] by Automated count</td><td>27.5</td><td>27 - 34</td><td>pg</td></tr><tr><td>MCHC [Mass/volume] by Automated count</td><td>35.4</td><td>31 - 37</td><td>g/dL</td></tr><tr><td>Erythrocyte distribution width [Entitic volume] by Automated count</td><td>44.5</td><td>36 - 56</td><td>fL</td></tr><tr><td>Platelets [#/volume] in Blood by Automated count</td><td>293.3</td><td>150 - 363</td><td>10*3/uL</td></tr><tr><td>Platelet distribution width [Entitic volume] in Blood by Automated count</td><td><strong>366.9 H</strong></td><td>13.4 - 17.4</td><td>fL</td></tr><tr><td>Platelet mean volume [Entitic volume] in Blood by Automated count</td><td>9.7</td><td>7.2 - 13.5</td><td>fL</td></tr></tbody></table></div>"
                },
                "title": "Hematology"
              }
            ],
            "title": "Laboratory Report"
          },
          {
            "text": {
              "status": "generated",
              "div": "<div xmlns=\"http://www.w3.org/1999/xhtml\"><h3>Annotation</h3><table class=\"hl7__eu__lab__report\"><tr><th>Conclusion and Recommendations based on this report and previous findings known to us</th></tr><tr><td>The patient shows mild anemia (low hemoglobin) with otherwise normal red cell indices and counts. Leukocyte and platelet counts are within normal limits, but there is a markedly elevated platelet distribution width, which may indicate increased platelet size variability, possibly due to reactive or regenerative processes. No acute hematological abnormalities are evident; clinical correlation is recommended.</td></tr></table></div>"
            },
            "code": {
              "coding": [
                {
                  "system": "http://loinc.org",
                  "code": "48767-8",
                  "display": "Annotation comment"
                }
              ]
            },
            "title": "Annotation comment"
          }
        ],
        "status": "final",
        "subject": {
          "reference": "urn:uuid:52159441-41b6-4949-bab9-86248dd09e49",
          "display": "Gastone Farnese"
        },
        "date": "2024-01-07T00:10:08Z",
        "title": "Laboratory Report",
        "confidentiality": "N"
      }
    },
    {
      "fullUrl": "urn:uuid:dc1d6f09-7be2-46f1-b3a3-ffb252356e47",
      "resource": {
        "resourceType": "DiagnosticReport",
        "id": "dc1d6f09-7be2-46f1-b3a3-ffb252356e47",
        "meta": {
          "profile": [
            "http://hl7.eu/fhir/laboratory/StructureDefinition/DiagnosticReport-eu-lab"
          ]
        },
        "identifier": [
          {
            "assigner": {
              "display": "HL7 Europe"
            },
            "system": "urn:oid:2.16.840.1.113883.2.51.999",
            "value": "27d5c9c0-dd53-4cae-b8f4-d3b471b5b33a"
          }
        ],
        "extension": [
          {
            "url": "http://hl7.org/fhir/5.0/StructureDefinition/extension-DiagnosticReport.composition",
            "valueReference": {
              "reference": "urn:uuid:e4bd63b3-801b-42aa-bd90-7a9883ede1fa"
            }
          }
        ],
        "category": [
          {
            "coding": [
              {
                "code": "26436-6",
                "system": "http://loinc.org",
                "display": "Laboratory studies (set)"
              }
            ]
          }
        ],
        "specimen": [
          {
            "reference": "urn:uuid:b4349d6c-9c5f-4f58-8518-1064f14423a1"
          },
          {
            "reference": "urn:uuid:b4349d6c-9c5f-4f58-8518-1064f14423a1"
          }
        ],
        "result": [
          {
            "reference": "urn:uuid:b6e71210-e089-49e6-b9a3-6cb5327889dc"
          },
          {
            "reference": "urn:uuid:6778fba9-7865-4954-a162-e683fe457bf5"
          },
          {
            "reference": "urn:uuid:dd04f88a-41bc-4c52-b155-240128e0b89b"
          },
          {
            "reference": "urn:uuid:56f61b88-5351-4bdd-92ad-358d41c600f6"
          },
          {
            "reference": "urn:uuid:b293b00f-c6b8-4ed8-904d-2e38ba4c793d"
          },
          {
            "reference": "urn:uuid:dbee0373-7c54-4c8c-8e15-d5120cc5d613"
          },
          {
            "reference": "urn:uuid:8391d631-5115-411c-8260-93705821a000"
          },
          {
            "reference": "urn:uuid:352a2e7f-c644-44e2-817d-7a0cbc404e2c"
          },
          {
            "reference": "urn:uuid:63f9565a-2b06-4cab-9120-a25be7c698e4"
          },
          {
            "reference": "urn:uuid:42cf2ba3-b165-48ae-b699-80464f4fea65"
          },
          {
            "reference": "urn:uuid:5d26c37e-acc6-4758-a193-95f685b665cd"
          }
        ],
        "status": "registered",
        "code": {
          "coding": [
            {
              "code": "11502-2",
              "system": "http://loinc.org",
              "display": "Laboratory report"
            }
          ]
        },
        "subject": {
          "reference": "urn:uuid:52159441-41b6-4949-bab9-86248dd09e49",
          "display": "Gastone Farnese"
        }
      }
    },
    {
      "fullUrl": "urn:uuid:52159441-41b6-4949-bab9-86248dd09e49",
      "resource": {
        "resourceType": "Patient",
        "id": "52159441-41b6-4949-bab9-86248dd09e49",
        "meta": {
          "security": [
            {
              "system": "http://terminology.hl7.org/CodeSystem/v3-ActReason",
              "code": "HTEST"
            },
            {
              "system": "http://terminology.hl7.org/CodeSystem/v3-ActReason",
              "code": "TRAIN"
            }
          ],
          "tag": [
            {
              "system": "https://synderai.net/fhir/CodeSystem/tags",
              "code": "synthetic",
              "display": "SYNDERAI Synthetic data"
            }
          ],
          "profile": [
            "http://hl7.eu/fhir/base/StructureDefinition/patient-eu-core"
          ]
        },
        "identifier": [
          {
            "type": {
              "coding": [
                {
                  "code": "PT",
                  "system": "http://terminology.hl7.org/CodeSystem/v2-0203"
                }
              ]
            },
            "system": "http://ec.europa.eu/identifier/eci",
            "value": "9783-008691-0"
          },
          {
            "type": {
              "coding": [
                {
                  "code": "MR",
                  "system": "http://terminology.hl7.org/CodeSystem/v2-0203"
                }
              ]
            },
            "system": "http://local.setting.eu/identifier",
            "value": "3a83b0c2-9162-b4ed-57ec-07c0d12b05d8"
          }
        ],
        "name": [
          {
            "family": "Farnese"
          },
          {
            "given": [
              "Gastone"
            ]
          },
          {
            "text": "Gastone Farnese"
          }
        ],
        "address": [
          {
            "line": [
              "Rotonda Verdone, 9 Appartamento 6"
            ],
            "use": "home",
            "type": "physical",
            "postalCode": "35030",
            "city": "Galzignano Terme",
            "country": "Italy"
          }
        ],
        "telecom": [
          {
            "system": "phone",
            "value": "+39 350079040"
          }
        ],
        "extension": [
          {
            "url": "http://hl7.org/fhir/StructureDefinition/patient-nationality",
            "valueCodeableConcept": {
              "coding": [
                {
                  "code": "IT",
                  "system": "http://hl7.org/fhir/ValueSet/country"
                }
              ]
            }
          }
        ],
        "text": {
          "status": "generated",
          "div": "<div xmlns=\"http://www.w3.org/1999/xhtml\"><table class=\"hl7__ips\"><tr><td>Gastone Farnese</td><td>male</td><td>16-Apr-1939</td></tr></table></div>"
        },
        "gender": "male",
        "birthDate": "1939-04-16"
      }
    },
    {
      "fullUrl": "urn:uuid:312798fe-9ff8-4937-803b-9163563d8e95",
      "resource": {
        "resourceType": "ServiceRequest",
        "id": "312798fe-9ff8-4937-803b-9163563d8e95",
        "meta": {
          "profile": [
            "http://hl7.eu/fhir/laboratory/StructureDefinition/ServiceRequest-eu-lab"
          ]
        },
        "identifier": [
          {
            "system": "http://example.org",
            "value": "b787e435-61b3-4d9e-a910-04ddccf80b87"
          }
        ],
        "specimen": [
          {
            "reference": "urn:uuid:b4349d6c-9c5f-4f58-8518-1064f14423a1"
          }
        ],
        "reasonCode": [
          {
            "coding": [
              {
                "code": "414545008",
                "system": "http://snomed.info/sct",
                "display": "Ischemic heart disease"
              }
            ]
          }
        ],
        "status": "active",
        "intent": "order",
        "code": {
          "coding": [
            {
              "code": "108252007",
              "system": "http://snomed.info/sct",
              "display": "Laboratory procedure"
            }
          ]
        },
        "subject": {
          "reference": "urn:uuid:52159441-41b6-4949-bab9-86248dd09e49",
          "display": "Gastone Farnese"
        },
        "requester": {
          "reference": "urn:uuid:01a4fdd1-756d-4c48-b4d8-a0217c3d93cf"
        }
      }
    },
    {
      "fullUrl": "urn:uuid:01a4fdd1-756d-4c48-b4d8-a0217c3d93cf",
      "resource": {
        "resourceType": "PractitionerRole",
        "id": "01a4fdd1-756d-4c48-b4d8-a0217c3d93cf",
        "meta": {
          "profile": [
            "http://hl7.eu/fhir/base/StructureDefinition/practitionerRole-eu"
          ]
        },
        "text": {
          "status": "generated",
          "div": "<div xmlns=\"http://www.w3.org/1999/xhtml\">Provider Role Id: 01a4fdd1-756d-4c48-b4d8-a0217c3d93cf</div>"
        },
        "organization": {
          "reference": "urn:uuid:dda7fd86-dbd7-4e78-a031-1360f4ef4895"
        }
      }
    },
    {
      "fullUrl": "urn:uuid:dda7fd86-dbd7-4e78-a031-1360f4ef4895",
      "resource": {
        "resourceType": "Organization",
        "id": "dda7fd86-dbd7-4e78-a031-1360f4ef4895",
        "meta": {
          "profile": [
            "http://hl7.eu/fhir/base/StructureDefinition/organization-eu"
          ]
        },
        "identifier": [
          {
            "assigner": {
              "display": "HL7 Europe"
            },
            "system": "urn:oid:2.16.840.1.113883.2.51.999",
            "value": "458877b5-004c-4679-9746-05fe8a77ef1b"
          }
        ],
        "address": [
          {
            "line": [
              "Via Albere nan"
            ],
            "city": "Este",
            "postalCode": "35042",
            "country": "Italy"
          }
        ],
        "text": {
          "status": "generated",
          "div": "<div xmlns=\"http://www.w3.org/1999/xhtml\">Provider Organization: Ospedali Riuniti Padova Sud &quot;Madre Teresa di Calcutta&quot;</div>"
        },
        "name": "Ospedali Riuniti Padova Sud &quot;Madre Teresa di Calcutta&quot;"
      }
    },
    {
      "fullUrl": "urn:uuid:b4349d6c-9c5f-4f58-8518-1064f14423a1",
      "resource": {
        "resourceType": "Specimen",
        "id": "b4349d6c-9c5f-4f58-8518-1064f14423a1",
        "meta": {
          "profile": [
            "http://hl7.eu/fhir/laboratory/StructureDefinition/Specimen-eu-lab"
          ]
        },
        "collection": {
          "collectedDateTime": "2024-01-06"
        },
        "text": {
          "status": "generated",
          "div": "<div xmlns=\"http://www.w3.org/1999/xhtml\"><table class=\"hl7__eu__lab__report\"><tr><th>Specimen</th><th>Collection Date</th></tr><tr><td>Whole blood specimen (specimen)</td><td><span class=\"nb\">06-Jan-2024</span></td></tr></table></div>"
        },
        "type": {
          "coding": [
            {
              "code": "258580003",
              "system": "http://snomed.info/sct",
              "display": "Whole blood specimen (specimen)"
            }
          ]
        }
      }
    },
    {
      "fullUrl": "urn:uuid:b4349d6c-9c5f-4f58-8518-1064f14423a1",
      "resource": {
        "resourceType": "Specimen",
        "id": "b4349d6c-9c5f-4f58-8518-1064f14423a1",
        "meta": {
          "profile": [
            "http://hl7.eu/fhir/laboratory/StructureDefinition/Specimen-eu-lab"
          ]
        },
        "collection": {
          "collectedDateTime": "2024-01-06"
        },
        "text": {
          "status": "generated",
          "div": "<div xmlns=\"http://www.w3.org/1999/xhtml\"><table class=\"hl7__eu__lab__report\"><tr><th>Specimen</th><th>Collection Date</th></tr><tr><td>Whole blood specimen (specimen)</td><td><span class=\"nb\">06-Jan-2024</span></td></tr></table></div>"
        },
        "type": {
          "coding": [
            {
              "code": "258580003",
              "system": "http://snomed.info/sct",
              "display": "Whole blood specimen (specimen)"
            }
          ]
        }
      }
    },
    {
      "fullUrl": "urn:uuid:b6e71210-e089-49e6-b9a3-6cb5327889dc",
      "resource": {
        "resourceType": "Observation",
        "id": "b6e71210-e089-49e6-b9a3-6cb5327889dc",
        "meta": {
          "profile": [
            "http://hl7.eu/fhir/laboratory/StructureDefinition/Observation-resultslab-eu-lab"
          ]
        },
        "performer": [
          {
            "display": "The Central European Lab"
          }
        ],
        "category": [
          {
            "coding": [
              {
                "system": "http://terminology.hl7.org/CodeSystem/observation-category",
                "code": "laboratory"
              }
            ]
          }
        ],
        "code": {
          "coding": [
            {
              "code": "6690-2",
              "system": "http://loinc.org",
              "display": "Leukocytes [#/volume] in Blood by Automated count"
            }
          ],
          "text": "Leukocytes [#/volume] in Blood by Automated count"
        },
        "valueQuantity": {
          "system": "http://unitsofmeasure.org",
          "value": 3.6,
          "unit": "10*3/uL",
          "code": "10*3/uL"
        },
        "referenceRange": [
          {
            "low": {
              "value": 3.4,
              "code": "10*3/uL",
              "system": "http://unitsofmeasure.org"
            }
          },
          {
            "high": {
              "value": 10.6,
              "code": "10*3/uL",
              "system": "http://unitsofmeasure.org"
            }
          }
        ],
        "text": {
          "status": "generated",
          "div": "<div xmlns=\"http://www.w3.org/1999/xhtml\"><table class=\"hl7__eu__lab__report\"><tr><th>Test</th><th>07-Jan-2024</th><th>Reference&#xA0;Range</th><th>Unit</th></tr><tr><td>Leukocytes [#/volume] in Blood by Automated count</td><td>3.6</td><td>3.4 - 10.6</td><td></td><td>10*3/uL</td></tr></table></div>"
        },
        "status": "final",
        "subject": {
          "reference": "urn:uuid:52159441-41b6-4949-bab9-86248dd09e49",
          "display": "Gastone Farnese"
        },
        "effectiveDateTime": "2024-01-06T23:10:08Z",
        "specimen": {
          "reference": "urn:uuid:b4349d6c-9c5f-4f58-8518-1064f14423a1"
        }
      }
    },
    {
      "fullUrl": "urn:uuid:6778fba9-7865-4954-a162-e683fe457bf5",
      "resource": {
        "resourceType": "Observation",
        "id": "6778fba9-7865-4954-a162-e683fe457bf5",
        "meta": {
          "profile": [
            "http://hl7.eu/fhir/laboratory/StructureDefinition/Observation-resultslab-eu-lab"
          ]
        },
        "performer": [
          {
            "display": "The Central European Lab"
          }
        ],
        "category": [
          {
            "coding": [
              {
                "system": "http://terminology.hl7.org/CodeSystem/observation-category",
                "code": "laboratory"
              }
            ]
          }
        ],
        "code": {
          "coding": [
            {
              "code": "789-8",
              "system": "http://loinc.org",
              "display": "Erythrocytes [#/volume] in Blood by Automated count"
            }
          ],
          "text": "Erythrocytes [#/volume] in Blood by Automated count"
        },
        "valueQuantity": {
          "system": "http://unitsofmeasure.org",
          "value": 4.5,
          "unit": "10*6/uL",
          "code": "10*6/uL"
        },
        "referenceRange": [
          {
            "low": {
              "value": 4.2,
              "code": "10*6/uL",
              "system": "http://unitsofmeasure.org"
            }
          },
          {
            "high": {
              "value": 6.2,
              "code": "10*6/uL",
              "system": "http://unitsofmeasure.org"
            }
          }
        ],
        "text": {
          "status": "generated",
          "div": "<div xmlns=\"http://www.w3.org/1999/xhtml\"><table class=\"hl7__eu__lab__report\"><tr><th>Test</th><th>07-Jan-2024</th><th>Reference&#xA0;Range</th><th>Unit</th></tr><tr><td>Erythrocytes [#/volume] in Blood by Automated count</td><td>4.5</td><td>4.2 - 6.2</td><td></td><td>10*6/uL</td></tr></table></div>"
        },
        "status": "final",
        "subject": {
          "reference": "urn:uuid:52159441-41b6-4949-bab9-86248dd09e49",
          "display": "Gastone Farnese"
        },
        "effectiveDateTime": "2024-01-06T23:10:08Z",
        "specimen": {
          "reference": "urn:uuid:b4349d6c-9c5f-4f58-8518-1064f14423a1"
        }
      }
    },
    {
      "fullUrl": "urn:uuid:dd04f88a-41bc-4c52-b155-240128e0b89b",
      "resource": {
        "resourceType": "Observation",
        "id": "dd04f88a-41bc-4c52-b155-240128e0b89b",
        "meta": {
          "profile": [
            "http://hl7.eu/fhir/laboratory/StructureDefinition/Observation-resultslab-eu-lab"
          ]
        },
        "performer": [
          {
            "display": "The Central European Lab"
          }
        ],
        "category": [
          {
            "coding": [
              {
                "system": "http://terminology.hl7.org/CodeSystem/observation-category",
                "code": "laboratory"
              }
            ]
          }
        ],
        "code": {
          "coding": [
            {
              "code": "718-7",
              "system": "http://loinc.org",
              "display": "Hemoglobin [Mass/volume] in Blood"
            }
          ],
          "text": "Hemoglobin [Mass/volume] in Blood"
        },
        "valueQuantity": {
          "system": "http://unitsofmeasure.org",
          "value": 13.1,
          "unit": "g/dL",
          "code": "g/dL"
        },
        "referenceRange": [
          {
            "low": {
              "value": 13.8,
              "code": "g/dL",
              "system": "http://unitsofmeasure.org"
            }
          },
          {
            "high": {
              "value": 17.5,
              "code": "g/dL",
              "system": "http://unitsofmeasure.org"
            }
          }
        ],
        "interpretation": [
          {
            "coding": [
              {
                "code": "L",
                "system": "http://terminology.hl7.org/CodeSystem/v3-ObservationInterpretation",
                "display": "Low"
              }
            ]
          }
        ],
        "text": {
          "status": "generated",
          "div": "<div xmlns=\"http://www.w3.org/1999/xhtml\"><table class=\"hl7__eu__lab__report\"><tr><th>Test</th><th>07-Jan-2024</th><th>Reference&#xA0;Range</th><th>Unit</th></tr><tr><td>Hemoglobin [Mass/volume] in Blood</td><td>13.1</td><td>13.8 - 17.5</td><td>L</td><td>g/dL</td></tr></table></div>"
        },
        "status": "final",
        "subject": {
          "reference": "urn:uuid:52159441-41b6-4949-bab9-86248dd09e49",
          "display": "Gastone Farnese"
        },
        "effectiveDateTime": "2024-01-06T23:10:08Z",
        "specimen": {
          "reference": "urn:uuid:b4349d6c-9c5f-4f58-8518-1064f14423a1"
        }
      }
    },
    {
      "fullUrl": "urn:uuid:56f61b88-5351-4bdd-92ad-358d41c600f6",
      "resource": {
        "resourceType": "Observation",
        "id": "56f61b88-5351-4bdd-92ad-358d41c600f6",
        "meta": {
          "profile": [
            "http://hl7.eu/fhir/laboratory/StructureDefinition/Observation-resultslab-eu-lab"
          ]
        },
        "performer": [
          {
            "display": "The Central European Lab"
          }
        ],
        "category": [
          {
            "coding": [
              {
                "system": "http://terminology.hl7.org/CodeSystem/observation-category",
                "code": "laboratory"
              }
            ]
          }
        ],
        "code": {
          "coding": [
            {
              "code": "4544-3",
              "system": "http://loinc.org",
              "display": "Hematocrit [Volume Fraction] of Blood by Automated count"
            }
          ],
          "text": "Hematocrit [Volume Fraction] of Blood by Automated count"
        },
        "valueQuantity": {
          "system": "http://unitsofmeasure.org",
          "value": 47.7,
          "unit": "%",
          "code": "%"
        },
        "referenceRange": [
          {
            "low": {
              "value": 38,
              "code": "%",
              "system": "http://unitsofmeasure.org"
            }
          },
          {
            "high": {
              "value": 50,
              "code": "%",
              "system": "http://unitsofmeasure.org"
            }
          }
        ],
        "text": {
          "status": "generated",
          "div": "<div xmlns=\"http://www.w3.org/1999/xhtml\"><table class=\"hl7__eu__lab__report\"><tr><th>Test</th><th>07-Jan-2024</th><th>Reference&#xA0;Range</th><th>Unit</th></tr><tr><td>Hematocrit [Volume Fraction] of Blood by Automated count</td><td>47.7</td><td>38 - 50</td><td></td><td>%</td></tr></table></div>"
        },
        "status": "final",
        "subject": {
          "reference": "urn:uuid:52159441-41b6-4949-bab9-86248dd09e49",
          "display": "Gastone Farnese"
        },
        "effectiveDateTime": "2024-01-06T23:10:08Z",
        "specimen": {
          "reference": "urn:uuid:b4349d6c-9c5f-4f58-8518-1064f14423a1"
        }
      }
    },
    {
      "fullUrl": "urn:uuid:b293b00f-c6b8-4ed8-904d-2e38ba4c793d",
      "resource": {
        "resourceType": "Observation",
        "id": "b293b00f-c6b8-4ed8-904d-2e38ba4c793d",
        "meta": {
          "profile": [
            "http://hl7.eu/fhir/laboratory/StructureDefinition/Observation-resultslab-eu-lab"
          ]
        },
        "performer": [
          {
            "display": "The Central European Lab"
          }
        ],
        "category": [
          {
            "coding": [
              {
                "system": "http://terminology.hl7.org/CodeSystem/observation-category",
                "code": "laboratory"
              }
            ]
          }
        ],
        "code": {
          "coding": [
            {
              "code": "787-2",
              "system": "http://loinc.org",
              "display": "MCV [Entitic volume] by Automated count"
            }
          ],
          "text": "MCV [Entitic volume] by Automated count"
        },
        "valueQuantity": {
          "system": "http://unitsofmeasure.org",
          "value": 94.3,
          "unit": "fL",
          "code": "fL"
        },
        "referenceRange": [
          {
            "low": {
              "value": 76,
              "code": "fL",
              "system": "http://unitsofmeasure.org"
            }
          },
          {
            "high": {
              "value": 98,
              "code": "fL",
              "system": "http://unitsofmeasure.org"
            }
          }
        ],
        "text": {
          "status": "generated",
          "div": "<div xmlns=\"http://www.w3.org/1999/xhtml\"><table class=\"hl7__eu__lab__report\"><tr><th>Test</th><th>07-Jan-2024</th><th>Reference&#xA0;Range</th><th>Unit</th></tr><tr><td>MCV [Entitic volume] by Automated count</td><td>94.3</td><td>76 - 98</td><td></td><td>fL</td></tr></table></div>"
        },
        "status": "final",
        "subject": {
          "reference": "urn:uuid:52159441-41b6-4949-bab9-86248dd09e49",
          "display": "Gastone Farnese"
        },
        "effectiveDateTime": "2024-01-06T23:10:08Z",
        "specimen": {
          "reference": "urn:uuid:b4349d6c-9c5f-4f58-8518-1064f14423a1"
        }
      }
    },
    {
      "fullUrl": "urn:uuid:dbee0373-7c54-4c8c-8e15-d5120cc5d613",
      "resource": {
        "resourceType": "Observation",
        "id": "dbee0373-7c54-4c8c-8e15-d5120cc5d613",
        "meta": {
          "profile": [
            "http://hl7.eu/fhir/laboratory/StructureDefinition/Observation-resultslab-eu-lab"
          ]
        },
        "performer": [
          {
            "display": "The Central European Lab"
          }
        ],
        "category": [
          {
            "coding": [
              {
                "system": "http://terminology.hl7.org/CodeSystem/observation-category",
                "code": "laboratory"
              }
            ]
          }
        ],
        "code": {
          "coding": [
            {
              "code": "785-6",
              "system": "http://loinc.org",
              "display": "MCH [Entitic mass] by Automated count"
            }
          ],
          "text": "MCH [Entitic mass] by Automated count"
        },
        "valueQuantity": {
          "system": "http://unitsofmeasure.org",
          "value": 27.5,
          "unit": "pg",
          "code": "pg"
        },
        "referenceRange": [
          {
            "low": {
              "value": 27,
              "code": "pg",
              "system": "http://unitsofmeasure.org"
            }
          },
          {
            "high": {
              "value": 34,
              "code": "pg",
              "system": "http://unitsofmeasure.org"
            }
          }
        ],
        "text": {
          "status": "generated",
          "div": "<div xmlns=\"http://www.w3.org/1999/xhtml\"><table class=\"hl7__eu__lab__report\"><tr><th>Test</th><th>07-Jan-2024</th><th>Reference&#xA0;Range</th><th>Unit</th></tr><tr><td>MCH [Entitic mass] by Automated count</td><td>27.5</td><td>27 - 34</td><td></td><td>pg</td></tr></table></div>"
        },
        "status": "final",
        "subject": {
          "reference": "urn:uuid:52159441-41b6-4949-bab9-86248dd09e49",
          "display": "Gastone Farnese"
        },
        "effectiveDateTime": "2024-01-06T23:10:08Z",
        "specimen": {
          "reference": "urn:uuid:b4349d6c-9c5f-4f58-8518-1064f14423a1"
        }
      }
    },
    {
      "fullUrl": "urn:uuid:8391d631-5115-411c-8260-93705821a000",
      "resource": {
        "resourceType": "Observation",
        "id": "8391d631-5115-411c-8260-93705821a000",
        "meta": {
          "profile": [
            "http://hl7.eu/fhir/laboratory/StructureDefinition/Observation-resultslab-eu-lab"
          ]
        },
        "performer": [
          {
            "display": "The Central European Lab"
          }
        ],
        "category": [
          {
            "coding": [
              {
                "system": "http://terminology.hl7.org/CodeSystem/observation-category",
                "code": "laboratory"
              }
            ]
          }
        ],
        "code": {
          "coding": [
            {
              "code": "786-4",
              "system": "http://loinc.org",
              "display": "MCHC [Mass/volume] by Automated count"
            }
          ],
          "text": "MCHC [Mass/volume] by Automated count"
        },
        "valueQuantity": {
          "system": "http://unitsofmeasure.org",
          "value": 35.4,
          "unit": "g/dL",
          "code": "g/dL"
        },
        "referenceRange": [
          {
            "low": {
              "value": 31,
              "code": "g/dL",
              "system": "http://unitsofmeasure.org"
            }
          },
          {
            "high": {
              "value": 37,
              "code": "g/dL",
              "system": "http://unitsofmeasure.org"
            }
          }
        ],
        "text": {
          "status": "generated",
          "div": "<div xmlns=\"http://www.w3.org/1999/xhtml\"><table class=\"hl7__eu__lab__report\"><tr><th>Test</th><th>07-Jan-2024</th><th>Reference&#xA0;Range</th><th>Unit</th></tr><tr><td>MCHC [Mass/volume] by Automated count</td><td>35.4</td><td>31 - 37</td><td></td><td>g/dL</td></tr></table></div>"
        },
        "status": "final",
        "subject": {
          "reference": "urn:uuid:52159441-41b6-4949-bab9-86248dd09e49",
          "display": "Gastone Farnese"
        },
        "effectiveDateTime": "2024-01-06T23:10:08Z",
        "specimen": {
          "reference": "urn:uuid:b4349d6c-9c5f-4f58-8518-1064f14423a1"
        }
      }
    },
    {
      "fullUrl": "urn:uuid:352a2e7f-c644-44e2-817d-7a0cbc404e2c",
      "resource": {
        "resourceType": "Observation",
        "id": "352a2e7f-c644-44e2-817d-7a0cbc404e2c",
        "meta": {
          "profile": [
            "http://hl7.eu/fhir/laboratory/StructureDefinition/Observation-resultslab-eu-lab"
          ]
        },
        "performer": [
          {
            "display": "The Central European Lab"
          }
        ],
        "category": [
          {
            "coding": [
              {
                "system": "http://terminology.hl7.org/CodeSystem/observation-category",
                "code": "laboratory"
              }
            ]
          }
        ],
        "code": {
          "coding": [
            {
              "code": "21000-5",
              "system": "http://loinc.org",
              "display": "Erythrocyte distribution width [Entitic volume] by Automated count"
            }
          ],
          "text": "Erythrocyte distribution width [Entitic volume] by Automated count"
        },
        "valueQuantity": {
          "system": "http://unitsofmeasure.org",
          "value": 44.5,
          "unit": "fL",
          "code": "fL"
        },
        "referenceRange": [
          {
            "low": {
              "value": 36,
              "code": "fL",
              "system": "http://unitsofmeasure.org"
            }
          },
          {
            "high": {
              "value": 56,
              "code": "fL",
              "system": "http://unitsofmeasure.org"
            }
          }
        ],
        "text": {
          "status": "generated",
          "div": "<div xmlns=\"http://www.w3.org/1999/xhtml\"><table class=\"hl7__eu__lab__report\"><tr><th>Test</th><th>07-Jan-2024</th><th>Reference&#xA0;Range</th><th>Unit</th></tr><tr><td>Erythrocyte distribution width [Entitic volume] by Automated count</td><td>44.5</td><td>36 - 56</td><td></td><td>fL</td></tr></table></div>"
        },
        "status": "final",
        "subject": {
          "reference": "urn:uuid:52159441-41b6-4949-bab9-86248dd09e49",
          "display": "Gastone Farnese"
        },
        "effectiveDateTime": "2024-01-06T23:10:08Z",
        "specimen": {
          "reference": "urn:uuid:b4349d6c-9c5f-4f58-8518-1064f14423a1"
        }
      }
    },
    {
      "fullUrl": "urn:uuid:63f9565a-2b06-4cab-9120-a25be7c698e4",
      "resource": {
        "resourceType": "Observation",
        "id": "63f9565a-2b06-4cab-9120-a25be7c698e4",
        "meta": {
          "profile": [
            "http://hl7.eu/fhir/laboratory/StructureDefinition/Observation-resultslab-eu-lab"
          ]
        },
        "performer": [
          {
            "display": "The Central European Lab"
          }
        ],
        "category": [
          {
            "coding": [
              {
                "system": "http://terminology.hl7.org/CodeSystem/observation-category",
                "code": "laboratory"
              }
            ]
          }
        ],
        "code": {
          "coding": [
            {
              "code": "777-3",
              "system": "http://loinc.org",
              "display": "Platelets [#/volume] in Blood by Automated count"
            }
          ],
          "text": "Platelets [#/volume] in Blood by Automated count"
        },
        "valueQuantity": {
          "system": "http://unitsofmeasure.org",
          "value": 293.3,
          "unit": "10*3/uL",
          "code": "10*3/uL"
        },
        "referenceRange": [
          {
            "low": {
              "value": 150,
              "code": "10*3/uL",
              "system": "http://unitsofmeasure.org"
            }
          },
          {
            "high": {
              "value": 363,
              "code": "10*3/uL",
              "system": "http://unitsofmeasure.org"
            }
          }
        ],
        "text": {
          "status": "generated",
          "div": "<div xmlns=\"http://www.w3.org/1999/xhtml\"><table class=\"hl7__eu__lab__report\"><tr><th>Test</th><th>07-Jan-2024</th><th>Reference&#xA0;Range</th><th>Unit</th></tr><tr><td>Platelets [#/volume] in Blood by Automated count</td><td>293.3</td><td>150 - 363</td><td></td><td>10*3/uL</td></tr></table></div>"
        },
        "status": "final",
        "subject": {
          "reference": "urn:uuid:52159441-41b6-4949-bab9-86248dd09e49",
          "display": "Gastone Farnese"
        },
        "effectiveDateTime": "2024-01-06T23:10:08Z",
        "specimen": {
          "reference": "urn:uuid:b4349d6c-9c5f-4f58-8518-1064f14423a1"
        }
      }
    },
    {
      "fullUrl": "urn:uuid:42cf2ba3-b165-48ae-b699-80464f4fea65",
      "resource": {
        "resourceType": "Observation",
        "id": "42cf2ba3-b165-48ae-b699-80464f4fea65",
        "meta": {
          "profile": [
            "http://hl7.eu/fhir/laboratory/StructureDefinition/Observation-resultslab-eu-lab"
          ]
        },
        "performer": [
          {
            "display": "The Central European Lab"
          }
        ],
        "category": [
          {
            "coding": [
              {
                "system": "http://terminology.hl7.org/CodeSystem/observation-category",
                "code": "laboratory"
              }
            ]
          }
        ],
        "code": {
          "coding": [
            {
              "code": "32207-3",
              "system": "http://loinc.org",
              "display": "Platelet distribution width [Entitic volume] in Blood by Automated count"
            }
          ],
          "text": "Platelet distribution width [Entitic volume] in Blood by Automated count"
        },
        "valueQuantity": {
          "system": "http://unitsofmeasure.org",
          "value": 366.9,
          "unit": "fL",
          "code": "fL"
        },
        "referenceRange": [
          {
            "low": {
              "value": 13.4,
              "code": "fL",
              "system": "http://unitsofmeasure.org"
            }
          },
          {
            "high": {
              "value": 17.4,
              "code": "fL",
              "system": "http://unitsofmeasure.org"
            }
          }
        ],
        "interpretation": [
          {
            "coding": [
              {
                "code": "H",
                "system": "http://terminology.hl7.org/CodeSystem/v3-ObservationInterpretation",
                "display": "High"
              }
            ]
          }
        ],
        "text": {
          "status": "generated",
          "div": "<div xmlns=\"http://www.w3.org/1999/xhtml\"><table class=\"hl7__eu__lab__report\"><tr><th>Test</th><th>07-Jan-2024</th><th>Reference&#xA0;Range</th><th>Unit</th></tr><tr><td>Platelet distribution width [Entitic volume] in Blood by Automated count</td><td>366.9</td><td>13.4 - 17.4</td><td>H</td><td>fL</td></tr></table></div>"
        },
        "status": "final",
        "subject": {
          "reference": "urn:uuid:52159441-41b6-4949-bab9-86248dd09e49",
          "display": "Gastone Farnese"
        },
        "effectiveDateTime": "2024-01-06T23:10:08Z",
        "specimen": {
          "reference": "urn:uuid:b4349d6c-9c5f-4f58-8518-1064f14423a1"
        }
      }
    },
    {
      "fullUrl": "urn:uuid:5d26c37e-acc6-4758-a193-95f685b665cd",
      "resource": {
        "resourceType": "Observation",
        "id": "5d26c37e-acc6-4758-a193-95f685b665cd",
        "meta": {
          "profile": [
            "http://hl7.eu/fhir/laboratory/StructureDefinition/Observation-resultslab-eu-lab"
          ]
        },
        "performer": [
          {
            "display": "The Central European Lab"
          }
        ],
        "category": [
          {
            "coding": [
              {
                "system": "http://terminology.hl7.org/CodeSystem/observation-category",
                "code": "laboratory"
              }
            ]
          }
        ],
        "code": {
          "coding": [
            {
              "code": "32623-1",
              "system": "http://loinc.org",
              "display": "Platelet mean volume [Entitic volume] in Blood by Automated count"
            }
          ],
          "text": "Platelet mean volume [Entitic volume] in Blood by Automated count"
        },
        "valueQuantity": {
          "system": "http://unitsofmeasure.org",
          "value": 9.7,
          "unit": "fL",
          "code": "fL"
        },
        "referenceRange": [
          {
            "low": {
              "value": 7.2,
              "code": "fL",
              "system": "http://unitsofmeasure.org"
            }
          },
          {
            "high": {
              "value": 13.5,
              "code": "fL",
              "system": "http://unitsofmeasure.org"
            }
          }
        ],
        "text": {
          "status": "generated",
          "div": "<div xmlns=\"http://www.w3.org/1999/xhtml\"><table class=\"hl7__eu__lab__report\"><tr><th>Test</th><th>07-Jan-2024</th><th>Reference&#xA0;Range</th><th>Unit</th></tr><tr><td>Platelet mean volume [Entitic volume] in Blood by Automated count</td><td>9.7</td><td>7.2 - 13.5</td><td></td><td>fL</td></tr></table></div>"
        },
        "status": "final",
        "subject": {
          "reference": "urn:uuid:52159441-41b6-4949-bab9-86248dd09e49",
          "display": "Gastone Farnese"
        },
        "effectiveDateTime": "2024-01-06T23:10:08Z",
        "specimen": {
          "reference": "urn:uuid:b4349d6c-9c5f-4f58-8518-1064f14423a1"
        }
      }
    },
    {
      "fullUrl": "urn:uuid:a7716e24-5915-47ba-90e0-436ed3f708a6",
      "resource": {
        "resourceType": "Device",
        "id": "a7716e24-5915-47ba-90e0-436ed3f708a6",
        "deviceName": [
          {
            "name": "SYNDERAI Synthetic Generator",
            "type": "manufacturer-name"
          }
        ],
        "version": [
          {
            "value": "5.0"
          }
        ],
        "text": {
          "status": "generated",
          "div": "<div xmlns=\"http://www.w3.org/1999/xhtml\">SYNDERAI Synthetic Generator v5.0</div>"
        },
        "status": "active\"",
        "distinctIdentifier": "synderai-generator-50",
        "manufacturer": "SYNDERAI Project"
      }
    },
    {
      "fullUrl": "urn:uuid:6d43a3e0-9332-44c2-86d5-4f87231dd445",
      "resource": {
        "resourceType": "Provenance",
        "id": "6d43a3e0-9332-44c2-86d5-4f87231dd445",
        "target": [
          {
            "reference": "Patient/52159441-41b6-4949-bab9-86248dd09e49"
          },
          {
            "reference": "Bundle/842ac787-2bbf-495f-9c47-4ebadeb18aa5"
          },
          {
            "reference": "Composition/c8b3afdd-9451-4d75-9641-c0bcc63b9486"
          },
          {
            "reference": "PractitionerRole/3405ea7e-b417-495a-855d-f44d8f8716a3"
          },
          {
            "reference": "Practitioner/7039c4ae-503b-4858-8d44-951ff36dc133"
          },
          {
            "reference": "PractitionerRole/01a4fdd1-756d-4c48-b4d8-a0217c3d93cf"
          },
          {
            "reference": "Organization/dda7fd86-dbd7-4e78-a031-1360f4ef4895"
          }
        ],
        "activity": {
          "text": "Synthetic Example Data Generation"
        },
        "policy": [
          "https://synderai.net/synderai-synthetic-data-policy"
        ],
        "agent": [
          {
            "type": {
              "text": "author"
            },
            "who": {
              "reference": "Device/a7716e24-5915-47ba-90e0-436ed3f708a6"
            }
          }
        ],
        "reason": [
          {
            "text": "Interoperability Testing and Training (non-clinical use)"
          }
        ],
        "text": {
          "status": "generated",
          "div": "<div xmlns=\"http://www.w3.org/1999/xhtml\">Provenance for SYNDERAI Synthetic Example Data Resource</div>"
        },
        "recorded": "2024-01-07T00:10:08Z"
      }
    },
    {
      "fullUrl": "urn:uuid:3405ea7e-b417-495a-855d-f44d8f8716a3",
      "resource": {
        "resourceType": "PractitionerRole",
        "id": "3405ea7e-b417-495a-855d-f44d8f8716a3",
        "meta": {
          "profile": [
            "http://hl7.eu/fhir/base/StructureDefinition/practitionerRole-eu"
          ]
        },
        "text": {
          "status": "generated",
          "div": "<div xmlns=\"http://www.w3.org/1999/xhtml\">Laboratory Role Id: 3405ea7e-b417-495a-855d-f44d8f8716a3</div>"
        },
        "practitioner": {
          "reference": "urn:uuid:7039c4ae-503b-4858-8d44-951ff36dc133"
        }
      }
    },
    {
      "fullUrl": "urn:uuid:7039c4ae-503b-4858-8d44-951ff36dc133",
      "resource": {
        "resourceType": "Practitioner",
        "id": "7039c4ae-503b-4858-8d44-951ff36dc133",
        "meta": {
          "profile": [
            "http://hl7.eu/fhir/base/StructureDefinition/practitioner-eu"
          ]
        },
        "identifier": [
          {
            "assigner": {
              "display": "HL7 Europe"
            },
            "system": "urn:oid:2.16.840.1.113883.2.51.999",
            "value": "5c08947d-53bb-437d-87cd-edbca73cc252"
          }
        ],
        "name": [
          {
            "prefix": [
              "dr"
            ],
            "given": [
              "Ex"
            ],
            "family": "Ample"
          }
        ],
        "address": [
          {
            "line": [
              "Laboratoire Central Européenne",
              "Boulevard du Jardin Botanique 32"
            ],
            "postalCode": "1000",
            "city": "Brussels",
            "country": "Belgium"
          }
        ],
        "text": {
          "status": "generated",
          "div": "<div xmlns=\"http://www.w3.org/1999/xhtml\">Laboratory: Laboratoire Central Européenne, 1000 Brussels, Belgium</div>"
        }
      }
    }
  ],
  "type": "document",
  "timestamp": "2024-01-07T00:10:08Z"
}
