{
  "resourceType": "Bundle",
  "id": "b0c897ab-a578-4657-be0c-105da9985214",
  "meta": {
    "profile": [
      "http://hl7.eu/fhir/laboratory/StructureDefinition/Bundle-eu-lab"
    ]
  },
  "identifier": {
    "assigner": {
      "display": "HL7 Europe"
    },
    "system": "urn:oid:2.16.840.1.113883.2.51.999",
    "value": "a933965d-c84f-493d-89bd-a7a19e45bd75"
  },
  "entry": [
    {
      "fullUrl": "urn:uuid:f3bef3a1-8f48-4553-8b83-1cd5bcb1f9fc",
      "resource": {
        "resourceType": "Composition",
        "id": "f3bef3a1-8f48-4553-8b83-1cd5bcb1f9fc",
        "meta": {
          "profile": [
            "http://hl7.eu/fhir/laboratory/StructureDefinition/Composition-eu-lab"
          ]
        },
        "identifier": {
          "assigner": {
            "display": "HL7 Europe"
          },
          "system": "urn:oid:2.16.840.1.113883.2.51.999",
          "value": "08d7c0da-2043-482d-a777-6fdb592953f9"
        },
        "author": [
          {
            "reference": "urn:uuid:f1573ab5-ec1a-4858-9230-709bcb05ac0b"
          }
        ],
        "category": [
          {
            "coding": [
              {
                "code": "26436-6",
                "system": "http://loinc.org",
                "display": "Laboratory studies (set)"
              }
            ]
          }
        ],
        "type": {
          "coding": [
            {
              "code": "11502-2",
              "system": "http://loinc.org",
              "display": "Laboratory report"
            }
          ],
          "text": "Laboratory Report"
        },
        "section": [
          {
            "code": {
              "coding": [
                {
                  "code": "26436-6",
                  "system": "http://loinc.org",
                  "display": "Laboratory studies (set)"
                }
              ],
              "text": "Laboratory studies"
            },
            "section": [
              {
                "code": {
                  "coding": [
                    {
                      "code": "$18719-5",
                      "system": "http://loinc.org",
                      "display": "Chemistry studies (set)"
                    }
                  ],
                  "text": "Chemistry"
                },
                "entry": [
                  {
                    "reference": "urn:uuid:63cb24be-9ac9-4e3d-974d-71d8d2e760b8"
                  },
                  {
                    "reference": "urn:uuid:118751cd-9a11-402f-bdb7-df471e738259"
                  },
                  {
                    "reference": "urn:uuid:543b424d-5845-465b-b9fc-41019a85e6f6"
                  },
                  {
                    "reference": "urn:uuid:55aadb8c-3502-42d6-ac91-0982964b1a00"
                  },
                  {
                    "reference": "urn:uuid:5bb1278e-4949-4ae4-9ad5-5176f1c905b1"
                  },
                  {
                    "reference": "urn:uuid:33d00008-bd13-4688-b920-6284324953be"
                  },
                  {
                    "reference": "urn:uuid:3d75572a-6c0a-4229-b9b5-c29205b8c7d8"
                  },
                  {
                    "reference": "urn:uuid:c4082b44-8bb2-48a5-8cb4-7ac928ca5bee"
                  },
                  {
                    "reference": "urn:uuid:0df68520-a2db-4cca-9f16-8fa4d048591c"
                  },
                  {
                    "reference": "urn:uuid:aec6c95a-4e5a-4691-b7c4-bd0ebbef8ba5"
                  },
                  {
                    "reference": "urn:uuid:19badcd4-bf0e-401b-abeb-735bcbeecfbc"
                  },
                  {
                    "reference": "urn:uuid:0063200c-8499-4e52-8e45-6f3d42bb606f"
                  },
                  {
                    "reference": "urn:uuid:721a61b3-9bdd-4790-a8ce-7fbae7cdbd56"
                  },
                  {
                    "reference": "urn:uuid:fdae23b9-6282-4536-8349-8f8e98c22572"
                  },
                  {
                    "reference": "urn:uuid:3ff92bc1-fda0-42bf-9eb1-fb799b974e53"
                  },
                  {
                    "reference": "urn:uuid:0e6ad2cd-d9db-4db3-a60f-dbed3246dba7"
                  },
                  {
                    "reference": "urn:uuid:7d4e50c4-6da0-41f5-94c4-6925da2d7a70"
                  },
                  {
                    "reference": "urn:uuid:e651eb9a-044d-45f2-8ed3-b629e9f4dbba"
                  }
                ],
                "text": {
                  "status": "generated",
                  "div": "<div xmlns=\"http://www.w3.org/1999/xhtml\"><h3>Chemistry</h3><table class=\"hl7__eu__lab__report\"><thead><tr><th>Test</th><th>21-NOV-2018</th><th>Reference&#xA0;Range</th><th>Unit</th></tr></thead><tbody><tr><td>Glucose [Mass/volume] in Serum or Plasma</td><td><strong>67.5 L</strong></td><td>70 - 140</td><td>mg/dL</td></tr><tr><td>Urea nitrogen [Mass/volume] in Serum or Plasma</td><td>19.0</td><td>7 - 20</td><td>mg/dL</td></tr><tr><td>Creatinine [Mass/volume] in Serum or Plasma</td><td><strong>2.0 H</strong></td><td>0.9 - 1.3</td><td>mg/dL</td></tr><tr><td>Calcium [Mass/volume] in Serum or Plasma</td><td>9.3</td><td>8.5 - 10.5</td><td>mg/dL</td></tr><tr><td>Sodium [Moles/volume] in Serum or Plasma</td><td>141.1</td><td>135 - 145</td><td>mmol/L</td></tr><tr><td>Potassium [Moles/volume] in Serum or Plasma</td><td>4.5</td><td>3.5 - 5</td><td>mmol/L</td></tr><tr><td>Chloride [Moles/volume] in Serum or Plasma</td><td>101.7</td><td>98 - 108</td><td>mmol/L</td></tr><tr><td>Carbon dioxide, total [Moles/volume] in Serum or Plasma</td><td><strong>20.7 L</strong></td><td>22 - 29</td><td>mmol/L</td></tr><tr><td>Ketones [Presence] in Urine by Test strip</td><td>Urine ketone test = ++</td><td></td><td></td></tr><tr><td>Hemoglobin A1c/Hemoglobin.total in Blood</td><td><strong>2.9 L</strong></td><td>4.3 - 6.4</td><td>%</td></tr><tr><td>Glucose [Mass/volume] in Blood</td><td><strong>67.5 L</strong></td><td>70 - 140</td><td>mg/dL</td></tr><tr><td>Urea nitrogen [Mass/volume] in Blood</td><td>19.0</td><td>7 - 20</td><td>mg/dL</td></tr><tr><td>Creatinine [Mass/volume] in Blood</td><td><strong>7.4 H</strong></td><td>0.6 - 1.3</td><td>mg/dL</td></tr><tr><td>Calcium [Mass/volume] in Blood</td><td>9.3</td><td>8.5 - 10.5</td><td>mg/dL</td></tr><tr><td>Sodium [Moles/volume] in Blood</td><td>141.1</td><td>135 - 145</td><td>mmol/L</td></tr><tr><td>Potassium [Moles/volume] in Blood</td><td>4.5</td><td>3.5 - 5.3</td><td>mmol/L</td></tr><tr><td>Chloride [Moles/volume] in Blood</td><td>101.7</td><td>98 - 110</td><td>mmol/L</td></tr><tr><td>Carbon dioxide, total [Moles/volume] in Blood</td><td><strong>20.7 L</strong></td><td>22 - 29</td><td>mmol/L</td></tr></tbody></table></div>"
                },
                "title": "Chemistry"
              },
              {
                "code": {
                  "coding": [
                    {
                      "code": "$18729-4",
                      "system": "http://loinc.org",
                      "display": "Urinalysis studies (set)"
                    }
                  ],
                  "text": "Urinalysis"
                },
                "entry": [
                  {
                    "reference": "urn:uuid:ad2d5a6f-1ef0-4e39-a3e3-a448b2726a08"
                  },
                  {
                    "reference": "urn:uuid:1dd1148c-4177-413d-bdfc-349452ec9cb0"
                  },
                  {
                    "reference": "urn:uuid:45af4098-3e5c-4793-984b-9e43c8605bf9"
                  },
                  {
                    "reference": "urn:uuid:6dbd8a8d-ff7d-4be1-8cca-6dc647580dee"
                  },
                  {
                    "reference": "urn:uuid:ec57bcba-a26f-428d-b02a-cdff081c1b53"
                  },
                  {
                    "reference": "urn:uuid:07361f6a-be9d-4932-9dc5-f362db614052"
                  },
                  {
                    "reference": "urn:uuid:1156f969-7061-4f77-98f3-c16c94b028c7"
                  },
                  {
                    "reference": "urn:uuid:074455ea-e0cf-4e0c-be14-d6dfd3c2fcad"
                  },
                  {
                    "reference": "urn:uuid:eda3f2a5-b7e3-4f4c-9a01-5b38469e498b"
                  },
                  {
                    "reference": "urn:uuid:f43689c8-f0bc-4b3e-a739-f4248a3012a1"
                  },
                  {
                    "reference": "urn:uuid:7424a8a3-7ab9-4982-a457-6df216d3dc8c"
                  },
                  {
                    "reference": "urn:uuid:ac693a21-e7d3-4027-a0e9-440ae8b1ffa3"
                  }
                ],
                "text": {
                  "status": "generated",
                  "div": "<div xmlns=\"http://www.w3.org/1999/xhtml\"><h3>Urinalysis</h3><table class=\"hl7__eu__lab__report\"><thead><tr><th>Test</th><th>21-NOV-2018</th><th>Reference&#xA0;Range</th><th>Unit</th></tr></thead><tbody><tr><td>Glucose [Mass/volume] in Urine by Test strip</td><td><strong>2.2 H</strong></td><td>0 - 0.8</td><td>mg/dL</td></tr><tr><td>Glucose [Presence] in Urine by Test strip</td><td>++</td><td></td><td></td></tr><tr><td>Bilirubin.total [Mass/volume] in Urine by Test strip</td><td>0.4</td><td>0.2 - 1</td><td>mg/dL</td></tr><tr><td>Bilirubin.total [Presence] in Urine by Test strip</td><td>Finding of bilirubin in urine</td><td></td><td></td></tr><tr><td>Ketones [Mass/volume] in Urine by Test strip</td><td><strong>16.6 H</strong></td><td>0 - 5</td><td>mg/dL</td></tr><tr><td>Specific gravity of Urine by Test strip</td><td><strong>1.0 L</strong></td><td>1.005 - 1.03</td><td>{nominal}</td></tr><tr><td>pH of Urine by Test strip</td><td>6.2</td><td>4.6 - 7</td><td>pH</td></tr><tr><td>Protein [Mass/volume] in Urine by Test strip</td><td><strong>397.5 H</strong></td><td>0 - 150</td><td>mg/dL</td></tr><tr><td>Protein [Presence] in Urine by Test strip</td><td>Urine protein test = ++</td><td></td><td></td></tr><tr><td>Nitrite [Presence] in Urine by Test strip</td><td>Urine nitrite negative</td><td></td><td></td></tr><tr><td>Hemoglobin [Presence] in Urine by Test strip</td><td>Urine blood test = negative</td><td></td><td></td></tr><tr><td>Leukocyte esterase [Presence] in Urine by Test strip</td><td>Urine leukocyte test negative</td><td></td><td></td></tr></tbody></table></div>"
                },
                "title": "Urinalysis"
              },
              {
                "code": {
                  "coding": [
                    {
                      "code": "$LP7846-1",
                      "system": "http://loinc.org",
                      "display": "Specimen information"
                    }
                  ],
                  "text": "Specimen information"
                },
                "entry": [
                  {
                    "reference": "urn:uuid:4525094f-5c58-4f59-8630-2efa20e90e30"
                  },
                  {
                    "reference": "urn:uuid:aa1bce78-94e5-40d7-b449-072ac7d36b86"
                  },
                  {
                    "reference": "urn:uuid:4b8a6f9a-5c9c-4211-841d-c39e9e6c15f2"
                  },
                  {
                    "reference": "urn:uuid:5c1d7b31-85ed-4eba-8823-3ab6b2dc0dcb"
                  }
                ],
                "text": {
                  "status": "generated",
                  "div": "<div xmlns=\"http://www.w3.org/1999/xhtml\"><h3>Specimen information</h3><table class=\"hl7__eu__lab__report\"><thead><tr><th>Test</th><th>21-NOV-2018</th><th>Specimen</th><th></th></tr></thead><tbody><tr><td>Appearance of Urine</td><td>Cloudy urine</td><td>Urine</td><td></td></tr><tr><td>Odor of Urine</td><td>Urine smell ammoniacal</td><td>Urine</td><td></td></tr><tr><td>Clarity of Urine</td><td>Translucent</td><td>Urine</td><td></td></tr><tr><td>Color of Urine</td><td>Brown color</td><td>Urine</td><td></td></tr></tbody></table></div>"
                },
                "title": "Specimen information"
              }
            ],
            "title": "Laboratory Report"
          },
          {
            "text": {
              "status": "generated",
              "div": "<div xmlns=\"http://www.w3.org/1999/xhtml\"><h3>Annotation</h3><table class=\"hl7__eu__lab__report\"><tr><th>Conclusion and Recommendations based on this report and previous findings known to us</th></tr><tr><td>The patient shows significant renal dysfunction (markedly elevated creatinine, proteinuria), hypoglycemia with low HbA1c, and metabolic acidosis (low CO₂). Urinalysis reveals glucosuria, ketonuria, and proteinuria with abnormal urine appearance, suggesting possible acute or chronic kidney disease with glycosuria not explained by diabetes. Immediate clinical evaluation is recommended to assess for acute kidney injury, possible underlying metabolic derangement, and to rule out urinary tract pathology.</td></tr></table></div>"
            },
            "code": {
              "coding": [
                {
                  "system": "http://loinc.org",
                  "code": "48767-8",
                  "display": "Annotation comment"
                }
              ]
            },
            "title": "Annotation comment"
          }
        ],
        "status": "final",
        "subject": {
          "reference": "urn:uuid:7160b576-d41a-4d01-930e-3ae7d89192e7",
          "display": "Θεμιστοκλής Λιναρδάκη"
        },
        "date": "2018-11-21T07:16:00Z",
        "title": "Laboratory Report",
        "confidentiality": "N"
      }
    },
    {
      "fullUrl": "urn:uuid:ca68eb00-5ac5-4623-8a6c-fb0c25b8e4af",
      "resource": {
        "resourceType": "DiagnosticReport",
        "id": "ca68eb00-5ac5-4623-8a6c-fb0c25b8e4af",
        "meta": {
          "profile": [
            "http://hl7.eu/fhir/laboratory/StructureDefinition/DiagnosticReport-eu-lab"
          ]
        },
        "identifier": [
          {
            "assigner": {
              "display": "HL7 Europe"
            },
            "system": "urn:oid:2.16.840.1.113883.2.51.999",
            "value": "cb63a5c2-4bb8-4c41-ac67-1902a6da3433"
          }
        ],
        "extension": [
          {
            "url": "http://hl7.org/fhir/5.0/StructureDefinition/extension-DiagnosticReport.composition",
            "valueReference": {
              "reference": "urn:uuid:08d7c0da-2043-482d-a777-6fdb592953f9"
            }
          }
        ],
        "category": [
          {
            "coding": [
              {
                "code": "26436-6",
                "system": "http://loinc.org",
                "display": "Laboratory studies (set)"
              }
            ]
          }
        ],
        "specimen": [
          {
            "reference": "urn:uuid:5c8d4554-9522-4681-976f-2ee88ff8afb9"
          },
          {
            "reference": "urn:uuid:b6502d06-180e-4a98-8cbb-a1ab36bf4854"
          },
          {
            "reference": "urn:uuid:54e7b471-c097-4d13-8c2d-342373faa73a"
          }
        ],
        "result": [
          {
            "reference": "urn:uuid:63cb24be-9ac9-4e3d-974d-71d8d2e760b8"
          },
          {
            "reference": "urn:uuid:118751cd-9a11-402f-bdb7-df471e738259"
          },
          {
            "reference": "urn:uuid:543b424d-5845-465b-b9fc-41019a85e6f6"
          },
          {
            "reference": "urn:uuid:55aadb8c-3502-42d6-ac91-0982964b1a00"
          },
          {
            "reference": "urn:uuid:5bb1278e-4949-4ae4-9ad5-5176f1c905b1"
          },
          {
            "reference": "urn:uuid:33d00008-bd13-4688-b920-6284324953be"
          },
          {
            "reference": "urn:uuid:3d75572a-6c0a-4229-b9b5-c29205b8c7d8"
          },
          {
            "reference": "urn:uuid:c4082b44-8bb2-48a5-8cb4-7ac928ca5bee"
          },
          {
            "reference": "urn:uuid:4525094f-5c58-4f59-8630-2efa20e90e30"
          },
          {
            "reference": "urn:uuid:aa1bce78-94e5-40d7-b449-072ac7d36b86"
          },
          {
            "reference": "urn:uuid:4b8a6f9a-5c9c-4211-841d-c39e9e6c15f2"
          },
          {
            "reference": "urn:uuid:5c1d7b31-85ed-4eba-8823-3ab6b2dc0dcb"
          },
          {
            "reference": "urn:uuid:ad2d5a6f-1ef0-4e39-a3e3-a448b2726a08"
          },
          {
            "reference": "urn:uuid:1dd1148c-4177-413d-bdfc-349452ec9cb0"
          },
          {
            "reference": "urn:uuid:45af4098-3e5c-4793-984b-9e43c8605bf9"
          },
          {
            "reference": "urn:uuid:6dbd8a8d-ff7d-4be1-8cca-6dc647580dee"
          },
          {
            "reference": "urn:uuid:ec57bcba-a26f-428d-b02a-cdff081c1b53"
          },
          {
            "reference": "urn:uuid:0df68520-a2db-4cca-9f16-8fa4d048591c"
          },
          {
            "reference": "urn:uuid:07361f6a-be9d-4932-9dc5-f362db614052"
          },
          {
            "reference": "urn:uuid:1156f969-7061-4f77-98f3-c16c94b028c7"
          },
          {
            "reference": "urn:uuid:074455ea-e0cf-4e0c-be14-d6dfd3c2fcad"
          },
          {
            "reference": "urn:uuid:eda3f2a5-b7e3-4f4c-9a01-5b38469e498b"
          },
          {
            "reference": "urn:uuid:f43689c8-f0bc-4b3e-a739-f4248a3012a1"
          },
          {
            "reference": "urn:uuid:7424a8a3-7ab9-4982-a457-6df216d3dc8c"
          },
          {
            "reference": "urn:uuid:ac693a21-e7d3-4027-a0e9-440ae8b1ffa3"
          },
          {
            "reference": "urn:uuid:aec6c95a-4e5a-4691-b7c4-bd0ebbef8ba5"
          },
          {
            "reference": "urn:uuid:19badcd4-bf0e-401b-abeb-735bcbeecfbc"
          },
          {
            "reference": "urn:uuid:0063200c-8499-4e52-8e45-6f3d42bb606f"
          },
          {
            "reference": "urn:uuid:721a61b3-9bdd-4790-a8ce-7fbae7cdbd56"
          },
          {
            "reference": "urn:uuid:fdae23b9-6282-4536-8349-8f8e98c22572"
          },
          {
            "reference": "urn:uuid:3ff92bc1-fda0-42bf-9eb1-fb799b974e53"
          },
          {
            "reference": "urn:uuid:0e6ad2cd-d9db-4db3-a60f-dbed3246dba7"
          },
          {
            "reference": "urn:uuid:7d4e50c4-6da0-41f5-94c4-6925da2d7a70"
          },
          {
            "reference": "urn:uuid:e651eb9a-044d-45f2-8ed3-b629e9f4dbba"
          }
        ],
        "status": "registered",
        "code": {
          "coding": [
            {
              "code": "11502-2",
              "system": "http://loinc.org",
              "display": "Laboratory report"
            }
          ]
        },
        "subject": {
          "reference": "urn:uuid:7160b576-d41a-4d01-930e-3ae7d89192e7",
          "display": "Θεμιστοκλής Λιναρδάκη"
        }
      }
    },
    {
      "fullUrl": "urn:uuid:7160b576-d41a-4d01-930e-3ae7d89192e7",
      "resource": {
        "resourceType": "Patient",
        "id": "7160b576-d41a-4d01-930e-3ae7d89192e7",
        "meta": {
          "security": [
            {
              "system": "http://terminology.hl7.org/CodeSystem/v3-ActReason",
              "code": "HTEST"
            },
            {
              "system": "http://terminology.hl7.org/CodeSystem/v3-ActReason",
              "code": "TRAIN"
            }
          ],
          "tag": [
            {
              "system": "https://synderai.net/fhir/CodeSystem/tags",
              "code": "synthetic",
              "display": "SYNDERAI Synthetic data"
            }
          ],
          "profile": [
            "http://hl7.eu/fhir/base/StructureDefinition/patient-eu-core"
          ]
        },
        "identifier": [
          {
            "type": {
              "coding": [
                {
                  "code": "PT",
                  "system": "http://terminology.hl7.org/CodeSystem/v2-0203"
                }
              ]
            },
            "system": "http://ec.europa.eu/identifier/eci",
            "value": "5962-476889-7"
          },
          {
            "type": {
              "coding": [
                {
                  "code": "MR",
                  "system": "http://terminology.hl7.org/CodeSystem/v2-0203"
                }
              ]
            },
            "system": "http://local.setting.eu/identifier",
            "value": "925e2603-2ef9-6bdf-1330-2ebf526636c4"
          }
        ],
        "name": [
          {
            "family": "Λιναρδάκη"
          },
          {
            "given": [
              "Θεμιστοκλής"
            ]
          },
          {
            "text": "Θεμιστοκλής Λιναρδάκη"
          }
        ],
        "address": [
          {
            "line": [
              "Αμαρύνθου 54-58"
            ],
            "use": "home",
            "type": "physical",
            "postalCode": "262 21",
            "city": "Πάτρα",
            "country": "Greece"
          }
        ],
        "telecom": [
          {
            "system": "phone",
            "value": "+302226364480"
          }
        ],
        "extension": [
          {
            "url": "http://hl7.org/fhir/StructureDefinition/patient-nationality",
            "valueCodeableConcept": {
              "coding": [
                {
                  "code": "GR",
                  "system": "http://hl7.org/fhir/ValueSet/country"
                }
              ]
            }
          }
        ],
        "text": {
          "status": "generated",
          "div": "<div xmlns=\"http://www.w3.org/1999/xhtml\"><table class=\"hl7__ips\"><tr><td>Θεμιστοκλής Λιναρδάκη</td><td>male</td><td>21-Jan-1974</td></tr></table></div>"
        },
        "gender": "male",
        "birthDate": "1974-01-21"
      }
    },
    {
      "fullUrl": "urn:uuid:4071e2bb-c2a2-4e61-9bb7-99d770d4a981",
      "resource": {
        "resourceType": "ServiceRequest",
        "id": "4071e2bb-c2a2-4e61-9bb7-99d770d4a981",
        "meta": {
          "profile": [
            "http://hl7.eu/fhir/laboratory/StructureDefinition/ServiceRequest-eu-lab"
          ]
        },
        "identifier": [
          {
            "system": "http://example.org",
            "value": "84f476ba-f59c-43d6-ac3f-d84345caeae8"
          }
        ],
        "specimen": [
          {
            "reference": "urn:uuid:5c8d4554-9522-4681-976f-2ee88ff8afb9"
          },
          {
            "reference": "urn:uuid:b6502d06-180e-4a98-8cbb-a1ab36bf4854"
          },
          {
            "reference": "urn:uuid:54e7b471-c097-4d13-8c2d-342373faa73a"
          }
        ],
        "reasonCode": [
          {
            "coding": [
              {
                "code": "237602007",
                "system": "http://snomed.info/sct",
                "display": "Metabolic syndrome X"
              }
            ]
          },
          {
            "coding": [
              {
                "code": "433144002",
                "system": "http://snomed.info/sct",
                "display": "Chronic kidney disease stage 3"
              }
            ]
          },
          {
            "coding": [
              {
                "code": "157141000119108",
                "system": "http://snomed.info/sct",
                "display": "Proteinuria due to type 2 diabetes mellitus"
              }
            ]
          },
          {
            "coding": [
              {
                "code": "431856006",
                "system": "http://snomed.info/sct",
                "display": "Chronic kidney disease stage 2"
              }
            ]
          },
          {
            "coding": [
              {
                "code": "90781000119102",
                "system": "http://snomed.info/sct",
                "display": "Microalbuminuria due to type 2 diabetes mellitus"
              }
            ]
          },
          {
            "coding": [
              {
                "code": "127013003",
                "system": "http://snomed.info/sct",
                "display": "Disorder of kidney due to diabetes mellitus"
              }
            ]
          },
          {
            "coding": [
              {
                "code": "431855005",
                "system": "http://snomed.info/sct",
                "display": "Chronic kidney disease stage 1"
              }
            ]
          },
          {
            "coding": [
              {
                "code": "59621000",
                "system": "http://snomed.info/sct",
                "display": "Essential hypertension"
              }
            ]
          },
          {
            "coding": [
              {
                "code": "15777000",
                "system": "http://snomed.info/sct",
                "display": "Prediabetes"
              }
            ]
          },
          {
            "coding": [
              {
                "code": "271737000",
                "system": "http://snomed.info/sct",
                "display": "Anemia"
              }
            ]
          }
        ],
        "status": "active",
        "intent": "order",
        "code": {
          "coding": [
            {
              "code": "108252007",
              "system": "http://snomed.info/sct",
              "display": "Laboratory procedure"
            }
          ]
        },
        "subject": {
          "reference": "urn:uuid:7160b576-d41a-4d01-930e-3ae7d89192e7",
          "display": "Θεμιστοκλής Λιναρδάκη"
        },
        "requester": {
          "reference": "urn:uuid:2a613c1a-c4fd-47dd-a044-5798a792134f"
        }
      }
    },
    {
      "fullUrl": "urn:uuid:2a613c1a-c4fd-47dd-a044-5798a792134f",
      "resource": {
        "resourceType": "PractitionerRole",
        "id": "2a613c1a-c4fd-47dd-a044-5798a792134f",
        "meta": {
          "profile": [
            "http://hl7.eu/fhir/base/StructureDefinition/practitionerRole-eu"
          ]
        },
        "text": {
          "status": "generated",
          "div": "<div xmlns=\"http://www.w3.org/1999/xhtml\">Provider Role Id: 2a613c1a-c4fd-47dd-a044-5798a792134f</div>"
        },
        "organization": {
          "reference": "urn:uuid:dbb48500-eb56-44b7-9178-bfd6f28ab703"
        }
      }
    },
    {
      "fullUrl": "urn:uuid:dbb48500-eb56-44b7-9178-bfd6f28ab703",
      "resource": {
        "resourceType": "Organization",
        "id": "dbb48500-eb56-44b7-9178-bfd6f28ab703",
        "meta": {
          "profile": [
            "http://hl7.eu/fhir/base/StructureDefinition/organization-eu"
          ]
        },
        "identifier": [
          {
            "assigner": {
              "display": "HL7 Europe"
            },
            "system": "urn:oid:2.16.840.1.113883.2.51.999",
            "value": "d6ff05c3-9132-478f-a745-d7f06f639b50"
          }
        ],
        "address": [
          {
            "line": [
              "211 Odós Filellinon"
            ],
            "city": "Patras",
            "postalCode": "262 21",
            "country": "Greece"
          }
        ],
        "text": {
          "status": "generated",
          "div": "<div xmlns=\"http://www.w3.org/1999/xhtml\">Provider Organization: Dr. Dimitris Economou</div>"
        },
        "name": "Dr. Dimitris Economou"
      }
    },
    {
      "fullUrl": "urn:uuid:5c8d4554-9522-4681-976f-2ee88ff8afb9",
      "resource": {
        "resourceType": "Specimen",
        "id": "5c8d4554-9522-4681-976f-2ee88ff8afb9",
        "meta": {
          "profile": [
            "http://hl7.eu/fhir/laboratory/StructureDefinition/Specimen-eu-lab"
          ]
        },
        "collection": {
          "collectedDateTime": "2018-11-21"
        },
        "text": {
          "status": "generated",
          "div": "<div xmlns=\"http://www.w3.org/1999/xhtml\"><table class=\"hl7__eu__lab__report\"><tr><th>Specimen</th><th>Collection Date</th></tr><tr><td>Acellular blood (serum or plasma) specimen</td><td><span class=\"nb\">21-Nov-2018</span></td></tr></table></div>"
        },
        "type": {
          "coding": [
            {
              "code": "122592007",
              "system": "http://snomed.info/sct",
              "display": "Acellular blood (serum or plasma) specimen"
            }
          ]
        }
      }
    },
    {
      "fullUrl": "urn:uuid:b6502d06-180e-4a98-8cbb-a1ab36bf4854",
      "resource": {
        "resourceType": "Specimen",
        "id": "b6502d06-180e-4a98-8cbb-a1ab36bf4854",
        "meta": {
          "profile": [
            "http://hl7.eu/fhir/laboratory/StructureDefinition/Specimen-eu-lab"
          ]
        },
        "collection": {
          "collectedDateTime": "2018-11-21"
        },
        "text": {
          "status": "generated",
          "div": "<div xmlns=\"http://www.w3.org/1999/xhtml\"><table class=\"hl7__eu__lab__report\"><tr><th>Specimen</th><th>Collection Date</th></tr><tr><td>Urine specimen</td><td><span class=\"nb\">21-Nov-2018</span></td></tr></table></div>"
        },
        "type": {
          "coding": [
            {
              "code": "122575003",
              "system": "http://snomed.info/sct",
              "display": "Urine specimen"
            }
          ]
        }
      }
    },
    {
      "fullUrl": "urn:uuid:54e7b471-c097-4d13-8c2d-342373faa73a",
      "resource": {
        "resourceType": "Specimen",
        "id": "54e7b471-c097-4d13-8c2d-342373faa73a",
        "meta": {
          "profile": [
            "http://hl7.eu/fhir/laboratory/StructureDefinition/Specimen-eu-lab"
          ]
        },
        "collection": {
          "collectedDateTime": "2018-11-21"
        },
        "text": {
          "status": "generated",
          "div": "<div xmlns=\"http://www.w3.org/1999/xhtml\"><table class=\"hl7__eu__lab__report\"><tr><th>Specimen</th><th>Collection Date</th></tr><tr><td>Whole blood specimen (specimen)</td><td><span class=\"nb\">21-Nov-2018</span></td></tr></table></div>"
        },
        "type": {
          "coding": [
            {
              "code": "258580003",
              "system": "http://snomed.info/sct",
              "display": "Whole blood specimen (specimen)"
            }
          ]
        }
      }
    },
    {
      "fullUrl": "urn:uuid:63cb24be-9ac9-4e3d-974d-71d8d2e760b8",
      "resource": {
        "resourceType": "Observation",
        "id": "63cb24be-9ac9-4e3d-974d-71d8d2e760b8",
        "meta": {
          "profile": [
            "http://hl7.eu/fhir/laboratory/StructureDefinition/Observation-resultslab-eu-lab"
          ]
        },
        "performer": [
          {
            "display": "The Central European Lab"
          }
        ],
        "category": [
          {
            "coding": [
              {
                "system": "http://terminology.hl7.org/CodeSystem/observation-category",
                "code": "laboratory"
              }
            ]
          }
        ],
        "code": {
          "coding": [
            {
              "code": "2345-7",
              "system": "http://loinc.org",
              "display": "Glucose [Mass/volume] in Serum or Plasma"
            }
          ],
          "text": "Glucose [Mass/volume] in Serum or Plasma"
        },
        "valueQuantity": {
          "system": "http://unitsofmeasure.org",
          "value": 67.5,
          "unit": "mg/dL",
          "code": "mg/dL"
        },
        "referenceRange": [
          {
            "low": {
              "value": 70,
              "code": "mg/dL",
              "system": "http://unitsofmeasure.org"
            }
          },
          {
            "high": {
              "value": 140,
              "code": "mg/dL",
              "system": "http://unitsofmeasure.org"
            }
          }
        ],
        "interpretation": [
          {
            "coding": [
              {
                "code": "L",
                "system": "http://terminology.hl7.org/CodeSystem/v3-ObservationInterpretation",
                "display": "Low"
              }
            ]
          }
        ],
        "text": {
          "status": "generated",
          "div": "<div xmlns=\"http://www.w3.org/1999/xhtml\"><table class=\"hl7__eu__lab__report\"><tr><th>Test</th><th>21-Nov-2018</th><th>Reference&#xA0;Range</th><th>Unit</th></tr><tr><td>Glucose [Mass/volume] in Serum or Plasma</td><td>67.5</td><td>70 - 140</td><td>L</td><td>mg/dL</td></tr></table></div>"
        },
        "status": "final",
        "subject": {
          "reference": "urn:uuid:7160b576-d41a-4d01-930e-3ae7d89192e7",
          "display": "Θεμιστοκλής Λιναρδάκη"
        },
        "effectiveDateTime": "2018-11-21T06:16:00Z",
        "specimen": {
          "reference": "urn:uuid:5c8d4554-9522-4681-976f-2ee88ff8afb9"
        }
      }
    },
    {
      "fullUrl": "urn:uuid:118751cd-9a11-402f-bdb7-df471e738259",
      "resource": {
        "resourceType": "Observation",
        "id": "118751cd-9a11-402f-bdb7-df471e738259",
        "meta": {
          "profile": [
            "http://hl7.eu/fhir/laboratory/StructureDefinition/Observation-resultslab-eu-lab"
          ]
        },
        "performer": [
          {
            "display": "The Central European Lab"
          }
        ],
        "category": [
          {
            "coding": [
              {
                "system": "http://terminology.hl7.org/CodeSystem/observation-category",
                "code": "laboratory"
              }
            ]
          }
        ],
        "code": {
          "coding": [
            {
              "code": "3094-0",
              "system": "http://loinc.org",
              "display": "Urea nitrogen [Mass/volume] in Serum or Plasma"
            }
          ],
          "text": "Urea nitrogen [Mass/volume] in Serum or Plasma"
        },
        "valueQuantity": {
          "system": "http://unitsofmeasure.org",
          "value": 19,
          "unit": "mg/dL",
          "code": "mg/dL"
        },
        "referenceRange": [
          {
            "low": {
              "value": 7,
              "code": "mg/dL",
              "system": "http://unitsofmeasure.org"
            }
          },
          {
            "high": {
              "value": 20,
              "code": "mg/dL",
              "system": "http://unitsofmeasure.org"
            }
          }
        ],
        "text": {
          "status": "generated",
          "div": "<div xmlns=\"http://www.w3.org/1999/xhtml\"><table class=\"hl7__eu__lab__report\"><tr><th>Test</th><th>21-Nov-2018</th><th>Reference&#xA0;Range</th><th>Unit</th></tr><tr><td>Urea nitrogen [Mass/volume] in Serum or Plasma</td><td>19.0</td><td>7 - 20</td><td></td><td>mg/dL</td></tr></table></div>"
        },
        "status": "final",
        "subject": {
          "reference": "urn:uuid:7160b576-d41a-4d01-930e-3ae7d89192e7",
          "display": "Θεμιστοκλής Λιναρδάκη"
        },
        "effectiveDateTime": "2018-11-21T06:16:00Z",
        "specimen": {
          "reference": "urn:uuid:5c8d4554-9522-4681-976f-2ee88ff8afb9"
        }
      }
    },
    {
      "fullUrl": "urn:uuid:543b424d-5845-465b-b9fc-41019a85e6f6",
      "resource": {
        "resourceType": "Observation",
        "id": "543b424d-5845-465b-b9fc-41019a85e6f6",
        "meta": {
          "profile": [
            "http://hl7.eu/fhir/laboratory/StructureDefinition/Observation-resultslab-eu-lab"
          ]
        },
        "performer": [
          {
            "display": "The Central European Lab"
          }
        ],
        "category": [
          {
            "coding": [
              {
                "system": "http://terminology.hl7.org/CodeSystem/observation-category",
                "code": "laboratory"
              }
            ]
          }
        ],
        "code": {
          "coding": [
            {
              "code": "2160-0",
              "system": "http://loinc.org",
              "display": "Creatinine [Mass/volume] in Serum or Plasma"
            }
          ],
          "text": "Creatinine [Mass/volume] in Serum or Plasma"
        },
        "valueQuantity": {
          "system": "http://unitsofmeasure.org",
          "value": 2,
          "unit": "mg/dL",
          "code": "mg/dL"
        },
        "referenceRange": [
          {
            "low": {
              "value": 0.9,
              "code": "mg/dL",
              "system": "http://unitsofmeasure.org"
            }
          },
          {
            "high": {
              "value": 1.3,
              "code": "mg/dL",
              "system": "http://unitsofmeasure.org"
            }
          }
        ],
        "interpretation": [
          {
            "coding": [
              {
                "code": "H",
                "system": "http://terminology.hl7.org/CodeSystem/v3-ObservationInterpretation",
                "display": "High"
              }
            ]
          }
        ],
        "text": {
          "status": "generated",
          "div": "<div xmlns=\"http://www.w3.org/1999/xhtml\"><table class=\"hl7__eu__lab__report\"><tr><th>Test</th><th>21-Nov-2018</th><th>Reference&#xA0;Range</th><th>Unit</th></tr><tr><td>Creatinine [Mass/volume] in Serum or Plasma</td><td>2.0</td><td>0.9 - 1.3</td><td>H</td><td>mg/dL</td></tr></table></div>"
        },
        "status": "final",
        "subject": {
          "reference": "urn:uuid:7160b576-d41a-4d01-930e-3ae7d89192e7",
          "display": "Θεμιστοκλής Λιναρδάκη"
        },
        "effectiveDateTime": "2018-11-21T06:16:00Z",
        "specimen": {
          "reference": "urn:uuid:5c8d4554-9522-4681-976f-2ee88ff8afb9"
        }
      }
    },
    {
      "fullUrl": "urn:uuid:55aadb8c-3502-42d6-ac91-0982964b1a00",
      "resource": {
        "resourceType": "Observation",
        "id": "55aadb8c-3502-42d6-ac91-0982964b1a00",
        "meta": {
          "profile": [
            "http://hl7.eu/fhir/laboratory/StructureDefinition/Observation-resultslab-eu-lab"
          ]
        },
        "performer": [
          {
            "display": "The Central European Lab"
          }
        ],
        "category": [
          {
            "coding": [
              {
                "system": "http://terminology.hl7.org/CodeSystem/observation-category",
                "code": "laboratory"
              }
            ]
          }
        ],
        "code": {
          "coding": [
            {
              "code": "17861-6",
              "system": "http://loinc.org",
              "display": "Calcium [Mass/volume] in Serum or Plasma"
            }
          ],
          "text": "Calcium [Mass/volume] in Serum or Plasma"
        },
        "valueQuantity": {
          "system": "http://unitsofmeasure.org",
          "value": 9.3,
          "unit": "mg/dL",
          "code": "mg/dL"
        },
        "referenceRange": [
          {
            "low": {
              "value": 8.5,
              "code": "mg/dL",
              "system": "http://unitsofmeasure.org"
            }
          },
          {
            "high": {
              "value": 10.5,
              "code": "mg/dL",
              "system": "http://unitsofmeasure.org"
            }
          }
        ],
        "text": {
          "status": "generated",
          "div": "<div xmlns=\"http://www.w3.org/1999/xhtml\"><table class=\"hl7__eu__lab__report\"><tr><th>Test</th><th>21-Nov-2018</th><th>Reference&#xA0;Range</th><th>Unit</th></tr><tr><td>Calcium [Mass/volume] in Serum or Plasma</td><td>9.3</td><td>8.5 - 10.5</td><td></td><td>mg/dL</td></tr></table></div>"
        },
        "status": "final",
        "subject": {
          "reference": "urn:uuid:7160b576-d41a-4d01-930e-3ae7d89192e7",
          "display": "Θεμιστοκλής Λιναρδάκη"
        },
        "effectiveDateTime": "2018-11-21T06:16:00Z",
        "specimen": {
          "reference": "urn:uuid:5c8d4554-9522-4681-976f-2ee88ff8afb9"
        }
      }
    },
    {
      "fullUrl": "urn:uuid:5bb1278e-4949-4ae4-9ad5-5176f1c905b1",
      "resource": {
        "resourceType": "Observation",
        "id": "5bb1278e-4949-4ae4-9ad5-5176f1c905b1",
        "meta": {
          "profile": [
            "http://hl7.eu/fhir/laboratory/StructureDefinition/Observation-resultslab-eu-lab"
          ]
        },
        "performer": [
          {
            "display": "The Central European Lab"
          }
        ],
        "category": [
          {
            "coding": [
              {
                "system": "http://terminology.hl7.org/CodeSystem/observation-category",
                "code": "laboratory"
              }
            ]
          }
        ],
        "code": {
          "coding": [
            {
              "code": "2951-2",
              "system": "http://loinc.org",
              "display": "Sodium [Moles/volume] in Serum or Plasma"
            }
          ],
          "text": "Sodium [Moles/volume] in Serum or Plasma"
        },
        "valueQuantity": {
          "system": "http://unitsofmeasure.org",
          "value": 141.1,
          "unit": "mmol/L",
          "code": "mmol/L"
        },
        "referenceRange": [
          {
            "low": {
              "value": 135,
              "code": "mmol/L",
              "system": "http://unitsofmeasure.org"
            }
          },
          {
            "high": {
              "value": 145,
              "code": "mmol/L",
              "system": "http://unitsofmeasure.org"
            }
          }
        ],
        "text": {
          "status": "generated",
          "div": "<div xmlns=\"http://www.w3.org/1999/xhtml\"><table class=\"hl7__eu__lab__report\"><tr><th>Test</th><th>21-Nov-2018</th><th>Reference&#xA0;Range</th><th>Unit</th></tr><tr><td>Sodium [Moles/volume] in Serum or Plasma</td><td>141.1</td><td>135 - 145</td><td></td><td>mmol/L</td></tr></table></div>"
        },
        "status": "final",
        "subject": {
          "reference": "urn:uuid:7160b576-d41a-4d01-930e-3ae7d89192e7",
          "display": "Θεμιστοκλής Λιναρδάκη"
        },
        "effectiveDateTime": "2018-11-21T06:16:00Z",
        "specimen": {
          "reference": "urn:uuid:5c8d4554-9522-4681-976f-2ee88ff8afb9"
        }
      }
    },
    {
      "fullUrl": "urn:uuid:33d00008-bd13-4688-b920-6284324953be",
      "resource": {
        "resourceType": "Observation",
        "id": "33d00008-bd13-4688-b920-6284324953be",
        "meta": {
          "profile": [
            "http://hl7.eu/fhir/laboratory/StructureDefinition/Observation-resultslab-eu-lab"
          ]
        },
        "performer": [
          {
            "display": "The Central European Lab"
          }
        ],
        "category": [
          {
            "coding": [
              {
                "system": "http://terminology.hl7.org/CodeSystem/observation-category",
                "code": "laboratory"
              }
            ]
          }
        ],
        "code": {
          "coding": [
            {
              "code": "2823-3",
              "system": "http://loinc.org",
              "display": "Potassium [Moles/volume] in Serum or Plasma"
            }
          ],
          "text": "Potassium [Moles/volume] in Serum or Plasma"
        },
        "valueQuantity": {
          "system": "http://unitsofmeasure.org",
          "value": 4.5,
          "unit": "mmol/L",
          "code": "mmol/L"
        },
        "referenceRange": [
          {
            "low": {
              "value": 3.5,
              "code": "mmol/L",
              "system": "http://unitsofmeasure.org"
            }
          },
          {
            "high": {
              "value": 5,
              "code": "mmol/L",
              "system": "http://unitsofmeasure.org"
            }
          }
        ],
        "text": {
          "status": "generated",
          "div": "<div xmlns=\"http://www.w3.org/1999/xhtml\"><table class=\"hl7__eu__lab__report\"><tr><th>Test</th><th>21-Nov-2018</th><th>Reference&#xA0;Range</th><th>Unit</th></tr><tr><td>Potassium [Moles/volume] in Serum or Plasma</td><td>4.5</td><td>3.5 - 5</td><td></td><td>mmol/L</td></tr></table></div>"
        },
        "status": "final",
        "subject": {
          "reference": "urn:uuid:7160b576-d41a-4d01-930e-3ae7d89192e7",
          "display": "Θεμιστοκλής Λιναρδάκη"
        },
        "effectiveDateTime": "2018-11-21T06:16:00Z",
        "specimen": {
          "reference": "urn:uuid:5c8d4554-9522-4681-976f-2ee88ff8afb9"
        }
      }
    },
    {
      "fullUrl": "urn:uuid:3d75572a-6c0a-4229-b9b5-c29205b8c7d8",
      "resource": {
        "resourceType": "Observation",
        "id": "3d75572a-6c0a-4229-b9b5-c29205b8c7d8",
        "meta": {
          "profile": [
            "http://hl7.eu/fhir/laboratory/StructureDefinition/Observation-resultslab-eu-lab"
          ]
        },
        "performer": [
          {
            "display": "The Central European Lab"
          }
        ],
        "category": [
          {
            "coding": [
              {
                "system": "http://terminology.hl7.org/CodeSystem/observation-category",
                "code": "laboratory"
              }
            ]
          }
        ],
        "code": {
          "coding": [
            {
              "code": "2075-0",
              "system": "http://loinc.org",
              "display": "Chloride [Moles/volume] in Serum or Plasma"
            }
          ],
          "text": "Chloride [Moles/volume] in Serum or Plasma"
        },
        "valueQuantity": {
          "system": "http://unitsofmeasure.org",
          "value": 101.7,
          "unit": "mmol/L",
          "code": "mmol/L"
        },
        "referenceRange": [
          {
            "low": {
              "value": 98,
              "code": "mmol/L",
              "system": "http://unitsofmeasure.org"
            }
          },
          {
            "high": {
              "value": 108,
              "code": "mmol/L",
              "system": "http://unitsofmeasure.org"
            }
          }
        ],
        "text": {
          "status": "generated",
          "div": "<div xmlns=\"http://www.w3.org/1999/xhtml\"><table class=\"hl7__eu__lab__report\"><tr><th>Test</th><th>21-Nov-2018</th><th>Reference&#xA0;Range</th><th>Unit</th></tr><tr><td>Chloride [Moles/volume] in Serum or Plasma</td><td>101.7</td><td>98 - 108</td><td></td><td>mmol/L</td></tr></table></div>"
        },
        "status": "final",
        "subject": {
          "reference": "urn:uuid:7160b576-d41a-4d01-930e-3ae7d89192e7",
          "display": "Θεμιστοκλής Λιναρδάκη"
        },
        "effectiveDateTime": "2018-11-21T06:16:00Z",
        "specimen": {
          "reference": "urn:uuid:5c8d4554-9522-4681-976f-2ee88ff8afb9"
        }
      }
    },
    {
      "fullUrl": "urn:uuid:c4082b44-8bb2-48a5-8cb4-7ac928ca5bee",
      "resource": {
        "resourceType": "Observation",
        "id": "c4082b44-8bb2-48a5-8cb4-7ac928ca5bee",
        "meta": {
          "profile": [
            "http://hl7.eu/fhir/laboratory/StructureDefinition/Observation-resultslab-eu-lab"
          ]
        },
        "performer": [
          {
            "display": "The Central European Lab"
          }
        ],
        "category": [
          {
            "coding": [
              {
                "system": "http://terminology.hl7.org/CodeSystem/observation-category",
                "code": "laboratory"
              }
            ]
          }
        ],
        "code": {
          "coding": [
            {
              "code": "2028-9",
              "system": "http://loinc.org",
              "display": "Carbon dioxide, total [Moles/volume] in Serum or Plasma"
            }
          ],
          "text": "Carbon dioxide, total [Moles/volume] in Serum or Plasma"
        },
        "valueQuantity": {
          "system": "http://unitsofmeasure.org",
          "value": 20.7,
          "unit": "mmol/L",
          "code": "mmol/L"
        },
        "referenceRange": [
          {
            "low": {
              "value": 22,
              "code": "mmol/L",
              "system": "http://unitsofmeasure.org"
            }
          },
          {
            "high": {
              "value": 29,
              "code": "mmol/L",
              "system": "http://unitsofmeasure.org"
            }
          }
        ],
        "interpretation": [
          {
            "coding": [
              {
                "code": "L",
                "system": "http://terminology.hl7.org/CodeSystem/v3-ObservationInterpretation",
                "display": "Low"
              }
            ]
          }
        ],
        "text": {
          "status": "generated",
          "div": "<div xmlns=\"http://www.w3.org/1999/xhtml\"><table class=\"hl7__eu__lab__report\"><tr><th>Test</th><th>21-Nov-2018</th><th>Reference&#xA0;Range</th><th>Unit</th></tr><tr><td>Carbon dioxide, total [Moles/volume] in Serum or Plasma</td><td>20.7</td><td>22 - 29</td><td>L</td><td>mmol/L</td></tr></table></div>"
        },
        "status": "final",
        "subject": {
          "reference": "urn:uuid:7160b576-d41a-4d01-930e-3ae7d89192e7",
          "display": "Θεμιστοκλής Λιναρδάκη"
        },
        "effectiveDateTime": "2018-11-21T06:16:00Z",
        "specimen": {
          "reference": "urn:uuid:5c8d4554-9522-4681-976f-2ee88ff8afb9"
        }
      }
    },
    {
      "fullUrl": "urn:uuid:4525094f-5c58-4f59-8630-2efa20e90e30",
      "resource": {
        "resourceType": "Observation",
        "id": "4525094f-5c58-4f59-8630-2efa20e90e30",
        "meta": {
          "profile": [
            "http://hl7.eu/fhir/laboratory/StructureDefinition/Observation-resultslab-eu-lab"
          ]
        },
        "performer": [
          {
            "display": "The Central European Lab"
          }
        ],
        "category": [
          {
            "coding": [
              {
                "system": "http://terminology.hl7.org/CodeSystem/observation-category",
                "code": "laboratory"
              }
            ]
          }
        ],
        "code": {
          "coding": [
            {
              "code": "5767-9",
              "system": "http://loinc.org",
              "display": "Appearance of Urine"
            }
          ],
          "text": "Appearance of Urine"
        },
        "text": {
          "status": "generated",
          "div": "<div xmlns=\"http://www.w3.org/1999/xhtml\"><table class=\"hl7__eu__lab__report\"><tr><th>Test</th><th>21-Nov-2018</th><th>Reference&#xA0;Range</th><th>Unit</th></tr><tr><td>Appearance of Urine</td></tr></table></div>"
        },
        "status": "final",
        "subject": {
          "reference": "urn:uuid:7160b576-d41a-4d01-930e-3ae7d89192e7",
          "display": "Θεμιστοκλής Λιναρδάκη"
        },
        "effectiveDateTime": "2018-11-21T06:16:00Z",
        "specimen": {
          "reference": "urn:uuid:b6502d06-180e-4a98-8cbb-a1ab36bf4854"
        }
      }
    },
    {
      "fullUrl": "urn:uuid:aa1bce78-94e5-40d7-b449-072ac7d36b86",
      "resource": {
        "resourceType": "Observation",
        "id": "aa1bce78-94e5-40d7-b449-072ac7d36b86",
        "meta": {
          "profile": [
            "http://hl7.eu/fhir/laboratory/StructureDefinition/Observation-resultslab-eu-lab"
          ]
        },
        "performer": [
          {
            "display": "The Central European Lab"
          }
        ],
        "category": [
          {
            "coding": [
              {
                "system": "http://terminology.hl7.org/CodeSystem/observation-category",
                "code": "laboratory"
              }
            ]
          }
        ],
        "code": {
          "coding": [
            {
              "code": "34533-0",
              "system": "http://loinc.org",
              "display": "Odor of Urine"
            }
          ],
          "text": "Odor of Urine"
        },
        "text": {
          "status": "generated",
          "div": "<div xmlns=\"http://www.w3.org/1999/xhtml\"><table class=\"hl7__eu__lab__report\"><tr><th>Test</th><th>21-Nov-2018</th><th>Reference&#xA0;Range</th><th>Unit</th></tr><tr><td>Odor of Urine</td></tr></table></div>"
        },
        "status": "final",
        "subject": {
          "reference": "urn:uuid:7160b576-d41a-4d01-930e-3ae7d89192e7",
          "display": "Θεμιστοκλής Λιναρδάκη"
        },
        "effectiveDateTime": "2018-11-21T06:16:00Z",
        "specimen": {
          "reference": "urn:uuid:b6502d06-180e-4a98-8cbb-a1ab36bf4854"
        }
      }
    },
    {
      "fullUrl": "urn:uuid:4b8a6f9a-5c9c-4211-841d-c39e9e6c15f2",
      "resource": {
        "resourceType": "Observation",
        "id": "4b8a6f9a-5c9c-4211-841d-c39e9e6c15f2",
        "meta": {
          "profile": [
            "http://hl7.eu/fhir/laboratory/StructureDefinition/Observation-resultslab-eu-lab"
          ]
        },
        "performer": [
          {
            "display": "The Central European Lab"
          }
        ],
        "category": [
          {
            "coding": [
              {
                "system": "http://terminology.hl7.org/CodeSystem/observation-category",
                "code": "laboratory"
              }
            ]
          }
        ],
        "code": {
          "coding": [
            {
              "code": "32167-9",
              "system": "http://loinc.org",
              "display": "Clarity of Urine"
            }
          ],
          "text": "Clarity of Urine"
        },
        "text": {
          "status": "generated",
          "div": "<div xmlns=\"http://www.w3.org/1999/xhtml\"><table class=\"hl7__eu__lab__report\"><tr><th>Test</th><th>21-Nov-2018</th><th>Reference&#xA0;Range</th><th>Unit</th></tr><tr><td>Clarity of Urine</td></tr></table></div>"
        },
        "status": "final",
        "subject": {
          "reference": "urn:uuid:7160b576-d41a-4d01-930e-3ae7d89192e7",
          "display": "Θεμιστοκλής Λιναρδάκη"
        },
        "effectiveDateTime": "2018-11-21T06:16:00Z",
        "specimen": {
          "reference": "urn:uuid:b6502d06-180e-4a98-8cbb-a1ab36bf4854"
        }
      }
    },
    {
      "fullUrl": "urn:uuid:5c1d7b31-85ed-4eba-8823-3ab6b2dc0dcb",
      "resource": {
        "resourceType": "Observation",
        "id": "5c1d7b31-85ed-4eba-8823-3ab6b2dc0dcb",
        "meta": {
          "profile": [
            "http://hl7.eu/fhir/laboratory/StructureDefinition/Observation-resultslab-eu-lab"
          ]
        },
        "performer": [
          {
            "display": "The Central European Lab"
          }
        ],
        "category": [
          {
            "coding": [
              {
                "system": "http://terminology.hl7.org/CodeSystem/observation-category",
                "code": "laboratory"
              }
            ]
          }
        ],
        "code": {
          "coding": [
            {
              "code": "5778-6",
              "system": "http://loinc.org",
              "display": "Color of Urine"
            }
          ],
          "text": "Color of Urine"
        },
        "text": {
          "status": "generated",
          "div": "<div xmlns=\"http://www.w3.org/1999/xhtml\"><table class=\"hl7__eu__lab__report\"><tr><th>Test</th><th>21-Nov-2018</th><th>Reference&#xA0;Range</th><th>Unit</th></tr><tr><td>Color of Urine</td></tr></table></div>"
        },
        "status": "final",
        "subject": {
          "reference": "urn:uuid:7160b576-d41a-4d01-930e-3ae7d89192e7",
          "display": "Θεμιστοκλής Λιναρδάκη"
        },
        "effectiveDateTime": "2018-11-21T06:16:00Z",
        "specimen": {
          "reference": "urn:uuid:b6502d06-180e-4a98-8cbb-a1ab36bf4854"
        }
      }
    },
    {
      "fullUrl": "urn:uuid:ad2d5a6f-1ef0-4e39-a3e3-a448b2726a08",
      "resource": {
        "resourceType": "Observation",
        "id": "ad2d5a6f-1ef0-4e39-a3e3-a448b2726a08",
        "meta": {
          "profile": [
            "http://hl7.eu/fhir/laboratory/StructureDefinition/Observation-resultslab-eu-lab"
          ]
        },
        "performer": [
          {
            "display": "The Central European Lab"
          }
        ],
        "category": [
          {
            "coding": [
              {
                "system": "http://terminology.hl7.org/CodeSystem/observation-category",
                "code": "laboratory"
              }
            ]
          }
        ],
        "code": {
          "coding": [
            {
              "code": "5792-7",
              "system": "http://loinc.org",
              "display": "Glucose [Mass/volume] in Urine by Test strip"
            }
          ],
          "text": "Glucose [Mass/volume] in Urine by Test strip"
        },
        "valueQuantity": {
          "system": "http://unitsofmeasure.org",
          "value": 2.2,
          "unit": "mg/dL",
          "code": "mg/dL"
        },
        "referenceRange": [
          {
            "low": {
              "value": 0,
              "code": "mg/dL",
              "system": "http://unitsofmeasure.org"
            }
          },
          {
            "high": {
              "value": 0.8,
              "code": "mg/dL",
              "system": "http://unitsofmeasure.org"
            }
          }
        ],
        "interpretation": [
          {
            "coding": [
              {
                "code": "H",
                "system": "http://terminology.hl7.org/CodeSystem/v3-ObservationInterpretation",
                "display": "High"
              }
            ]
          }
        ],
        "text": {
          "status": "generated",
          "div": "<div xmlns=\"http://www.w3.org/1999/xhtml\"><table class=\"hl7__eu__lab__report\"><tr><th>Test</th><th>21-Nov-2018</th><th>Reference&#xA0;Range</th><th>Unit</th></tr><tr><td>Glucose [Mass/volume] in Urine by Test strip</td><td>2.2</td><td>0 - 0.8</td><td>H</td><td>mg/dL</td></tr></table></div>"
        },
        "status": "final",
        "subject": {
          "reference": "urn:uuid:7160b576-d41a-4d01-930e-3ae7d89192e7",
          "display": "Θεμιστοκλής Λιναρδάκη"
        },
        "effectiveDateTime": "2018-11-21T06:16:00Z",
        "specimen": {
          "reference": "urn:uuid:b6502d06-180e-4a98-8cbb-a1ab36bf4854"
        }
      }
    },
    {
      "fullUrl": "urn:uuid:1dd1148c-4177-413d-bdfc-349452ec9cb0",
      "resource": {
        "resourceType": "Observation",
        "id": "1dd1148c-4177-413d-bdfc-349452ec9cb0",
        "meta": {
          "profile": [
            "http://hl7.eu/fhir/laboratory/StructureDefinition/Observation-resultslab-eu-lab"
          ]
        },
        "performer": [
          {
            "display": "The Central European Lab"
          }
        ],
        "category": [
          {
            "coding": [
              {
                "system": "http://terminology.hl7.org/CodeSystem/observation-category",
                "code": "laboratory"
              }
            ]
          }
        ],
        "code": {
          "coding": [
            {
              "code": "25428-4",
              "system": "http://loinc.org",
              "display": "Glucose [Presence] in Urine by Test strip"
            }
          ],
          "text": "Glucose [Presence] in Urine by Test strip"
        },
        "text": {
          "status": "generated",
          "div": "<div xmlns=\"http://www.w3.org/1999/xhtml\"><table class=\"hl7__eu__lab__report\"><tr><th>Test</th><th>21-Nov-2018</th><th>Reference&#xA0;Range</th><th>Unit</th></tr><tr><td>Glucose [Presence] in Urine by Test strip</td></tr></table></div>"
        },
        "status": "final",
        "subject": {
          "reference": "urn:uuid:7160b576-d41a-4d01-930e-3ae7d89192e7",
          "display": "Θεμιστοκλής Λιναρδάκη"
        },
        "effectiveDateTime": "2018-11-21T06:16:00Z",
        "specimen": {
          "reference": "urn:uuid:b6502d06-180e-4a98-8cbb-a1ab36bf4854"
        }
      }
    },
    {
      "fullUrl": "urn:uuid:45af4098-3e5c-4793-984b-9e43c8605bf9",
      "resource": {
        "resourceType": "Observation",
        "id": "45af4098-3e5c-4793-984b-9e43c8605bf9",
        "meta": {
          "profile": [
            "http://hl7.eu/fhir/laboratory/StructureDefinition/Observation-resultslab-eu-lab"
          ]
        },
        "performer": [
          {
            "display": "The Central European Lab"
          }
        ],
        "category": [
          {
            "coding": [
              {
                "system": "http://terminology.hl7.org/CodeSystem/observation-category",
                "code": "laboratory"
              }
            ]
          }
        ],
        "code": {
          "coding": [
            {
              "code": "20505-4",
              "system": "http://loinc.org",
              "display": "Bilirubin.total [Mass/volume] in Urine by Test strip"
            }
          ],
          "text": "Bilirubin.total [Mass/volume] in Urine by Test strip"
        },
        "valueQuantity": {
          "system": "http://unitsofmeasure.org",
          "value": 0.4,
          "unit": "mg/dL",
          "code": "mg/dL"
        },
        "referenceRange": [
          {
            "low": {
              "value": 0.2,
              "code": "mg/dL",
              "system": "http://unitsofmeasure.org"
            }
          },
          {
            "high": {
              "value": 1,
              "code": "mg/dL",
              "system": "http://unitsofmeasure.org"
            }
          }
        ],
        "text": {
          "status": "generated",
          "div": "<div xmlns=\"http://www.w3.org/1999/xhtml\"><table class=\"hl7__eu__lab__report\"><tr><th>Test</th><th>21-Nov-2018</th><th>Reference&#xA0;Range</th><th>Unit</th></tr><tr><td>Bilirubin.total [Mass/volume] in Urine by Test strip</td><td>0.4</td><td>0.2 - 1</td><td></td><td>mg/dL</td></tr></table></div>"
        },
        "status": "final",
        "subject": {
          "reference": "urn:uuid:7160b576-d41a-4d01-930e-3ae7d89192e7",
          "display": "Θεμιστοκλής Λιναρδάκη"
        },
        "effectiveDateTime": "2018-11-21T06:16:00Z",
        "specimen": {
          "reference": "urn:uuid:b6502d06-180e-4a98-8cbb-a1ab36bf4854"
        }
      }
    },
    {
      "fullUrl": "urn:uuid:6dbd8a8d-ff7d-4be1-8cca-6dc647580dee",
      "resource": {
        "resourceType": "Observation",
        "id": "6dbd8a8d-ff7d-4be1-8cca-6dc647580dee",
        "meta": {
          "profile": [
            "http://hl7.eu/fhir/laboratory/StructureDefinition/Observation-resultslab-eu-lab"
          ]
        },
        "performer": [
          {
            "display": "The Central European Lab"
          }
        ],
        "category": [
          {
            "coding": [
              {
                "system": "http://terminology.hl7.org/CodeSystem/observation-category",
                "code": "laboratory"
              }
            ]
          }
        ],
        "code": {
          "coding": [
            {
              "code": "5770-3",
              "system": "http://loinc.org",
              "display": "Bilirubin.total [Presence] in Urine by Test strip"
            }
          ],
          "text": "Bilirubin.total [Presence] in Urine by Test strip"
        },
        "text": {
          "status": "generated",
          "div": "<div xmlns=\"http://www.w3.org/1999/xhtml\"><table class=\"hl7__eu__lab__report\"><tr><th>Test</th><th>21-Nov-2018</th><th>Reference&#xA0;Range</th><th>Unit</th></tr><tr><td>Bilirubin.total [Presence] in Urine by Test strip</td></tr></table></div>"
        },
        "status": "final",
        "subject": {
          "reference": "urn:uuid:7160b576-d41a-4d01-930e-3ae7d89192e7",
          "display": "Θεμιστοκλής Λιναρδάκη"
        },
        "effectiveDateTime": "2018-11-21T06:16:00Z",
        "specimen": {
          "reference": "urn:uuid:b6502d06-180e-4a98-8cbb-a1ab36bf4854"
        }
      }
    },
    {
      "fullUrl": "urn:uuid:ec57bcba-a26f-428d-b02a-cdff081c1b53",
      "resource": {
        "resourceType": "Observation",
        "id": "ec57bcba-a26f-428d-b02a-cdff081c1b53",
        "meta": {
          "profile": [
            "http://hl7.eu/fhir/laboratory/StructureDefinition/Observation-resultslab-eu-lab"
          ]
        },
        "performer": [
          {
            "display": "The Central European Lab"
          }
        ],
        "category": [
          {
            "coding": [
              {
                "system": "http://terminology.hl7.org/CodeSystem/observation-category",
                "code": "laboratory"
              }
            ]
          }
        ],
        "code": {
          "coding": [
            {
              "code": "5797-6",
              "system": "http://loinc.org",
              "display": "Ketones [Mass/volume] in Urine by Test strip"
            }
          ],
          "text": "Ketones [Mass/volume] in Urine by Test strip"
        },
        "valueQuantity": {
          "system": "http://unitsofmeasure.org",
          "value": 16.6,
          "unit": "mg/dL",
          "code": "mg/dL"
        },
        "referenceRange": [
          {
            "low": {
              "value": 0,
              "code": "mg/dL",
              "system": "http://unitsofmeasure.org"
            }
          },
          {
            "high": {
              "value": 5,
              "code": "mg/dL",
              "system": "http://unitsofmeasure.org"
            }
          }
        ],
        "interpretation": [
          {
            "coding": [
              {
                "code": "H",
                "system": "http://terminology.hl7.org/CodeSystem/v3-ObservationInterpretation",
                "display": "High"
              }
            ]
          }
        ],
        "text": {
          "status": "generated",
          "div": "<div xmlns=\"http://www.w3.org/1999/xhtml\"><table class=\"hl7__eu__lab__report\"><tr><th>Test</th><th>21-Nov-2018</th><th>Reference&#xA0;Range</th><th>Unit</th></tr><tr><td>Ketones [Mass/volume] in Urine by Test strip</td><td>16.6</td><td>0 - 5</td><td>H</td><td>mg/dL</td></tr></table></div>"
        },
        "status": "final",
        "subject": {
          "reference": "urn:uuid:7160b576-d41a-4d01-930e-3ae7d89192e7",
          "display": "Θεμιστοκλής Λιναρδάκη"
        },
        "effectiveDateTime": "2018-11-21T06:16:00Z",
        "specimen": {
          "reference": "urn:uuid:b6502d06-180e-4a98-8cbb-a1ab36bf4854"
        }
      }
    },
    {
      "fullUrl": "urn:uuid:0df68520-a2db-4cca-9f16-8fa4d048591c",
      "resource": {
        "resourceType": "Observation",
        "id": "0df68520-a2db-4cca-9f16-8fa4d048591c",
        "meta": {
          "profile": [
            "http://hl7.eu/fhir/laboratory/StructureDefinition/Observation-resultslab-eu-lab"
          ]
        },
        "performer": [
          {
            "display": "The Central European Lab"
          }
        ],
        "category": [
          {
            "coding": [
              {
                "system": "http://terminology.hl7.org/CodeSystem/observation-category",
                "code": "laboratory"
              }
            ]
          }
        ],
        "code": {
          "coding": [
            {
              "code": "2514-8",
              "system": "http://loinc.org",
              "display": "Ketones [Presence] in Urine by Test strip"
            }
          ],
          "text": "Ketones [Presence] in Urine by Test strip"
        },
        "text": {
          "status": "generated",
          "div": "<div xmlns=\"http://www.w3.org/1999/xhtml\"><table class=\"hl7__eu__lab__report\"><tr><th>Test</th><th>21-Nov-2018</th><th>Reference&#xA0;Range</th><th>Unit</th></tr><tr><td>Ketones [Presence] in Urine by Test strip</td></tr></table></div>"
        },
        "status": "final",
        "subject": {
          "reference": "urn:uuid:7160b576-d41a-4d01-930e-3ae7d89192e7",
          "display": "Θεμιστοκλής Λιναρδάκη"
        },
        "effectiveDateTime": "2018-11-21T06:16:00Z",
        "specimen": {
          "reference": "urn:uuid:b6502d06-180e-4a98-8cbb-a1ab36bf4854"
        }
      }
    },
    {
      "fullUrl": "urn:uuid:07361f6a-be9d-4932-9dc5-f362db614052",
      "resource": {
        "resourceType": "Observation",
        "id": "07361f6a-be9d-4932-9dc5-f362db614052",
        "meta": {
          "profile": [
            "http://hl7.eu/fhir/laboratory/StructureDefinition/Observation-resultslab-eu-lab"
          ]
        },
        "performer": [
          {
            "display": "The Central European Lab"
          }
        ],
        "category": [
          {
            "coding": [
              {
                "system": "http://terminology.hl7.org/CodeSystem/observation-category",
                "code": "laboratory"
              }
            ]
          }
        ],
        "code": {
          "coding": [
            {
              "code": "5811-5",
              "system": "http://loinc.org",
              "display": "Specific gravity of Urine by Test strip"
            }
          ],
          "text": "Specific gravity of Urine by Test strip"
        },
        "valueQuantity": {
          "system": "http://unitsofmeasure.org",
          "value": 1,
          "unit": "{nominal}",
          "code": "{nominal}"
        },
        "referenceRange": [
          {
            "low": {
              "value": 1.005,
              "code": "g/mL",
              "system": "http://unitsofmeasure.org"
            }
          },
          {
            "high": {
              "value": 1.03,
              "code": "g/mL",
              "system": "http://unitsofmeasure.org"
            }
          }
        ],
        "interpretation": [
          {
            "coding": [
              {
                "code": "L",
                "system": "http://terminology.hl7.org/CodeSystem/v3-ObservationInterpretation",
                "display": "Low"
              }
            ]
          }
        ],
        "text": {
          "status": "generated",
          "div": "<div xmlns=\"http://www.w3.org/1999/xhtml\"><table class=\"hl7__eu__lab__report\"><tr><th>Test</th><th>21-Nov-2018</th><th>Reference&#xA0;Range</th><th>Unit</th></tr><tr><td>Specific gravity of Urine by Test strip</td><td>1.0</td><td>1.005 - 1.03</td><td>L</td><td>{nominal}</td></tr></table></div>"
        },
        "status": "final",
        "subject": {
          "reference": "urn:uuid:7160b576-d41a-4d01-930e-3ae7d89192e7",
          "display": "Θεμιστοκλής Λιναρδάκη"
        },
        "effectiveDateTime": "2018-11-21T06:16:00Z",
        "specimen": {
          "reference": "urn:uuid:b6502d06-180e-4a98-8cbb-a1ab36bf4854"
        }
      }
    },
    {
      "fullUrl": "urn:uuid:1156f969-7061-4f77-98f3-c16c94b028c7",
      "resource": {
        "resourceType": "Observation",
        "id": "1156f969-7061-4f77-98f3-c16c94b028c7",
        "meta": {
          "profile": [
            "http://hl7.eu/fhir/laboratory/StructureDefinition/Observation-resultslab-eu-lab"
          ]
        },
        "performer": [
          {
            "display": "The Central European Lab"
          }
        ],
        "category": [
          {
            "coding": [
              {
                "system": "http://terminology.hl7.org/CodeSystem/observation-category",
                "code": "laboratory"
              }
            ]
          }
        ],
        "code": {
          "coding": [
            {
              "code": "5803-2",
              "system": "http://loinc.org",
              "display": "pH of Urine by Test strip"
            }
          ],
          "text": "pH of Urine by Test strip"
        },
        "valueQuantity": {
          "system": "http://unitsofmeasure.org",
          "value": 6.2,
          "unit": "pH",
          "code": "pH"
        },
        "referenceRange": [
          {
            "low": {
              "value": 4.6,
              "code": "pH",
              "system": "http://unitsofmeasure.org"
            }
          },
          {
            "high": {
              "value": 7,
              "code": "pH",
              "system": "http://unitsofmeasure.org"
            }
          }
        ],
        "text": {
          "status": "generated",
          "div": "<div xmlns=\"http://www.w3.org/1999/xhtml\"><table class=\"hl7__eu__lab__report\"><tr><th>Test</th><th>21-Nov-2018</th><th>Reference&#xA0;Range</th><th>Unit</th></tr><tr><td>pH of Urine by Test strip</td><td>6.2</td><td>4.6 - 7</td><td></td><td>pH</td></tr></table></div>"
        },
        "status": "final",
        "subject": {
          "reference": "urn:uuid:7160b576-d41a-4d01-930e-3ae7d89192e7",
          "display": "Θεμιστοκλής Λιναρδάκη"
        },
        "effectiveDateTime": "2018-11-21T06:16:00Z",
        "specimen": {
          "reference": "urn:uuid:b6502d06-180e-4a98-8cbb-a1ab36bf4854"
        }
      }
    },
    {
      "fullUrl": "urn:uuid:074455ea-e0cf-4e0c-be14-d6dfd3c2fcad",
      "resource": {
        "resourceType": "Observation",
        "id": "074455ea-e0cf-4e0c-be14-d6dfd3c2fcad",
        "meta": {
          "profile": [
            "http://hl7.eu/fhir/laboratory/StructureDefinition/Observation-resultslab-eu-lab"
          ]
        },
        "performer": [
          {
            "display": "The Central European Lab"
          }
        ],
        "category": [
          {
            "coding": [
              {
                "system": "http://terminology.hl7.org/CodeSystem/observation-category",
                "code": "laboratory"
              }
            ]
          }
        ],
        "code": {
          "coding": [
            {
              "code": "5804-0",
              "system": "http://loinc.org",
              "display": "Protein [Mass/volume] in Urine by Test strip"
            }
          ],
          "text": "Protein [Mass/volume] in Urine by Test strip"
        },
        "valueQuantity": {
          "system": "http://unitsofmeasure.org",
          "value": 397.5,
          "unit": "mg/dL",
          "code": "mg/dL"
        },
        "referenceRange": [
          {
            "low": {
              "value": 0,
              "code": "mg/dL",
              "system": "http://unitsofmeasure.org"
            }
          },
          {
            "high": {
              "value": 150,
              "code": "mg/dL",
              "system": "http://unitsofmeasure.org"
            }
          }
        ],
        "interpretation": [
          {
            "coding": [
              {
                "code": "H",
                "system": "http://terminology.hl7.org/CodeSystem/v3-ObservationInterpretation",
                "display": "High"
              }
            ]
          }
        ],
        "text": {
          "status": "generated",
          "div": "<div xmlns=\"http://www.w3.org/1999/xhtml\"><table class=\"hl7__eu__lab__report\"><tr><th>Test</th><th>21-Nov-2018</th><th>Reference&#xA0;Range</th><th>Unit</th></tr><tr><td>Protein [Mass/volume] in Urine by Test strip</td><td>397.5</td><td>0 - 150</td><td>H</td><td>mg/dL</td></tr></table></div>"
        },
        "status": "final",
        "subject": {
          "reference": "urn:uuid:7160b576-d41a-4d01-930e-3ae7d89192e7",
          "display": "Θεμιστοκλής Λιναρδάκη"
        },
        "effectiveDateTime": "2018-11-21T06:16:00Z",
        "specimen": {
          "reference": "urn:uuid:b6502d06-180e-4a98-8cbb-a1ab36bf4854"
        }
      }
    },
    {
      "fullUrl": "urn:uuid:eda3f2a5-b7e3-4f4c-9a01-5b38469e498b",
      "resource": {
        "resourceType": "Observation",
        "id": "eda3f2a5-b7e3-4f4c-9a01-5b38469e498b",
        "meta": {
          "profile": [
            "http://hl7.eu/fhir/laboratory/StructureDefinition/Observation-resultslab-eu-lab"
          ]
        },
        "performer": [
          {
            "display": "The Central European Lab"
          }
        ],
        "category": [
          {
            "coding": [
              {
                "system": "http://terminology.hl7.org/CodeSystem/observation-category",
                "code": "laboratory"
              }
            ]
          }
        ],
        "code": {
          "coding": [
            {
              "code": "20454-5",
              "system": "http://loinc.org",
              "display": "Protein [Presence] in Urine by Test strip"
            }
          ],
          "text": "Protein [Presence] in Urine by Test strip"
        },
        "text": {
          "status": "generated",
          "div": "<div xmlns=\"http://www.w3.org/1999/xhtml\"><table class=\"hl7__eu__lab__report\"><tr><th>Test</th><th>21-Nov-2018</th><th>Reference&#xA0;Range</th><th>Unit</th></tr><tr><td>Protein [Presence] in Urine by Test strip</td></tr></table></div>"
        },
        "status": "final",
        "subject": {
          "reference": "urn:uuid:7160b576-d41a-4d01-930e-3ae7d89192e7",
          "display": "Θεμιστοκλής Λιναρδάκη"
        },
        "effectiveDateTime": "2018-11-21T06:16:00Z",
        "specimen": {
          "reference": "urn:uuid:b6502d06-180e-4a98-8cbb-a1ab36bf4854"
        }
      }
    },
    {
      "fullUrl": "urn:uuid:f43689c8-f0bc-4b3e-a739-f4248a3012a1",
      "resource": {
        "resourceType": "Observation",
        "id": "f43689c8-f0bc-4b3e-a739-f4248a3012a1",
        "meta": {
          "profile": [
            "http://hl7.eu/fhir/laboratory/StructureDefinition/Observation-resultslab-eu-lab"
          ]
        },
        "performer": [
          {
            "display": "The Central European Lab"
          }
        ],
        "category": [
          {
            "coding": [
              {
                "system": "http://terminology.hl7.org/CodeSystem/observation-category",
                "code": "laboratory"
              }
            ]
          }
        ],
        "code": {
          "coding": [
            {
              "code": "5802-4",
              "system": "http://loinc.org",
              "display": "Nitrite [Presence] in Urine by Test strip"
            }
          ],
          "text": "Nitrite [Presence] in Urine by Test strip"
        },
        "text": {
          "status": "generated",
          "div": "<div xmlns=\"http://www.w3.org/1999/xhtml\"><table class=\"hl7__eu__lab__report\"><tr><th>Test</th><th>21-Nov-2018</th><th>Reference&#xA0;Range</th><th>Unit</th></tr><tr><td>Nitrite [Presence] in Urine by Test strip</td></tr></table></div>"
        },
        "status": "final",
        "subject": {
          "reference": "urn:uuid:7160b576-d41a-4d01-930e-3ae7d89192e7",
          "display": "Θεμιστοκλής Λιναρδάκη"
        },
        "effectiveDateTime": "2018-11-21T06:16:00Z",
        "specimen": {
          "reference": "urn:uuid:b6502d06-180e-4a98-8cbb-a1ab36bf4854"
        }
      }
    },
    {
      "fullUrl": "urn:uuid:7424a8a3-7ab9-4982-a457-6df216d3dc8c",
      "resource": {
        "resourceType": "Observation",
        "id": "7424a8a3-7ab9-4982-a457-6df216d3dc8c",
        "meta": {
          "profile": [
            "http://hl7.eu/fhir/laboratory/StructureDefinition/Observation-resultslab-eu-lab"
          ]
        },
        "performer": [
          {
            "display": "The Central European Lab"
          }
        ],
        "category": [
          {
            "coding": [
              {
                "system": "http://terminology.hl7.org/CodeSystem/observation-category",
                "code": "laboratory"
              }
            ]
          }
        ],
        "code": {
          "coding": [
            {
              "code": "5794-3",
              "system": "http://loinc.org",
              "display": "Hemoglobin [Presence] in Urine by Test strip"
            }
          ],
          "text": "Hemoglobin [Presence] in Urine by Test strip"
        },
        "text": {
          "status": "generated",
          "div": "<div xmlns=\"http://www.w3.org/1999/xhtml\"><table class=\"hl7__eu__lab__report\"><tr><th>Test</th><th>21-Nov-2018</th><th>Reference&#xA0;Range</th><th>Unit</th></tr><tr><td>Hemoglobin [Presence] in Urine by Test strip</td></tr></table></div>"
        },
        "status": "final",
        "subject": {
          "reference": "urn:uuid:7160b576-d41a-4d01-930e-3ae7d89192e7",
          "display": "Θεμιστοκλής Λιναρδάκη"
        },
        "effectiveDateTime": "2018-11-21T06:16:00Z",
        "specimen": {
          "reference": "urn:uuid:b6502d06-180e-4a98-8cbb-a1ab36bf4854"
        }
      }
    },
    {
      "fullUrl": "urn:uuid:ac693a21-e7d3-4027-a0e9-440ae8b1ffa3",
      "resource": {
        "resourceType": "Observation",
        "id": "ac693a21-e7d3-4027-a0e9-440ae8b1ffa3",
        "meta": {
          "profile": [
            "http://hl7.eu/fhir/laboratory/StructureDefinition/Observation-resultslab-eu-lab"
          ]
        },
        "performer": [
          {
            "display": "The Central European Lab"
          }
        ],
        "category": [
          {
            "coding": [
              {
                "system": "http://terminology.hl7.org/CodeSystem/observation-category",
                "code": "laboratory"
              }
            ]
          }
        ],
        "code": {
          "coding": [
            {
              "code": "5799-2",
              "system": "http://loinc.org",
              "display": "Leukocyte esterase [Presence] in Urine by Test strip"
            }
          ],
          "text": "Leukocyte esterase [Presence] in Urine by Test strip"
        },
        "text": {
          "status": "generated",
          "div": "<div xmlns=\"http://www.w3.org/1999/xhtml\"><table class=\"hl7__eu__lab__report\"><tr><th>Test</th><th>21-Nov-2018</th><th>Reference&#xA0;Range</th><th>Unit</th></tr><tr><td>Leukocyte esterase [Presence] in Urine by Test strip</td></tr></table></div>"
        },
        "status": "final",
        "subject": {
          "reference": "urn:uuid:7160b576-d41a-4d01-930e-3ae7d89192e7",
          "display": "Θεμιστοκλής Λιναρδάκη"
        },
        "effectiveDateTime": "2018-11-21T06:16:00Z",
        "specimen": {
          "reference": "urn:uuid:b6502d06-180e-4a98-8cbb-a1ab36bf4854"
        }
      }
    },
    {
      "fullUrl": "urn:uuid:aec6c95a-4e5a-4691-b7c4-bd0ebbef8ba5",
      "resource": {
        "resourceType": "Observation",
        "id": "aec6c95a-4e5a-4691-b7c4-bd0ebbef8ba5",
        "meta": {
          "profile": [
            "http://hl7.eu/fhir/laboratory/StructureDefinition/Observation-resultslab-eu-lab"
          ]
        },
        "performer": [
          {
            "display": "The Central European Lab"
          }
        ],
        "category": [
          {
            "coding": [
              {
                "system": "http://terminology.hl7.org/CodeSystem/observation-category",
                "code": "laboratory"
              }
            ]
          }
        ],
        "code": {
          "coding": [
            {
              "code": "4548-4",
              "system": "http://loinc.org",
              "display": "Hemoglobin A1c/Hemoglobin.total in Blood"
            }
          ],
          "text": "Hemoglobin A1c/Hemoglobin.total in Blood"
        },
        "valueQuantity": {
          "system": "http://unitsofmeasure.org",
          "value": 2.9,
          "unit": "%",
          "code": "%"
        },
        "referenceRange": [
          {
            "low": {
              "value": 4.3,
              "code": "%",
              "system": "http://unitsofmeasure.org"
            }
          },
          {
            "high": {
              "value": 6.4,
              "code": "%",
              "system": "http://unitsofmeasure.org"
            }
          }
        ],
        "interpretation": [
          {
            "coding": [
              {
                "code": "L",
                "system": "http://terminology.hl7.org/CodeSystem/v3-ObservationInterpretation",
                "display": "Low"
              }
            ]
          }
        ],
        "text": {
          "status": "generated",
          "div": "<div xmlns=\"http://www.w3.org/1999/xhtml\"><table class=\"hl7__eu__lab__report\"><tr><th>Test</th><th>21-Nov-2018</th><th>Reference&#xA0;Range</th><th>Unit</th></tr><tr><td>Hemoglobin A1c/Hemoglobin.total in Blood</td><td>2.9</td><td>4.3 - 6.4</td><td>L</td><td>%</td></tr></table></div>"
        },
        "status": "final",
        "subject": {
          "reference": "urn:uuid:7160b576-d41a-4d01-930e-3ae7d89192e7",
          "display": "Θεμιστοκλής Λιναρδάκη"
        },
        "effectiveDateTime": "2018-11-21T06:16:00Z",
        "specimen": {
          "reference": "urn:uuid:54e7b471-c097-4d13-8c2d-342373faa73a"
        }
      }
    },
    {
      "fullUrl": "urn:uuid:19badcd4-bf0e-401b-abeb-735bcbeecfbc",
      "resource": {
        "resourceType": "Observation",
        "id": "19badcd4-bf0e-401b-abeb-735bcbeecfbc",
        "meta": {
          "profile": [
            "http://hl7.eu/fhir/laboratory/StructureDefinition/Observation-resultslab-eu-lab"
          ]
        },
        "performer": [
          {
            "display": "The Central European Lab"
          }
        ],
        "category": [
          {
            "coding": [
              {
                "system": "http://terminology.hl7.org/CodeSystem/observation-category",
                "code": "laboratory"
              }
            ]
          }
        ],
        "code": {
          "coding": [
            {
              "code": "2339-0",
              "system": "http://loinc.org",
              "display": "Glucose [Mass/volume] in Blood"
            }
          ],
          "text": "Glucose [Mass/volume] in Blood"
        },
        "valueQuantity": {
          "system": "http://unitsofmeasure.org",
          "value": 67.5,
          "unit": "mg/dL",
          "code": "mg/dL"
        },
        "referenceRange": [
          {
            "low": {
              "value": 70,
              "code": "mg/dL",
              "system": "http://unitsofmeasure.org"
            }
          },
          {
            "high": {
              "value": 140,
              "code": "mg/dL",
              "system": "http://unitsofmeasure.org"
            }
          }
        ],
        "interpretation": [
          {
            "coding": [
              {
                "code": "L",
                "system": "http://terminology.hl7.org/CodeSystem/v3-ObservationInterpretation",
                "display": "Low"
              }
            ]
          }
        ],
        "text": {
          "status": "generated",
          "div": "<div xmlns=\"http://www.w3.org/1999/xhtml\"><table class=\"hl7__eu__lab__report\"><tr><th>Test</th><th>21-Nov-2018</th><th>Reference&#xA0;Range</th><th>Unit</th></tr><tr><td>Glucose [Mass/volume] in Blood</td><td>67.5</td><td>70 - 140</td><td>L</td><td>mg/dL</td></tr></table></div>"
        },
        "status": "final",
        "subject": {
          "reference": "urn:uuid:7160b576-d41a-4d01-930e-3ae7d89192e7",
          "display": "Θεμιστοκλής Λιναρδάκη"
        },
        "effectiveDateTime": "2018-11-21T06:16:00Z",
        "specimen": {
          "reference": "urn:uuid:54e7b471-c097-4d13-8c2d-342373faa73a"
        }
      }
    },
    {
      "fullUrl": "urn:uuid:0063200c-8499-4e52-8e45-6f3d42bb606f",
      "resource": {
        "resourceType": "Observation",
        "id": "0063200c-8499-4e52-8e45-6f3d42bb606f",
        "meta": {
          "profile": [
            "http://hl7.eu/fhir/laboratory/StructureDefinition/Observation-resultslab-eu-lab"
          ]
        },
        "performer": [
          {
            "display": "The Central European Lab"
          }
        ],
        "category": [
          {
            "coding": [
              {
                "system": "http://terminology.hl7.org/CodeSystem/observation-category",
                "code": "laboratory"
              }
            ]
          }
        ],
        "code": {
          "coding": [
            {
              "code": "6299-2",
              "system": "http://loinc.org",
              "display": "Urea nitrogen [Mass/volume] in Blood"
            }
          ],
          "text": "Urea nitrogen [Mass/volume] in Blood"
        },
        "valueQuantity": {
          "system": "http://unitsofmeasure.org",
          "value": 19,
          "unit": "mg/dL",
          "code": "mg/dL"
        },
        "referenceRange": [
          {
            "low": {
              "value": 7,
              "code": "mg/dL",
              "system": "http://unitsofmeasure.org"
            }
          },
          {
            "high": {
              "value": 20,
              "code": "mg/dL",
              "system": "http://unitsofmeasure.org"
            }
          }
        ],
        "text": {
          "status": "generated",
          "div": "<div xmlns=\"http://www.w3.org/1999/xhtml\"><table class=\"hl7__eu__lab__report\"><tr><th>Test</th><th>21-Nov-2018</th><th>Reference&#xA0;Range</th><th>Unit</th></tr><tr><td>Urea nitrogen [Mass/volume] in Blood</td><td>19.0</td><td>7 - 20</td><td></td><td>mg/dL</td></tr></table></div>"
        },
        "status": "final",
        "subject": {
          "reference": "urn:uuid:7160b576-d41a-4d01-930e-3ae7d89192e7",
          "display": "Θεμιστοκλής Λιναρδάκη"
        },
        "effectiveDateTime": "2018-11-21T06:16:00Z",
        "specimen": {
          "reference": "urn:uuid:54e7b471-c097-4d13-8c2d-342373faa73a"
        }
      }
    },
    {
      "fullUrl": "urn:uuid:721a61b3-9bdd-4790-a8ce-7fbae7cdbd56",
      "resource": {
        "resourceType": "Observation",
        "id": "721a61b3-9bdd-4790-a8ce-7fbae7cdbd56",
        "meta": {
          "profile": [
            "http://hl7.eu/fhir/laboratory/StructureDefinition/Observation-resultslab-eu-lab"
          ]
        },
        "performer": [
          {
            "display": "The Central European Lab"
          }
        ],
        "category": [
          {
            "coding": [
              {
                "system": "http://terminology.hl7.org/CodeSystem/observation-category",
                "code": "laboratory"
              }
            ]
          }
        ],
        "code": {
          "coding": [
            {
              "code": "38483-4",
              "system": "http://loinc.org",
              "display": "Creatinine [Mass/volume] in Blood"
            }
          ],
          "text": "Creatinine [Mass/volume] in Blood"
        },
        "valueQuantity": {
          "system": "http://unitsofmeasure.org",
          "value": 7.4,
          "unit": "mg/dL",
          "code": "mg/dL"
        },
        "referenceRange": [
          {
            "low": {
              "value": 0.6,
              "code": "mg/dL",
              "system": "http://unitsofmeasure.org"
            }
          },
          {
            "high": {
              "value": 1.3,
              "code": "mg/dL",
              "system": "http://unitsofmeasure.org"
            }
          }
        ],
        "interpretation": [
          {
            "coding": [
              {
                "code": "H",
                "system": "http://terminology.hl7.org/CodeSystem/v3-ObservationInterpretation",
                "display": "High"
              }
            ]
          }
        ],
        "text": {
          "status": "generated",
          "div": "<div xmlns=\"http://www.w3.org/1999/xhtml\"><table class=\"hl7__eu__lab__report\"><tr><th>Test</th><th>21-Nov-2018</th><th>Reference&#xA0;Range</th><th>Unit</th></tr><tr><td>Creatinine [Mass/volume] in Blood</td><td>7.4</td><td>0.6 - 1.3</td><td>H</td><td>mg/dL</td></tr></table></div>"
        },
        "status": "final",
        "subject": {
          "reference": "urn:uuid:7160b576-d41a-4d01-930e-3ae7d89192e7",
          "display": "Θεμιστοκλής Λιναρδάκη"
        },
        "effectiveDateTime": "2018-11-21T06:16:00Z",
        "specimen": {
          "reference": "urn:uuid:54e7b471-c097-4d13-8c2d-342373faa73a"
        }
      }
    },
    {
      "fullUrl": "urn:uuid:fdae23b9-6282-4536-8349-8f8e98c22572",
      "resource": {
        "resourceType": "Observation",
        "id": "fdae23b9-6282-4536-8349-8f8e98c22572",
        "meta": {
          "profile": [
            "http://hl7.eu/fhir/laboratory/StructureDefinition/Observation-resultslab-eu-lab"
          ]
        },
        "performer": [
          {
            "display": "The Central European Lab"
          }
        ],
        "category": [
          {
            "coding": [
              {
                "system": "http://terminology.hl7.org/CodeSystem/observation-category",
                "code": "laboratory"
              }
            ]
          }
        ],
        "code": {
          "coding": [
            {
              "code": "49765-1",
              "system": "http://loinc.org",
              "display": "Calcium [Mass/volume] in Blood"
            }
          ],
          "text": "Calcium [Mass/volume] in Blood"
        },
        "valueQuantity": {
          "system": "http://unitsofmeasure.org",
          "value": 9.3,
          "unit": "mg/dL",
          "code": "mg/dL"
        },
        "referenceRange": [
          {
            "low": {
              "value": 8.5,
              "code": "mg/dL",
              "system": "http://unitsofmeasure.org"
            }
          },
          {
            "high": {
              "value": 10.5,
              "code": "mg/dL",
              "system": "http://unitsofmeasure.org"
            }
          }
        ],
        "text": {
          "status": "generated",
          "div": "<div xmlns=\"http://www.w3.org/1999/xhtml\"><table class=\"hl7__eu__lab__report\"><tr><th>Test</th><th>21-Nov-2018</th><th>Reference&#xA0;Range</th><th>Unit</th></tr><tr><td>Calcium [Mass/volume] in Blood</td><td>9.3</td><td>8.5 - 10.5</td><td></td><td>mg/dL</td></tr></table></div>"
        },
        "status": "final",
        "subject": {
          "reference": "urn:uuid:7160b576-d41a-4d01-930e-3ae7d89192e7",
          "display": "Θεμιστοκλής Λιναρδάκη"
        },
        "effectiveDateTime": "2018-11-21T06:16:00Z",
        "specimen": {
          "reference": "urn:uuid:54e7b471-c097-4d13-8c2d-342373faa73a"
        }
      }
    },
    {
      "fullUrl": "urn:uuid:3ff92bc1-fda0-42bf-9eb1-fb799b974e53",
      "resource": {
        "resourceType": "Observation",
        "id": "3ff92bc1-fda0-42bf-9eb1-fb799b974e53",
        "meta": {
          "profile": [
            "http://hl7.eu/fhir/laboratory/StructureDefinition/Observation-resultslab-eu-lab"
          ]
        },
        "performer": [
          {
            "display": "The Central European Lab"
          }
        ],
        "category": [
          {
            "coding": [
              {
                "system": "http://terminology.hl7.org/CodeSystem/observation-category",
                "code": "laboratory"
              }
            ]
          }
        ],
        "code": {
          "coding": [
            {
              "code": "2947-0",
              "system": "http://loinc.org",
              "display": "Sodium [Moles/volume] in Blood"
            }
          ],
          "text": "Sodium [Moles/volume] in Blood"
        },
        "valueQuantity": {
          "system": "http://unitsofmeasure.org",
          "value": 141.1,
          "unit": "mmol/L",
          "code": "mmol/L"
        },
        "referenceRange": [
          {
            "low": {
              "value": 135,
              "code": "mmol/L",
              "system": "http://unitsofmeasure.org"
            }
          },
          {
            "high": {
              "value": 145,
              "code": "mmol/L",
              "system": "http://unitsofmeasure.org"
            }
          }
        ],
        "text": {
          "status": "generated",
          "div": "<div xmlns=\"http://www.w3.org/1999/xhtml\"><table class=\"hl7__eu__lab__report\"><tr><th>Test</th><th>21-Nov-2018</th><th>Reference&#xA0;Range</th><th>Unit</th></tr><tr><td>Sodium [Moles/volume] in Blood</td><td>141.1</td><td>135 - 145</td><td></td><td>mmol/L</td></tr></table></div>"
        },
        "status": "final",
        "subject": {
          "reference": "urn:uuid:7160b576-d41a-4d01-930e-3ae7d89192e7",
          "display": "Θεμιστοκλής Λιναρδάκη"
        },
        "effectiveDateTime": "2018-11-21T06:16:00Z",
        "specimen": {
          "reference": "urn:uuid:54e7b471-c097-4d13-8c2d-342373faa73a"
        }
      }
    },
    {
      "fullUrl": "urn:uuid:0e6ad2cd-d9db-4db3-a60f-dbed3246dba7",
      "resource": {
        "resourceType": "Observation",
        "id": "0e6ad2cd-d9db-4db3-a60f-dbed3246dba7",
        "meta": {
          "profile": [
            "http://hl7.eu/fhir/laboratory/StructureDefinition/Observation-resultslab-eu-lab"
          ]
        },
        "performer": [
          {
            "display": "The Central European Lab"
          }
        ],
        "category": [
          {
            "coding": [
              {
                "system": "http://terminology.hl7.org/CodeSystem/observation-category",
                "code": "laboratory"
              }
            ]
          }
        ],
        "code": {
          "coding": [
            {
              "code": "6298-4",
              "system": "http://loinc.org",
              "display": "Potassium [Moles/volume] in Blood"
            }
          ],
          "text": "Potassium [Moles/volume] in Blood"
        },
        "valueQuantity": {
          "system": "http://unitsofmeasure.org",
          "value": 4.5,
          "unit": "mmol/L",
          "code": "mmol/L"
        },
        "referenceRange": [
          {
            "low": {
              "value": 3.5,
              "code": "mmol/L",
              "system": "http://unitsofmeasure.org"
            }
          },
          {
            "high": {
              "value": 5.3,
              "code": "mmol/L",
              "system": "http://unitsofmeasure.org"
            }
          }
        ],
        "text": {
          "status": "generated",
          "div": "<div xmlns=\"http://www.w3.org/1999/xhtml\"><table class=\"hl7__eu__lab__report\"><tr><th>Test</th><th>21-Nov-2018</th><th>Reference&#xA0;Range</th><th>Unit</th></tr><tr><td>Potassium [Moles/volume] in Blood</td><td>4.5</td><td>3.5 - 5.3</td><td></td><td>mmol/L</td></tr></table></div>"
        },
        "status": "final",
        "subject": {
          "reference": "urn:uuid:7160b576-d41a-4d01-930e-3ae7d89192e7",
          "display": "Θεμιστοκλής Λιναρδάκη"
        },
        "effectiveDateTime": "2018-11-21T06:16:00Z",
        "specimen": {
          "reference": "urn:uuid:54e7b471-c097-4d13-8c2d-342373faa73a"
        }
      }
    },
    {
      "fullUrl": "urn:uuid:7d4e50c4-6da0-41f5-94c4-6925da2d7a70",
      "resource": {
        "resourceType": "Observation",
        "id": "7d4e50c4-6da0-41f5-94c4-6925da2d7a70",
        "meta": {
          "profile": [
            "http://hl7.eu/fhir/laboratory/StructureDefinition/Observation-resultslab-eu-lab"
          ]
        },
        "performer": [
          {
            "display": "The Central European Lab"
          }
        ],
        "category": [
          {
            "coding": [
              {
                "system": "http://terminology.hl7.org/CodeSystem/observation-category",
                "code": "laboratory"
              }
            ]
          }
        ],
        "code": {
          "coding": [
            {
              "code": "2069-3",
              "system": "http://loinc.org",
              "display": "Chloride [Moles/volume] in Blood"
            }
          ],
          "text": "Chloride [Moles/volume] in Blood"
        },
        "valueQuantity": {
          "system": "http://unitsofmeasure.org",
          "value": 101.7,
          "unit": "mmol/L",
          "code": "mmol/L"
        },
        "referenceRange": [
          {
            "low": {
              "value": 98,
              "code": "mmol/L",
              "system": "http://unitsofmeasure.org"
            }
          },
          {
            "high": {
              "value": 110,
              "code": "mmol/L",
              "system": "http://unitsofmeasure.org"
            }
          }
        ],
        "text": {
          "status": "generated",
          "div": "<div xmlns=\"http://www.w3.org/1999/xhtml\"><table class=\"hl7__eu__lab__report\"><tr><th>Test</th><th>21-Nov-2018</th><th>Reference&#xA0;Range</th><th>Unit</th></tr><tr><td>Chloride [Moles/volume] in Blood</td><td>101.7</td><td>98 - 110</td><td></td><td>mmol/L</td></tr></table></div>"
        },
        "status": "final",
        "subject": {
          "reference": "urn:uuid:7160b576-d41a-4d01-930e-3ae7d89192e7",
          "display": "Θεμιστοκλής Λιναρδάκη"
        },
        "effectiveDateTime": "2018-11-21T06:16:00Z",
        "specimen": {
          "reference": "urn:uuid:54e7b471-c097-4d13-8c2d-342373faa73a"
        }
      }
    },
    {
      "fullUrl": "urn:uuid:e651eb9a-044d-45f2-8ed3-b629e9f4dbba",
      "resource": {
        "resourceType": "Observation",
        "id": "e651eb9a-044d-45f2-8ed3-b629e9f4dbba",
        "meta": {
          "profile": [
            "http://hl7.eu/fhir/laboratory/StructureDefinition/Observation-resultslab-eu-lab"
          ]
        },
        "performer": [
          {
            "display": "The Central European Lab"
          }
        ],
        "category": [
          {
            "coding": [
              {
                "system": "http://terminology.hl7.org/CodeSystem/observation-category",
                "code": "laboratory"
              }
            ]
          }
        ],
        "code": {
          "coding": [
            {
              "code": "20565-8",
              "system": "http://loinc.org",
              "display": "Carbon dioxide, total [Moles/volume] in Blood"
            }
          ],
          "text": "Carbon dioxide, total [Moles/volume] in Blood"
        },
        "valueQuantity": {
          "system": "http://unitsofmeasure.org",
          "value": 20.7,
          "unit": "mmol/L",
          "code": "mmol/L"
        },
        "referenceRange": [
          {
            "low": {
              "value": 22,
              "code": "mmol/L",
              "system": "http://unitsofmeasure.org"
            }
          },
          {
            "high": {
              "value": 29,
              "code": "mmol/L",
              "system": "http://unitsofmeasure.org"
            }
          }
        ],
        "interpretation": [
          {
            "coding": [
              {
                "code": "L",
                "system": "http://terminology.hl7.org/CodeSystem/v3-ObservationInterpretation",
                "display": "Low"
              }
            ]
          }
        ],
        "text": {
          "status": "generated",
          "div": "<div xmlns=\"http://www.w3.org/1999/xhtml\"><table class=\"hl7__eu__lab__report\"><tr><th>Test</th><th>21-Nov-2018</th><th>Reference&#xA0;Range</th><th>Unit</th></tr><tr><td>Carbon dioxide, total [Moles/volume] in Blood</td><td>20.7</td><td>22 - 29</td><td>L</td><td>mmol/L</td></tr></table></div>"
        },
        "status": "final",
        "subject": {
          "reference": "urn:uuid:7160b576-d41a-4d01-930e-3ae7d89192e7",
          "display": "Θεμιστοκλής Λιναρδάκη"
        },
        "effectiveDateTime": "2018-11-21T06:16:00Z",
        "specimen": {
          "reference": "urn:uuid:54e7b471-c097-4d13-8c2d-342373faa73a"
        }
      }
    },
    {
      "fullUrl": "urn:uuid:6aa62890-abc1-4def-b325-83a0dfbc4a36",
      "resource": {
        "resourceType": "Device",
        "id": "6aa62890-abc1-4def-b325-83a0dfbc4a36",
        "deviceName": [
          {
            "name": "SYNDERAI Synthetic Generator",
            "type": "manufacturer-name"
          }
        ],
        "version": [
          {
            "value": "5.0"
          }
        ],
        "text": {
          "status": "generated",
          "div": "<div xmlns=\"http://www.w3.org/1999/xhtml\">SYNDERAI Synthetic Generator v5.0</div>"
        },
        "status": "active\"",
        "distinctIdentifier": "synderai-generator-50",
        "manufacturer": "SYNDERAI Project"
      }
    },
    {
      "fullUrl": "urn:uuid:27c0e6e7-8056-42dd-ab35-1148270805f5",
      "resource": {
        "resourceType": "Provenance",
        "id": "27c0e6e7-8056-42dd-ab35-1148270805f5",
        "target": [
          {
            "reference": "Patient/7160b576-d41a-4d01-930e-3ae7d89192e7"
          },
          {
            "reference": "Bundle/b0c897ab-a578-4657-be0c-105da9985214"
          },
          {
            "reference": "Composition/f3bef3a1-8f48-4553-8b83-1cd5bcb1f9fc"
          },
          {
            "reference": "PractitionerRole/f1573ab5-ec1a-4858-9230-709bcb05ac0b"
          },
          {
            "reference": "Practitioner/9e56fd18-f2e2-4fd7-86d0-f2e9d87b5739"
          },
          {
            "reference": "PractitionerRole/2a613c1a-c4fd-47dd-a044-5798a792134f"
          },
          {
            "reference": "Organization/dbb48500-eb56-44b7-9178-bfd6f28ab703"
          }
        ],
        "activity": {
          "text": "Synthetic Example Data Generation"
        },
        "policy": [
          "https://synderai.net/synderai-synthetic-data-policy"
        ],
        "agent": [
          {
            "type": {
              "text": "author"
            },
            "who": {
              "reference": "Device/6aa62890-abc1-4def-b325-83a0dfbc4a36"
            }
          }
        ],
        "reason": [
          {
            "text": "Interoperability Testing and Training (non-clinical use)"
          }
        ],
        "text": {
          "status": "generated",
          "div": "<div xmlns=\"http://www.w3.org/1999/xhtml\">Provenance for SYNDERAI Synthetic Example Data Resource</div>"
        },
        "recorded": "2018-11-21T07:16:00Z"
      }
    },
    {
      "fullUrl": "urn:uuid:f1573ab5-ec1a-4858-9230-709bcb05ac0b",
      "resource": {
        "resourceType": "PractitionerRole",
        "id": "f1573ab5-ec1a-4858-9230-709bcb05ac0b",
        "meta": {
          "profile": [
            "http://hl7.eu/fhir/base/StructureDefinition/practitionerRole-eu"
          ]
        },
        "text": {
          "status": "generated",
          "div": "<div xmlns=\"http://www.w3.org/1999/xhtml\">Laboratory Role Id: f1573ab5-ec1a-4858-9230-709bcb05ac0b</div>"
        },
        "practitioner": {
          "reference": "urn:uuid:9e56fd18-f2e2-4fd7-86d0-f2e9d87b5739"
        }
      }
    },
    {
      "fullUrl": "urn:uuid:9e56fd18-f2e2-4fd7-86d0-f2e9d87b5739",
      "resource": {
        "resourceType": "Practitioner",
        "id": "9e56fd18-f2e2-4fd7-86d0-f2e9d87b5739",
        "meta": {
          "profile": [
            "http://hl7.eu/fhir/base/StructureDefinition/practitioner-eu"
          ]
        },
        "identifier": [
          {
            "assigner": {
              "display": "HL7 Europe"
            },
            "system": "urn:oid:2.16.840.1.113883.2.51.999",
            "value": "20b2e2a6-fa41-45a2-adea-9166862f814c"
          }
        ],
        "name": [
          {
            "prefix": [
              "dr"
            ],
            "given": [
              "Ex"
            ],
            "family": "Ample"
          }
        ],
        "address": [
          {
            "line": [
              "Laboratoire Central Européenne",
              "Boulevard du Jardin Botanique 32"
            ],
            "postalCode": "1000",
            "city": "Brussels",
            "country": "Belgium"
          }
        ],
        "text": {
          "status": "generated",
          "div": "<div xmlns=\"http://www.w3.org/1999/xhtml\">Laboratory: Laboratoire Central Européenne, 1000 Brussels, Belgium</div>"
        }
      }
    }
  ],
  "type": "document",
  "timestamp": "2018-11-21T07:16:00Z"
}
