{
  "resourceType": "Bundle",
  "id": "2f885df1-909c-42ac-9697-11a84fbcfd32",
  "meta": {
    "profile": [
      "http://hl7.eu/fhir/laboratory/StructureDefinition/Bundle-eu-lab"
    ]
  },
  "identifier": {
    "assigner": {
      "display": "HL7 Europe"
    },
    "system": "urn:oid:2.16.840.1.113883.2.51.999",
    "value": "27e7845c-b7ca-4280-8d69-df8d93f1cee0"
  },
  "entry": [
    {
      "fullUrl": "urn:uuid:e75e0f67-406e-4e6e-8120-a36cdbd2bae1",
      "resource": {
        "resourceType": "Composition",
        "id": "e75e0f67-406e-4e6e-8120-a36cdbd2bae1",
        "meta": {
          "profile": [
            "http://hl7.eu/fhir/laboratory/StructureDefinition/Composition-eu-lab"
          ]
        },
        "identifier": {
          "assigner": {
            "display": "HL7 Europe"
          },
          "system": "urn:oid:2.16.840.1.113883.2.51.999",
          "value": "29633fab-667d-4ecf-bca0-fa39e248c93b"
        },
        "author": [
          {
            "reference": "urn:uuid:3e3885fd-81c7-44a7-9fac-955396a8b78e"
          }
        ],
        "category": [
          {
            "coding": [
              {
                "code": "26436-6",
                "system": "http://loinc.org",
                "display": "Laboratory studies (set)"
              }
            ]
          }
        ],
        "type": {
          "coding": [
            {
              "code": "11502-2",
              "system": "http://loinc.org",
              "display": "Laboratory report"
            }
          ],
          "text": "Laboratory Report"
        },
        "section": [
          {
            "code": {
              "coding": [
                {
                  "code": "26436-6",
                  "system": "http://loinc.org",
                  "display": "Laboratory studies (set)"
                }
              ],
              "text": "Laboratory studies"
            },
            "section": [
              {
                "code": {
                  "coding": [
                    {
                      "code": "$18723-7",
                      "system": "http://loinc.org",
                      "display": "Hematology studies (set)"
                    }
                  ],
                  "text": "Hematology"
                },
                "entry": [
                  {
                    "reference": "urn:uuid:40e05100-d8ef-4620-bfa5-0dc2c0b5d421"
                  },
                  {
                    "reference": "urn:uuid:3595a1bb-0b47-4908-81a5-435b330caa08"
                  },
                  {
                    "reference": "urn:uuid:db1ab9ed-42c1-4d6a-ac45-efc430e61271"
                  },
                  {
                    "reference": "urn:uuid:4ebe6340-d63b-4397-b482-da5920628a4c"
                  },
                  {
                    "reference": "urn:uuid:db044d3d-4579-41ae-a2c0-fcca4193c4d1"
                  },
                  {
                    "reference": "urn:uuid:58e48936-58a7-421d-90fe-0441458fa2d5"
                  },
                  {
                    "reference": "urn:uuid:597c75f5-24b7-4f97-a27b-d549bab13851"
                  },
                  {
                    "reference": "urn:uuid:8100e4df-aa1f-4b74-bb99-7b7d70033c08"
                  },
                  {
                    "reference": "urn:uuid:a7d704b8-8a4e-49c7-bd34-0add390e2ae3"
                  },
                  {
                    "reference": "urn:uuid:383049a3-276d-4465-a78e-08cc20ae01cd"
                  },
                  {
                    "reference": "urn:uuid:1fad7d3b-1c76-425e-aa04-b0df671ed67b"
                  }
                ],
                "text": {
                  "status": "generated",
                  "div": "<div xmlns=\"http://www.w3.org/1999/xhtml\"><h3>Hematology</h3><table class=\"hl7__eu__lab__report\"><thead><tr><th>Test</th><th>07-OCT-2015</th><th>Reference&#xA0;Range</th><th>Unit</th></tr></thead><tbody><tr><td>Leukocytes [#/volume] in Blood by Automated count</td><td>8.0</td><td>3.5 - 10.5</td><td>10*3/uL</td></tr><tr><td>Erythrocytes [#/volume] in Blood by Automated count</td><td><strong>3.9 L</strong></td><td>4.5 - 5.7</td><td>10*6/uL</td></tr><tr><td>Hemoglobin [Mass/volume] in Blood</td><td>16.1</td><td>14 - 18</td><td>g/dL</td></tr><tr><td>Hematocrit [Volume Fraction] of Blood by Automated count</td><td>39.8</td><td>38 - 50</td><td>%</td></tr><tr><td>MCV [Entitic volume] by Automated count</td><td>87.1</td><td>82 - 98</td><td>fL</td></tr><tr><td>MCH [Entitic mass] by Automated count</td><td>32.6</td><td>27 - 33</td><td>pg</td></tr><tr><td>MCHC [Mass/volume] by Automated count</td><td>34.6</td><td>31 - 36</td><td>g/dL</td></tr><tr><td>Erythrocyte distribution width [Entitic volume] by Automated count</td><td>43.6</td><td>39 - 55</td><td>fL</td></tr><tr><td>Platelets [#/volume] in Blood by Automated count</td><td>322.7</td><td>150 - 350</td><td>10*3/uL</td></tr><tr><td>Platelet distribution width [Entitic volume] in Blood by Automated count</td><td>340.6</td><td>144 - 366</td><td>fL</td></tr><tr><td>Platelet mean volume [Entitic volume] in Blood by Automated count</td><td>11.8</td><td>9.8 - 13.8</td><td>fL</td></tr></tbody></table></div>"
                },
                "title": "Hematology"
              },
              {
                "code": {
                  "coding": [
                    {
                      "code": "$18719-5",
                      "system": "http://loinc.org",
                      "display": "Chemistry studies (set)"
                    }
                  ],
                  "text": "Chemistry"
                },
                "entry": [
                  {
                    "reference": "urn:uuid:7ee9effd-633c-404c-9263-491b5a2068e4"
                  },
                  {
                    "reference": "urn:uuid:4f3eafcf-9da8-4204-84ea-b1be91ae25fb"
                  },
                  {
                    "reference": "urn:uuid:ce510d4c-d114-4543-8b5a-380b672d43d2"
                  },
                  {
                    "reference": "urn:uuid:383c558e-8949-4db0-8b75-6fc376606f5b"
                  },
                  {
                    "reference": "urn:uuid:3cc7cc4e-2db1-4219-bb9b-8a6db67bc475"
                  },
                  {
                    "reference": "urn:uuid:02122625-e659-4af7-af41-9afbdf5872df"
                  },
                  {
                    "reference": "urn:uuid:8a338523-4db6-47df-a16a-a61c01872f04"
                  },
                  {
                    "reference": "urn:uuid:1b2d3959-dd97-4787-a07e-c9ed1990cef4"
                  },
                  {
                    "reference": "urn:uuid:62b8dd9c-b982-4e13-a5e0-5690c8eebec0"
                  },
                  {
                    "reference": "urn:uuid:25503221-257d-43f2-821b-5a12a27be779"
                  },
                  {
                    "reference": "urn:uuid:e100e330-8eaa-468b-98fd-a9b8ba13f0aa"
                  },
                  {
                    "reference": "urn:uuid:0c457271-7771-4d69-975a-39f09f6a0a1d"
                  },
                  {
                    "reference": "urn:uuid:9cd01b6f-0510-4de1-9f45-2fa4392a9abc"
                  },
                  {
                    "reference": "urn:uuid:5b5927d0-acee-4c49-b564-e04fee9ee739"
                  },
                  {
                    "reference": "urn:uuid:dedbca4c-b437-4adc-bc82-90696a3131b6"
                  },
                  {
                    "reference": "urn:uuid:dce71349-8f08-4739-b44b-4187f938dfae"
                  },
                  {
                    "reference": "urn:uuid:6a6326ae-8566-48d1-a3da-b794b44b046e"
                  },
                  {
                    "reference": "urn:uuid:12432dbc-8739-4c3c-9a68-910086559f6e"
                  },
                  {
                    "reference": "urn:uuid:fda48585-7299-4bfd-ad1b-8f3bb0846bfa"
                  },
                  {
                    "reference": "urn:uuid:280c44fb-7140-45e7-99a0-801f2c264c45"
                  },
                  {
                    "reference": "urn:uuid:65428d21-f9ad-44e8-972e-0d4d541e293e"
                  },
                  {
                    "reference": "urn:uuid:40880caa-5cf5-4f2d-bf57-e835aaa02125"
                  }
                ],
                "text": {
                  "status": "generated",
                  "div": "<div xmlns=\"http://www.w3.org/1999/xhtml\"><h3>Chemistry</h3><table class=\"hl7__eu__lab__report\"><thead><tr><th>Test</th><th>07-OCT-2015</th><th>Reference&#xA0;Range</th><th>Unit</th></tr></thead><tbody><tr><td>Glucose [Mass/volume] in Serum or Plasma</td><td>73.6</td><td>70 - 140</td><td>mg/dL</td></tr><tr><td>Urea nitrogen [Mass/volume] in Serum or Plasma</td><td>14.8</td><td>7 - 20</td><td>mg/dL</td></tr><tr><td>Creatinine [Mass/volume] in Serum or Plasma</td><td><strong>2.1 H</strong></td><td>0.9 - 1.3</td><td>mg/dL</td></tr><tr><td>Calcium [Mass/volume] in Serum or Plasma</td><td>9.6</td><td>8.5 - 10.5</td><td>mg/dL</td></tr><tr><td>Sodium [Moles/volume] in Serum or Plasma</td><td>137.3</td><td>135 - 145</td><td>mmol/L</td></tr><tr><td>Potassium [Moles/volume] in Serum or Plasma</td><td>3.7</td><td>3.5 - 5</td><td>mmol/L</td></tr><tr><td>Chloride [Moles/volume] in Serum or Plasma</td><td><strong>109.7 H</strong></td><td>98 - 108</td><td>mmol/L</td></tr><tr><td>Carbon dioxide, total [Moles/volume] in Serum or Plasma</td><td><strong>20.6 L</strong></td><td>22 - 29</td><td>mmol/L</td></tr><tr><td>Ketones [Presence] in Urine by Test strip</td><td>Urine ketone test = +</td><td></td><td></td></tr><tr><td>Hemoglobin A1c/Hemoglobin.total in Blood</td><td><strong>2.8 L</strong></td><td>4.3 - 6.4</td><td>%</td></tr><tr><td>Glucose [Mass/volume] in Blood</td><td>73.6</td><td>70 - 140</td><td>mg/dL</td></tr><tr><td>Urea nitrogen [Mass/volume] in Blood</td><td>14.8</td><td>7 - 20</td><td>mg/dL</td></tr><tr><td>Creatinine [Mass/volume] in Blood</td><td><strong>3.5 H</strong></td><td>0.6 - 1.3</td><td>mg/dL</td></tr><tr><td>Calcium [Mass/volume] in Blood</td><td>9.6</td><td>8.5 - 10.5</td><td>mg/dL</td></tr><tr><td>Sodium [Moles/volume] in Blood</td><td>137.3</td><td>135 - 145</td><td>mmol/L</td></tr><tr><td>Potassium [Moles/volume] in Blood</td><td>3.7</td><td>3.5 - 5.3</td><td>mmol/L</td></tr><tr><td>Chloride [Moles/volume] in Blood</td><td>109.7</td><td>98 - 110</td><td>mmol/L</td></tr><tr><td>Carbon dioxide, total [Moles/volume] in Blood</td><td><strong>20.6 L</strong></td><td>22 - 29</td><td>mmol/L</td></tr><tr><td>Cholesterol [Mass/volume] in Serum or Plasma</td><td><strong>115.6 L</strong></td><td>125 - 200</td><td>mg/dL</td></tr><tr><td>Triglyceride [Mass/volume] in Serum or Plasma</td><td>122.9</td><td>0 - 150</td><td>mg/dL</td></tr><tr><td>Cholesterol in LDL [Mass/volume] in Serum or Plasma by Direct assay</td><td>59.4</td><td>0 - 130</td><td>mg/dL</td></tr><tr><td>Cholesterol in HDL [Mass/volume] in Serum or Plasma</td><td><strong>31.6 L</strong></td><td>40 - 60</td><td>mg/dL</td></tr></tbody></table></div>"
                },
                "title": "Chemistry"
              },
              {
                "code": {
                  "coding": [
                    {
                      "code": "$18729-4",
                      "system": "http://loinc.org",
                      "display": "Urinalysis studies (set)"
                    }
                  ],
                  "text": "Urinalysis"
                },
                "entry": [
                  {
                    "reference": "urn:uuid:d367adf2-b6f3-4c12-b0ce-71665756556a"
                  },
                  {
                    "reference": "urn:uuid:75f9196b-a8ce-43eb-bf02-353ca668ee76"
                  },
                  {
                    "reference": "urn:uuid:0c374c49-a15d-48dd-99f8-45a3149741d8"
                  },
                  {
                    "reference": "urn:uuid:13ca870f-7231-4455-b188-70b5c36d8b27"
                  },
                  {
                    "reference": "urn:uuid:7eebfaf8-1124-441b-b3ed-1dfde5d39537"
                  },
                  {
                    "reference": "urn:uuid:c93c28c8-8eb8-445b-89d8-1aa16ffe16f4"
                  },
                  {
                    "reference": "urn:uuid:5eba5e21-cb59-4f77-b44c-3fa40574e992"
                  },
                  {
                    "reference": "urn:uuid:d5dbc7d5-12d5-4ed4-923e-2c52e4876d7c"
                  },
                  {
                    "reference": "urn:uuid:536aec06-a311-4db4-8ade-1588dda95248"
                  },
                  {
                    "reference": "urn:uuid:16f77a65-0d9a-469e-a589-b90095633228"
                  },
                  {
                    "reference": "urn:uuid:2dee6cb0-b55e-4662-8acc-a502d4f6e850"
                  },
                  {
                    "reference": "urn:uuid:72d5339a-59aa-40fa-96d8-5fb4d565f11b"
                  }
                ],
                "text": {
                  "status": "generated",
                  "div": "<div xmlns=\"http://www.w3.org/1999/xhtml\"><h3>Urinalysis</h3><table class=\"hl7__eu__lab__report\"><thead><tr><th>Test</th><th>07-OCT-2015</th><th>Reference&#xA0;Range</th><th>Unit</th></tr></thead><tbody><tr><td>Glucose [Mass/volume] in Urine by Test strip</td><td><strong>1.3 H</strong></td><td>0 - 0.8</td><td>mg/dL</td></tr><tr><td>Glucose [Presence] in Urine by Test strip</td><td>++</td><td></td><td></td></tr><tr><td>Bilirubin.total [Mass/volume] in Urine by Test strip</td><td>0.7</td><td>0.2 - 1</td><td>mg/dL</td></tr><tr><td>Bilirubin.total [Presence] in Urine by Test strip</td><td>Finding of bilirubin in urine</td><td></td><td></td></tr><tr><td>Ketones [Mass/volume] in Urine by Test strip</td><td><strong>8.2 H</strong></td><td>0 - 5</td><td>mg/dL</td></tr><tr><td>Specific gravity of Urine by Test strip</td><td><strong>1.0 L</strong></td><td>1.005 - 1.03</td><td>{nominal}</td></tr><tr><td>pH of Urine by Test strip</td><td>6.1</td><td>4.6 - 7</td><td>pH</td></tr><tr><td>Protein [Mass/volume] in Urine by Test strip</td><td><strong>269.2 H</strong></td><td>0 - 150</td><td>mg/dL</td></tr><tr><td>Protein [Presence] in Urine by Test strip</td><td>Urine protein test = ++</td><td></td><td></td></tr><tr><td>Nitrite [Presence] in Urine by Test strip</td><td>Urine nitrite negative</td><td></td><td></td></tr><tr><td>Hemoglobin [Presence] in Urine by Test strip</td><td>Urine blood test = negative</td><td></td><td></td></tr><tr><td>Leukocyte esterase [Presence] in Urine by Test strip</td><td>Urine leukocyte test negative</td><td></td><td></td></tr></tbody></table></div>"
                },
                "title": "Urinalysis"
              },
              {
                "code": {
                  "coding": [
                    {
                      "code": "$LP7846-1",
                      "system": "http://loinc.org",
                      "display": "Specimen information"
                    }
                  ],
                  "text": "Specimen information"
                },
                "entry": [
                  {
                    "reference": "urn:uuid:96724936-1398-41b4-94de-aad1e573822b"
                  },
                  {
                    "reference": "urn:uuid:5308b4b6-46de-4e1a-a97f-8e54cc81fbfc"
                  },
                  {
                    "reference": "urn:uuid:d59fe13a-9114-4da9-a842-01ef060a483e"
                  },
                  {
                    "reference": "urn:uuid:511c91ed-7fcd-4eea-947b-feaefda9c994"
                  }
                ],
                "text": {
                  "status": "generated",
                  "div": "<div xmlns=\"http://www.w3.org/1999/xhtml\"><h3>Specimen information</h3><table class=\"hl7__eu__lab__report\"><thead><tr><th>Test</th><th>07-OCT-2015</th><th>Specimen</th><th></th></tr></thead><tbody><tr><td>Appearance of Urine</td><td>Cloudy urine</td><td>Urine</td><td></td></tr><tr><td>Odor of Urine</td><td>Urine smell ammoniacal</td><td>Urine</td><td></td></tr><tr><td>Clarity of Urine</td><td>Translucent</td><td>Urine</td><td></td></tr><tr><td>Color of Urine</td><td>Brown color</td><td>Urine</td><td></td></tr></tbody></table></div>"
                },
                "title": "Specimen information"
              }
            ],
            "title": "Laboratory Report"
          },
          {
            "text": {
              "status": "generated",
              "div": "<div xmlns=\"http://www.w3.org/1999/xhtml\"><h3>Annotation</h3><table class=\"hl7__eu__lab__report\"><tr><th>Conclusion and Recommendations based on this report and previous findings known to us</th></tr><tr><td>The patient shows elevated creatinine, proteinuria, glycosuria, ketonuria, and abnormal urine appearance, suggesting significant renal dysfunction, possibly with tubular involvement. Low CO₂ may indicate metabolic acidosis. Low HbA1c with glycosuria and ketonuria could reflect recent-onset or poorly controlled diabetes or another metabolic disturbance. Dyslipidemia and mild anemia are also present. Prompt nephrology and endocrinology evaluation are recommended.</td></tr></table></div>"
            },
            "code": {
              "coding": [
                {
                  "system": "http://loinc.org",
                  "code": "48767-8",
                  "display": "Annotation comment"
                }
              ]
            },
            "title": "Annotation comment"
          }
        ],
        "status": "final",
        "subject": {
          "reference": "urn:uuid:516898c4-cee3-40e1-b612-877177da2442",
          "display": "Θεμιστοκλής Λιναρδάκη"
        },
        "date": "2015-10-07T08:16:00Z",
        "title": "Laboratory Report",
        "confidentiality": "N"
      }
    },
    {
      "fullUrl": "urn:uuid:23e92e13-d087-49da-974a-739bed2e1086",
      "resource": {
        "resourceType": "DiagnosticReport",
        "id": "23e92e13-d087-49da-974a-739bed2e1086",
        "meta": {
          "profile": [
            "http://hl7.eu/fhir/laboratory/StructureDefinition/DiagnosticReport-eu-lab"
          ]
        },
        "identifier": [
          {
            "assigner": {
              "display": "HL7 Europe"
            },
            "system": "urn:oid:2.16.840.1.113883.2.51.999",
            "value": "f20bdb0a-9982-45ce-bdec-b5370a0cc606"
          }
        ],
        "extension": [
          {
            "url": "http://hl7.org/fhir/5.0/StructureDefinition/extension-DiagnosticReport.composition",
            "valueReference": {
              "reference": "urn:uuid:29633fab-667d-4ecf-bca0-fa39e248c93b"
            }
          }
        ],
        "category": [
          {
            "coding": [
              {
                "code": "26436-6",
                "system": "http://loinc.org",
                "display": "Laboratory studies (set)"
              }
            ]
          }
        ],
        "specimen": [
          {
            "reference": "urn:uuid:9dae5672-29c6-4fd2-bfb7-f10a0d228269"
          },
          {
            "reference": "urn:uuid:1b0224a7-536d-4200-a581-6fa4cccb85a7"
          },
          {
            "reference": "urn:uuid:388eb8d6-df7a-479d-b609-10883ac462ec"
          },
          {
            "reference": "urn:uuid:388eb8d6-df7a-479d-b609-10883ac462ec"
          }
        ],
        "result": [
          {
            "reference": "urn:uuid:7ee9effd-633c-404c-9263-491b5a2068e4"
          },
          {
            "reference": "urn:uuid:4f3eafcf-9da8-4204-84ea-b1be91ae25fb"
          },
          {
            "reference": "urn:uuid:ce510d4c-d114-4543-8b5a-380b672d43d2"
          },
          {
            "reference": "urn:uuid:383c558e-8949-4db0-8b75-6fc376606f5b"
          },
          {
            "reference": "urn:uuid:3cc7cc4e-2db1-4219-bb9b-8a6db67bc475"
          },
          {
            "reference": "urn:uuid:02122625-e659-4af7-af41-9afbdf5872df"
          },
          {
            "reference": "urn:uuid:8a338523-4db6-47df-a16a-a61c01872f04"
          },
          {
            "reference": "urn:uuid:1b2d3959-dd97-4787-a07e-c9ed1990cef4"
          },
          {
            "reference": "urn:uuid:96724936-1398-41b4-94de-aad1e573822b"
          },
          {
            "reference": "urn:uuid:5308b4b6-46de-4e1a-a97f-8e54cc81fbfc"
          },
          {
            "reference": "urn:uuid:d59fe13a-9114-4da9-a842-01ef060a483e"
          },
          {
            "reference": "urn:uuid:511c91ed-7fcd-4eea-947b-feaefda9c994"
          },
          {
            "reference": "urn:uuid:d367adf2-b6f3-4c12-b0ce-71665756556a"
          },
          {
            "reference": "urn:uuid:75f9196b-a8ce-43eb-bf02-353ca668ee76"
          },
          {
            "reference": "urn:uuid:0c374c49-a15d-48dd-99f8-45a3149741d8"
          },
          {
            "reference": "urn:uuid:13ca870f-7231-4455-b188-70b5c36d8b27"
          },
          {
            "reference": "urn:uuid:7eebfaf8-1124-441b-b3ed-1dfde5d39537"
          },
          {
            "reference": "urn:uuid:62b8dd9c-b982-4e13-a5e0-5690c8eebec0"
          },
          {
            "reference": "urn:uuid:c93c28c8-8eb8-445b-89d8-1aa16ffe16f4"
          },
          {
            "reference": "urn:uuid:5eba5e21-cb59-4f77-b44c-3fa40574e992"
          },
          {
            "reference": "urn:uuid:d5dbc7d5-12d5-4ed4-923e-2c52e4876d7c"
          },
          {
            "reference": "urn:uuid:536aec06-a311-4db4-8ade-1588dda95248"
          },
          {
            "reference": "urn:uuid:16f77a65-0d9a-469e-a589-b90095633228"
          },
          {
            "reference": "urn:uuid:2dee6cb0-b55e-4662-8acc-a502d4f6e850"
          },
          {
            "reference": "urn:uuid:72d5339a-59aa-40fa-96d8-5fb4d565f11b"
          },
          {
            "reference": "urn:uuid:25503221-257d-43f2-821b-5a12a27be779"
          },
          {
            "reference": "urn:uuid:e100e330-8eaa-468b-98fd-a9b8ba13f0aa"
          },
          {
            "reference": "urn:uuid:0c457271-7771-4d69-975a-39f09f6a0a1d"
          },
          {
            "reference": "urn:uuid:9cd01b6f-0510-4de1-9f45-2fa4392a9abc"
          },
          {
            "reference": "urn:uuid:5b5927d0-acee-4c49-b564-e04fee9ee739"
          },
          {
            "reference": "urn:uuid:dedbca4c-b437-4adc-bc82-90696a3131b6"
          },
          {
            "reference": "urn:uuid:dce71349-8f08-4739-b44b-4187f938dfae"
          },
          {
            "reference": "urn:uuid:6a6326ae-8566-48d1-a3da-b794b44b046e"
          },
          {
            "reference": "urn:uuid:12432dbc-8739-4c3c-9a68-910086559f6e"
          },
          {
            "reference": "urn:uuid:fda48585-7299-4bfd-ad1b-8f3bb0846bfa"
          },
          {
            "reference": "urn:uuid:280c44fb-7140-45e7-99a0-801f2c264c45"
          },
          {
            "reference": "urn:uuid:65428d21-f9ad-44e8-972e-0d4d541e293e"
          },
          {
            "reference": "urn:uuid:40880caa-5cf5-4f2d-bf57-e835aaa02125"
          },
          {
            "reference": "urn:uuid:40e05100-d8ef-4620-bfa5-0dc2c0b5d421"
          },
          {
            "reference": "urn:uuid:3595a1bb-0b47-4908-81a5-435b330caa08"
          },
          {
            "reference": "urn:uuid:db1ab9ed-42c1-4d6a-ac45-efc430e61271"
          },
          {
            "reference": "urn:uuid:4ebe6340-d63b-4397-b482-da5920628a4c"
          },
          {
            "reference": "urn:uuid:db044d3d-4579-41ae-a2c0-fcca4193c4d1"
          },
          {
            "reference": "urn:uuid:58e48936-58a7-421d-90fe-0441458fa2d5"
          },
          {
            "reference": "urn:uuid:597c75f5-24b7-4f97-a27b-d549bab13851"
          },
          {
            "reference": "urn:uuid:8100e4df-aa1f-4b74-bb99-7b7d70033c08"
          },
          {
            "reference": "urn:uuid:a7d704b8-8a4e-49c7-bd34-0add390e2ae3"
          },
          {
            "reference": "urn:uuid:383049a3-276d-4465-a78e-08cc20ae01cd"
          },
          {
            "reference": "urn:uuid:1fad7d3b-1c76-425e-aa04-b0df671ed67b"
          }
        ],
        "status": "registered",
        "code": {
          "coding": [
            {
              "code": "11502-2",
              "system": "http://loinc.org",
              "display": "Laboratory report"
            }
          ]
        },
        "subject": {
          "reference": "urn:uuid:516898c4-cee3-40e1-b612-877177da2442",
          "display": "Θεμιστοκλής Λιναρδάκη"
        }
      }
    },
    {
      "fullUrl": "urn:uuid:516898c4-cee3-40e1-b612-877177da2442",
      "resource": {
        "resourceType": "Patient",
        "id": "516898c4-cee3-40e1-b612-877177da2442",
        "meta": {
          "security": [
            {
              "system": "http://terminology.hl7.org/CodeSystem/v3-ActReason",
              "code": "HTEST"
            },
            {
              "system": "http://terminology.hl7.org/CodeSystem/v3-ActReason",
              "code": "TRAIN"
            }
          ],
          "tag": [
            {
              "system": "https://synderai.net/fhir/CodeSystem/tags",
              "code": "synthetic",
              "display": "SYNDERAI Synthetic data"
            }
          ],
          "profile": [
            "http://hl7.eu/fhir/base/StructureDefinition/patient-eu-core"
          ]
        },
        "identifier": [
          {
            "type": {
              "coding": [
                {
                  "code": "PT",
                  "system": "http://terminology.hl7.org/CodeSystem/v2-0203"
                }
              ]
            },
            "system": "http://ec.europa.eu/identifier/eci",
            "value": "5962-476889-7"
          },
          {
            "type": {
              "coding": [
                {
                  "code": "MR",
                  "system": "http://terminology.hl7.org/CodeSystem/v2-0203"
                }
              ]
            },
            "system": "http://local.setting.eu/identifier",
            "value": "925e2603-2ef9-6bdf-1330-2ebf526636c4"
          }
        ],
        "name": [
          {
            "family": "Λιναρδάκη"
          },
          {
            "given": [
              "Θεμιστοκλής"
            ]
          },
          {
            "text": "Θεμιστοκλής Λιναρδάκη"
          }
        ],
        "address": [
          {
            "line": [
              "Αμαρύνθου 54-58"
            ],
            "use": "home",
            "type": "physical",
            "postalCode": "262 21",
            "city": "Πάτρα",
            "country": "Greece"
          }
        ],
        "telecom": [
          {
            "system": "phone",
            "value": "+302226364480"
          }
        ],
        "extension": [
          {
            "url": "http://hl7.org/fhir/StructureDefinition/patient-nationality",
            "valueCodeableConcept": {
              "coding": [
                {
                  "code": "GR",
                  "system": "http://hl7.org/fhir/ValueSet/country"
                }
              ]
            }
          }
        ],
        "text": {
          "status": "generated",
          "div": "<div xmlns=\"http://www.w3.org/1999/xhtml\"><table class=\"hl7__ips\"><tr><td>Θεμιστοκλής Λιναρδάκη</td><td>male</td><td>21-Jan-1974</td></tr></table></div>"
        },
        "gender": "male",
        "birthDate": "1974-01-21"
      }
    },
    {
      "fullUrl": "urn:uuid:d8418a23-249b-4963-9620-c7bd7ab38eab",
      "resource": {
        "resourceType": "ServiceRequest",
        "id": "d8418a23-249b-4963-9620-c7bd7ab38eab",
        "meta": {
          "profile": [
            "http://hl7.eu/fhir/laboratory/StructureDefinition/ServiceRequest-eu-lab"
          ]
        },
        "identifier": [
          {
            "system": "http://example.org",
            "value": "8f21255d-5edf-41c8-973a-fe43bbbeb629"
          }
        ],
        "specimen": [
          {
            "reference": "urn:uuid:9dae5672-29c6-4fd2-bfb7-f10a0d228269"
          },
          {
            "reference": "urn:uuid:1b0224a7-536d-4200-a581-6fa4cccb85a7"
          },
          {
            "reference": "urn:uuid:388eb8d6-df7a-479d-b609-10883ac462ec"
          }
        ],
        "reasonCode": [
          {
            "coding": [
              {
                "code": "237602007",
                "system": "http://snomed.info/sct",
                "display": "Metabolic syndrome X"
              }
            ]
          },
          {
            "coding": [
              {
                "code": "433144002",
                "system": "http://snomed.info/sct",
                "display": "Chronic kidney disease stage 3"
              }
            ]
          },
          {
            "coding": [
              {
                "code": "157141000119108",
                "system": "http://snomed.info/sct",
                "display": "Proteinuria due to type 2 diabetes mellitus"
              }
            ]
          },
          {
            "coding": [
              {
                "code": "431856006",
                "system": "http://snomed.info/sct",
                "display": "Chronic kidney disease stage 2"
              }
            ]
          },
          {
            "coding": [
              {
                "code": "90781000119102",
                "system": "http://snomed.info/sct",
                "display": "Microalbuminuria due to type 2 diabetes mellitus"
              }
            ]
          },
          {
            "coding": [
              {
                "code": "127013003",
                "system": "http://snomed.info/sct",
                "display": "Disorder of kidney due to diabetes mellitus"
              }
            ]
          },
          {
            "coding": [
              {
                "code": "431855005",
                "system": "http://snomed.info/sct",
                "display": "Chronic kidney disease stage 1"
              }
            ]
          },
          {
            "coding": [
              {
                "code": "59621000",
                "system": "http://snomed.info/sct",
                "display": "Essential hypertension"
              }
            ]
          },
          {
            "coding": [
              {
                "code": "15777000",
                "system": "http://snomed.info/sct",
                "display": "Prediabetes"
              }
            ]
          },
          {
            "coding": [
              {
                "code": "271737000",
                "system": "http://snomed.info/sct",
                "display": "Anemia"
              }
            ]
          }
        ],
        "status": "active",
        "intent": "order",
        "code": {
          "coding": [
            {
              "code": "108252007",
              "system": "http://snomed.info/sct",
              "display": "Laboratory procedure"
            }
          ]
        },
        "subject": {
          "reference": "urn:uuid:516898c4-cee3-40e1-b612-877177da2442",
          "display": "Θεμιστοκλής Λιναρδάκη"
        },
        "requester": {
          "reference": "urn:uuid:9cd23edd-135f-4569-bb46-24e7359889e9"
        }
      }
    },
    {
      "fullUrl": "urn:uuid:9cd23edd-135f-4569-bb46-24e7359889e9",
      "resource": {
        "resourceType": "PractitionerRole",
        "id": "9cd23edd-135f-4569-bb46-24e7359889e9",
        "meta": {
          "profile": [
            "http://hl7.eu/fhir/base/StructureDefinition/practitionerRole-eu"
          ]
        },
        "text": {
          "status": "generated",
          "div": "<div xmlns=\"http://www.w3.org/1999/xhtml\">Provider Role Id: 9cd23edd-135f-4569-bb46-24e7359889e9</div>"
        },
        "organization": {
          "reference": "urn:uuid:9145dbea-69bb-45d7-9a3d-e748258f5e30"
        }
      }
    },
    {
      "fullUrl": "urn:uuid:9145dbea-69bb-45d7-9a3d-e748258f5e30",
      "resource": {
        "resourceType": "Organization",
        "id": "9145dbea-69bb-45d7-9a3d-e748258f5e30",
        "meta": {
          "profile": [
            "http://hl7.eu/fhir/base/StructureDefinition/organization-eu"
          ]
        },
        "identifier": [
          {
            "assigner": {
              "display": "HL7 Europe"
            },
            "system": "urn:oid:2.16.840.1.113883.2.51.999",
            "value": "0ae7254a-a9f4-46fb-8b64-c408eeb1faff"
          }
        ],
        "address": [
          {
            "line": [
              "211 Odós Filellinon"
            ],
            "city": "Patras",
            "postalCode": "262 21",
            "country": "Greece"
          }
        ],
        "text": {
          "status": "generated",
          "div": "<div xmlns=\"http://www.w3.org/1999/xhtml\">Provider Organization: Dr. Dimitris Economou</div>"
        },
        "name": "Dr. Dimitris Economou"
      }
    },
    {
      "fullUrl": "urn:uuid:9dae5672-29c6-4fd2-bfb7-f10a0d228269",
      "resource": {
        "resourceType": "Specimen",
        "id": "9dae5672-29c6-4fd2-bfb7-f10a0d228269",
        "meta": {
          "profile": [
            "http://hl7.eu/fhir/laboratory/StructureDefinition/Specimen-eu-lab"
          ]
        },
        "collection": {
          "collectedDateTime": "2015-10-07"
        },
        "text": {
          "status": "generated",
          "div": "<div xmlns=\"http://www.w3.org/1999/xhtml\"><table class=\"hl7__eu__lab__report\"><tr><th>Specimen</th><th>Collection Date</th></tr><tr><td>Acellular blood (serum or plasma) specimen</td><td><span class=\"nb\">07-Oct-2015</span></td></tr></table></div>"
        },
        "type": {
          "coding": [
            {
              "code": "122592007",
              "system": "http://snomed.info/sct",
              "display": "Acellular blood (serum or plasma) specimen"
            }
          ]
        }
      }
    },
    {
      "fullUrl": "urn:uuid:1b0224a7-536d-4200-a581-6fa4cccb85a7",
      "resource": {
        "resourceType": "Specimen",
        "id": "1b0224a7-536d-4200-a581-6fa4cccb85a7",
        "meta": {
          "profile": [
            "http://hl7.eu/fhir/laboratory/StructureDefinition/Specimen-eu-lab"
          ]
        },
        "collection": {
          "collectedDateTime": "2015-10-07"
        },
        "text": {
          "status": "generated",
          "div": "<div xmlns=\"http://www.w3.org/1999/xhtml\"><table class=\"hl7__eu__lab__report\"><tr><th>Specimen</th><th>Collection Date</th></tr><tr><td>Urine specimen</td><td><span class=\"nb\">07-Oct-2015</span></td></tr></table></div>"
        },
        "type": {
          "coding": [
            {
              "code": "122575003",
              "system": "http://snomed.info/sct",
              "display": "Urine specimen"
            }
          ]
        }
      }
    },
    {
      "fullUrl": "urn:uuid:388eb8d6-df7a-479d-b609-10883ac462ec",
      "resource": {
        "resourceType": "Specimen",
        "id": "388eb8d6-df7a-479d-b609-10883ac462ec",
        "meta": {
          "profile": [
            "http://hl7.eu/fhir/laboratory/StructureDefinition/Specimen-eu-lab"
          ]
        },
        "collection": {
          "collectedDateTime": "2015-10-07"
        },
        "text": {
          "status": "generated",
          "div": "<div xmlns=\"http://www.w3.org/1999/xhtml\"><table class=\"hl7__eu__lab__report\"><tr><th>Specimen</th><th>Collection Date</th></tr><tr><td>Whole blood specimen (specimen)</td><td><span class=\"nb\">07-Oct-2015</span></td></tr></table></div>"
        },
        "type": {
          "coding": [
            {
              "code": "258580003",
              "system": "http://snomed.info/sct",
              "display": "Whole blood specimen (specimen)"
            }
          ]
        }
      }
    },
    {
      "fullUrl": "urn:uuid:388eb8d6-df7a-479d-b609-10883ac462ec",
      "resource": {
        "resourceType": "Specimen",
        "id": "388eb8d6-df7a-479d-b609-10883ac462ec",
        "meta": {
          "profile": [
            "http://hl7.eu/fhir/laboratory/StructureDefinition/Specimen-eu-lab"
          ]
        },
        "collection": {
          "collectedDateTime": "2015-10-07"
        },
        "text": {
          "status": "generated",
          "div": "<div xmlns=\"http://www.w3.org/1999/xhtml\"><table class=\"hl7__eu__lab__report\"><tr><th>Specimen</th><th>Collection Date</th></tr><tr><td>Whole blood specimen (specimen)</td><td><span class=\"nb\">07-Oct-2015</span></td></tr></table></div>"
        },
        "type": {
          "coding": [
            {
              "code": "258580003",
              "system": "http://snomed.info/sct",
              "display": "Whole blood specimen (specimen)"
            }
          ]
        }
      }
    },
    {
      "fullUrl": "urn:uuid:7ee9effd-633c-404c-9263-491b5a2068e4",
      "resource": {
        "resourceType": "Observation",
        "id": "7ee9effd-633c-404c-9263-491b5a2068e4",
        "meta": {
          "profile": [
            "http://hl7.eu/fhir/laboratory/StructureDefinition/Observation-resultslab-eu-lab"
          ]
        },
        "performer": [
          {
            "display": "The Central European Lab"
          }
        ],
        "category": [
          {
            "coding": [
              {
                "system": "http://terminology.hl7.org/CodeSystem/observation-category",
                "code": "laboratory"
              }
            ]
          }
        ],
        "code": {
          "coding": [
            {
              "code": "2345-7",
              "system": "http://loinc.org",
              "display": "Glucose [Mass/volume] in Serum or Plasma"
            }
          ],
          "text": "Glucose [Mass/volume] in Serum or Plasma"
        },
        "valueQuantity": {
          "system": "http://unitsofmeasure.org",
          "value": 73.6,
          "unit": "mg/dL",
          "code": "mg/dL"
        },
        "referenceRange": [
          {
            "low": {
              "value": 70,
              "code": "mg/dL",
              "system": "http://unitsofmeasure.org"
            }
          },
          {
            "high": {
              "value": 140,
              "code": "mg/dL",
              "system": "http://unitsofmeasure.org"
            }
          }
        ],
        "text": {
          "status": "generated",
          "div": "<div xmlns=\"http://www.w3.org/1999/xhtml\"><table class=\"hl7__eu__lab__report\"><tr><th>Test</th><th>07-Oct-2015</th><th>Reference&#xA0;Range</th><th>Unit</th></tr><tr><td>Glucose [Mass/volume] in Serum or Plasma</td><td>73.6</td><td>70 - 140</td><td></td><td>mg/dL</td></tr></table></div>"
        },
        "status": "final",
        "subject": {
          "reference": "urn:uuid:516898c4-cee3-40e1-b612-877177da2442",
          "display": "Θεμιστοκλής Λιναρδάκη"
        },
        "effectiveDateTime": "2015-10-07T06:16:00Z",
        "specimen": {
          "reference": "urn:uuid:9dae5672-29c6-4fd2-bfb7-f10a0d228269"
        }
      }
    },
    {
      "fullUrl": "urn:uuid:4f3eafcf-9da8-4204-84ea-b1be91ae25fb",
      "resource": {
        "resourceType": "Observation",
        "id": "4f3eafcf-9da8-4204-84ea-b1be91ae25fb",
        "meta": {
          "profile": [
            "http://hl7.eu/fhir/laboratory/StructureDefinition/Observation-resultslab-eu-lab"
          ]
        },
        "performer": [
          {
            "display": "The Central European Lab"
          }
        ],
        "category": [
          {
            "coding": [
              {
                "system": "http://terminology.hl7.org/CodeSystem/observation-category",
                "code": "laboratory"
              }
            ]
          }
        ],
        "code": {
          "coding": [
            {
              "code": "3094-0",
              "system": "http://loinc.org",
              "display": "Urea nitrogen [Mass/volume] in Serum or Plasma"
            }
          ],
          "text": "Urea nitrogen [Mass/volume] in Serum or Plasma"
        },
        "valueQuantity": {
          "system": "http://unitsofmeasure.org",
          "value": 14.8,
          "unit": "mg/dL",
          "code": "mg/dL"
        },
        "referenceRange": [
          {
            "low": {
              "value": 7,
              "code": "mg/dL",
              "system": "http://unitsofmeasure.org"
            }
          },
          {
            "high": {
              "value": 20,
              "code": "mg/dL",
              "system": "http://unitsofmeasure.org"
            }
          }
        ],
        "text": {
          "status": "generated",
          "div": "<div xmlns=\"http://www.w3.org/1999/xhtml\"><table class=\"hl7__eu__lab__report\"><tr><th>Test</th><th>07-Oct-2015</th><th>Reference&#xA0;Range</th><th>Unit</th></tr><tr><td>Urea nitrogen [Mass/volume] in Serum or Plasma</td><td>14.8</td><td>7 - 20</td><td></td><td>mg/dL</td></tr></table></div>"
        },
        "status": "final",
        "subject": {
          "reference": "urn:uuid:516898c4-cee3-40e1-b612-877177da2442",
          "display": "Θεμιστοκλής Λιναρδάκη"
        },
        "effectiveDateTime": "2015-10-07T06:16:00Z",
        "specimen": {
          "reference": "urn:uuid:9dae5672-29c6-4fd2-bfb7-f10a0d228269"
        }
      }
    },
    {
      "fullUrl": "urn:uuid:ce510d4c-d114-4543-8b5a-380b672d43d2",
      "resource": {
        "resourceType": "Observation",
        "id": "ce510d4c-d114-4543-8b5a-380b672d43d2",
        "meta": {
          "profile": [
            "http://hl7.eu/fhir/laboratory/StructureDefinition/Observation-resultslab-eu-lab"
          ]
        },
        "performer": [
          {
            "display": "The Central European Lab"
          }
        ],
        "category": [
          {
            "coding": [
              {
                "system": "http://terminology.hl7.org/CodeSystem/observation-category",
                "code": "laboratory"
              }
            ]
          }
        ],
        "code": {
          "coding": [
            {
              "code": "2160-0",
              "system": "http://loinc.org",
              "display": "Creatinine [Mass/volume] in Serum or Plasma"
            }
          ],
          "text": "Creatinine [Mass/volume] in Serum or Plasma"
        },
        "valueQuantity": {
          "system": "http://unitsofmeasure.org",
          "value": 2.1,
          "unit": "mg/dL",
          "code": "mg/dL"
        },
        "referenceRange": [
          {
            "low": {
              "value": 0.9,
              "code": "mg/dL",
              "system": "http://unitsofmeasure.org"
            }
          },
          {
            "high": {
              "value": 1.3,
              "code": "mg/dL",
              "system": "http://unitsofmeasure.org"
            }
          }
        ],
        "interpretation": [
          {
            "coding": [
              {
                "code": "H",
                "system": "http://terminology.hl7.org/CodeSystem/v3-ObservationInterpretation",
                "display": "High"
              }
            ]
          }
        ],
        "text": {
          "status": "generated",
          "div": "<div xmlns=\"http://www.w3.org/1999/xhtml\"><table class=\"hl7__eu__lab__report\"><tr><th>Test</th><th>07-Oct-2015</th><th>Reference&#xA0;Range</th><th>Unit</th></tr><tr><td>Creatinine [Mass/volume] in Serum or Plasma</td><td>2.1</td><td>0.9 - 1.3</td><td>H</td><td>mg/dL</td></tr></table></div>"
        },
        "status": "final",
        "subject": {
          "reference": "urn:uuid:516898c4-cee3-40e1-b612-877177da2442",
          "display": "Θεμιστοκλής Λιναρδάκη"
        },
        "effectiveDateTime": "2015-10-07T06:16:00Z",
        "specimen": {
          "reference": "urn:uuid:9dae5672-29c6-4fd2-bfb7-f10a0d228269"
        }
      }
    },
    {
      "fullUrl": "urn:uuid:383c558e-8949-4db0-8b75-6fc376606f5b",
      "resource": {
        "resourceType": "Observation",
        "id": "383c558e-8949-4db0-8b75-6fc376606f5b",
        "meta": {
          "profile": [
            "http://hl7.eu/fhir/laboratory/StructureDefinition/Observation-resultslab-eu-lab"
          ]
        },
        "performer": [
          {
            "display": "The Central European Lab"
          }
        ],
        "category": [
          {
            "coding": [
              {
                "system": "http://terminology.hl7.org/CodeSystem/observation-category",
                "code": "laboratory"
              }
            ]
          }
        ],
        "code": {
          "coding": [
            {
              "code": "17861-6",
              "system": "http://loinc.org",
              "display": "Calcium [Mass/volume] in Serum or Plasma"
            }
          ],
          "text": "Calcium [Mass/volume] in Serum or Plasma"
        },
        "valueQuantity": {
          "system": "http://unitsofmeasure.org",
          "value": 9.6,
          "unit": "mg/dL",
          "code": "mg/dL"
        },
        "referenceRange": [
          {
            "low": {
              "value": 8.5,
              "code": "mg/dL",
              "system": "http://unitsofmeasure.org"
            }
          },
          {
            "high": {
              "value": 10.5,
              "code": "mg/dL",
              "system": "http://unitsofmeasure.org"
            }
          }
        ],
        "text": {
          "status": "generated",
          "div": "<div xmlns=\"http://www.w3.org/1999/xhtml\"><table class=\"hl7__eu__lab__report\"><tr><th>Test</th><th>07-Oct-2015</th><th>Reference&#xA0;Range</th><th>Unit</th></tr><tr><td>Calcium [Mass/volume] in Serum or Plasma</td><td>9.6</td><td>8.5 - 10.5</td><td></td><td>mg/dL</td></tr></table></div>"
        },
        "status": "final",
        "subject": {
          "reference": "urn:uuid:516898c4-cee3-40e1-b612-877177da2442",
          "display": "Θεμιστοκλής Λιναρδάκη"
        },
        "effectiveDateTime": "2015-10-07T06:16:00Z",
        "specimen": {
          "reference": "urn:uuid:9dae5672-29c6-4fd2-bfb7-f10a0d228269"
        }
      }
    },
    {
      "fullUrl": "urn:uuid:3cc7cc4e-2db1-4219-bb9b-8a6db67bc475",
      "resource": {
        "resourceType": "Observation",
        "id": "3cc7cc4e-2db1-4219-bb9b-8a6db67bc475",
        "meta": {
          "profile": [
            "http://hl7.eu/fhir/laboratory/StructureDefinition/Observation-resultslab-eu-lab"
          ]
        },
        "performer": [
          {
            "display": "The Central European Lab"
          }
        ],
        "category": [
          {
            "coding": [
              {
                "system": "http://terminology.hl7.org/CodeSystem/observation-category",
                "code": "laboratory"
              }
            ]
          }
        ],
        "code": {
          "coding": [
            {
              "code": "2951-2",
              "system": "http://loinc.org",
              "display": "Sodium [Moles/volume] in Serum or Plasma"
            }
          ],
          "text": "Sodium [Moles/volume] in Serum or Plasma"
        },
        "valueQuantity": {
          "system": "http://unitsofmeasure.org",
          "value": 137.3,
          "unit": "mmol/L",
          "code": "mmol/L"
        },
        "referenceRange": [
          {
            "low": {
              "value": 135,
              "code": "mmol/L",
              "system": "http://unitsofmeasure.org"
            }
          },
          {
            "high": {
              "value": 145,
              "code": "mmol/L",
              "system": "http://unitsofmeasure.org"
            }
          }
        ],
        "text": {
          "status": "generated",
          "div": "<div xmlns=\"http://www.w3.org/1999/xhtml\"><table class=\"hl7__eu__lab__report\"><tr><th>Test</th><th>07-Oct-2015</th><th>Reference&#xA0;Range</th><th>Unit</th></tr><tr><td>Sodium [Moles/volume] in Serum or Plasma</td><td>137.3</td><td>135 - 145</td><td></td><td>mmol/L</td></tr></table></div>"
        },
        "status": "final",
        "subject": {
          "reference": "urn:uuid:516898c4-cee3-40e1-b612-877177da2442",
          "display": "Θεμιστοκλής Λιναρδάκη"
        },
        "effectiveDateTime": "2015-10-07T06:16:00Z",
        "specimen": {
          "reference": "urn:uuid:9dae5672-29c6-4fd2-bfb7-f10a0d228269"
        }
      }
    },
    {
      "fullUrl": "urn:uuid:02122625-e659-4af7-af41-9afbdf5872df",
      "resource": {
        "resourceType": "Observation",
        "id": "02122625-e659-4af7-af41-9afbdf5872df",
        "meta": {
          "profile": [
            "http://hl7.eu/fhir/laboratory/StructureDefinition/Observation-resultslab-eu-lab"
          ]
        },
        "performer": [
          {
            "display": "The Central European Lab"
          }
        ],
        "category": [
          {
            "coding": [
              {
                "system": "http://terminology.hl7.org/CodeSystem/observation-category",
                "code": "laboratory"
              }
            ]
          }
        ],
        "code": {
          "coding": [
            {
              "code": "2823-3",
              "system": "http://loinc.org",
              "display": "Potassium [Moles/volume] in Serum or Plasma"
            }
          ],
          "text": "Potassium [Moles/volume] in Serum or Plasma"
        },
        "valueQuantity": {
          "system": "http://unitsofmeasure.org",
          "value": 3.7,
          "unit": "mmol/L",
          "code": "mmol/L"
        },
        "referenceRange": [
          {
            "low": {
              "value": 3.5,
              "code": "mmol/L",
              "system": "http://unitsofmeasure.org"
            }
          },
          {
            "high": {
              "value": 5,
              "code": "mmol/L",
              "system": "http://unitsofmeasure.org"
            }
          }
        ],
        "text": {
          "status": "generated",
          "div": "<div xmlns=\"http://www.w3.org/1999/xhtml\"><table class=\"hl7__eu__lab__report\"><tr><th>Test</th><th>07-Oct-2015</th><th>Reference&#xA0;Range</th><th>Unit</th></tr><tr><td>Potassium [Moles/volume] in Serum or Plasma</td><td>3.7</td><td>3.5 - 5</td><td></td><td>mmol/L</td></tr></table></div>"
        },
        "status": "final",
        "subject": {
          "reference": "urn:uuid:516898c4-cee3-40e1-b612-877177da2442",
          "display": "Θεμιστοκλής Λιναρδάκη"
        },
        "effectiveDateTime": "2015-10-07T06:16:00Z",
        "specimen": {
          "reference": "urn:uuid:9dae5672-29c6-4fd2-bfb7-f10a0d228269"
        }
      }
    },
    {
      "fullUrl": "urn:uuid:8a338523-4db6-47df-a16a-a61c01872f04",
      "resource": {
        "resourceType": "Observation",
        "id": "8a338523-4db6-47df-a16a-a61c01872f04",
        "meta": {
          "profile": [
            "http://hl7.eu/fhir/laboratory/StructureDefinition/Observation-resultslab-eu-lab"
          ]
        },
        "performer": [
          {
            "display": "The Central European Lab"
          }
        ],
        "category": [
          {
            "coding": [
              {
                "system": "http://terminology.hl7.org/CodeSystem/observation-category",
                "code": "laboratory"
              }
            ]
          }
        ],
        "code": {
          "coding": [
            {
              "code": "2075-0",
              "system": "http://loinc.org",
              "display": "Chloride [Moles/volume] in Serum or Plasma"
            }
          ],
          "text": "Chloride [Moles/volume] in Serum or Plasma"
        },
        "valueQuantity": {
          "system": "http://unitsofmeasure.org",
          "value": 109.7,
          "unit": "mmol/L",
          "code": "mmol/L"
        },
        "referenceRange": [
          {
            "low": {
              "value": 98,
              "code": "mmol/L",
              "system": "http://unitsofmeasure.org"
            }
          },
          {
            "high": {
              "value": 108,
              "code": "mmol/L",
              "system": "http://unitsofmeasure.org"
            }
          }
        ],
        "interpretation": [
          {
            "coding": [
              {
                "code": "H",
                "system": "http://terminology.hl7.org/CodeSystem/v3-ObservationInterpretation",
                "display": "High"
              }
            ]
          }
        ],
        "text": {
          "status": "generated",
          "div": "<div xmlns=\"http://www.w3.org/1999/xhtml\"><table class=\"hl7__eu__lab__report\"><tr><th>Test</th><th>07-Oct-2015</th><th>Reference&#xA0;Range</th><th>Unit</th></tr><tr><td>Chloride [Moles/volume] in Serum or Plasma</td><td>109.7</td><td>98 - 108</td><td>H</td><td>mmol/L</td></tr></table></div>"
        },
        "status": "final",
        "subject": {
          "reference": "urn:uuid:516898c4-cee3-40e1-b612-877177da2442",
          "display": "Θεμιστοκλής Λιναρδάκη"
        },
        "effectiveDateTime": "2015-10-07T06:16:00Z",
        "specimen": {
          "reference": "urn:uuid:9dae5672-29c6-4fd2-bfb7-f10a0d228269"
        }
      }
    },
    {
      "fullUrl": "urn:uuid:1b2d3959-dd97-4787-a07e-c9ed1990cef4",
      "resource": {
        "resourceType": "Observation",
        "id": "1b2d3959-dd97-4787-a07e-c9ed1990cef4",
        "meta": {
          "profile": [
            "http://hl7.eu/fhir/laboratory/StructureDefinition/Observation-resultslab-eu-lab"
          ]
        },
        "performer": [
          {
            "display": "The Central European Lab"
          }
        ],
        "category": [
          {
            "coding": [
              {
                "system": "http://terminology.hl7.org/CodeSystem/observation-category",
                "code": "laboratory"
              }
            ]
          }
        ],
        "code": {
          "coding": [
            {
              "code": "2028-9",
              "system": "http://loinc.org",
              "display": "Carbon dioxide, total [Moles/volume] in Serum or Plasma"
            }
          ],
          "text": "Carbon dioxide, total [Moles/volume] in Serum or Plasma"
        },
        "valueQuantity": {
          "system": "http://unitsofmeasure.org",
          "value": 20.6,
          "unit": "mmol/L",
          "code": "mmol/L"
        },
        "referenceRange": [
          {
            "low": {
              "value": 22,
              "code": "mmol/L",
              "system": "http://unitsofmeasure.org"
            }
          },
          {
            "high": {
              "value": 29,
              "code": "mmol/L",
              "system": "http://unitsofmeasure.org"
            }
          }
        ],
        "interpretation": [
          {
            "coding": [
              {
                "code": "L",
                "system": "http://terminology.hl7.org/CodeSystem/v3-ObservationInterpretation",
                "display": "Low"
              }
            ]
          }
        ],
        "text": {
          "status": "generated",
          "div": "<div xmlns=\"http://www.w3.org/1999/xhtml\"><table class=\"hl7__eu__lab__report\"><tr><th>Test</th><th>07-Oct-2015</th><th>Reference&#xA0;Range</th><th>Unit</th></tr><tr><td>Carbon dioxide, total [Moles/volume] in Serum or Plasma</td><td>20.6</td><td>22 - 29</td><td>L</td><td>mmol/L</td></tr></table></div>"
        },
        "status": "final",
        "subject": {
          "reference": "urn:uuid:516898c4-cee3-40e1-b612-877177da2442",
          "display": "Θεμιστοκλής Λιναρδάκη"
        },
        "effectiveDateTime": "2015-10-07T06:16:00Z",
        "specimen": {
          "reference": "urn:uuid:9dae5672-29c6-4fd2-bfb7-f10a0d228269"
        }
      }
    },
    {
      "fullUrl": "urn:uuid:96724936-1398-41b4-94de-aad1e573822b",
      "resource": {
        "resourceType": "Observation",
        "id": "96724936-1398-41b4-94de-aad1e573822b",
        "meta": {
          "profile": [
            "http://hl7.eu/fhir/laboratory/StructureDefinition/Observation-resultslab-eu-lab"
          ]
        },
        "performer": [
          {
            "display": "The Central European Lab"
          }
        ],
        "category": [
          {
            "coding": [
              {
                "system": "http://terminology.hl7.org/CodeSystem/observation-category",
                "code": "laboratory"
              }
            ]
          }
        ],
        "code": {
          "coding": [
            {
              "code": "5767-9",
              "system": "http://loinc.org",
              "display": "Appearance of Urine"
            }
          ],
          "text": "Appearance of Urine"
        },
        "text": {
          "status": "generated",
          "div": "<div xmlns=\"http://www.w3.org/1999/xhtml\"><table class=\"hl7__eu__lab__report\"><tr><th>Test</th><th>07-Oct-2015</th><th>Reference&#xA0;Range</th><th>Unit</th></tr><tr><td>Appearance of Urine</td></tr></table></div>"
        },
        "status": "final",
        "subject": {
          "reference": "urn:uuid:516898c4-cee3-40e1-b612-877177da2442",
          "display": "Θεμιστοκλής Λιναρδάκη"
        },
        "effectiveDateTime": "2015-10-07T06:16:00Z",
        "specimen": {
          "reference": "urn:uuid:1b0224a7-536d-4200-a581-6fa4cccb85a7"
        }
      }
    },
    {
      "fullUrl": "urn:uuid:5308b4b6-46de-4e1a-a97f-8e54cc81fbfc",
      "resource": {
        "resourceType": "Observation",
        "id": "5308b4b6-46de-4e1a-a97f-8e54cc81fbfc",
        "meta": {
          "profile": [
            "http://hl7.eu/fhir/laboratory/StructureDefinition/Observation-resultslab-eu-lab"
          ]
        },
        "performer": [
          {
            "display": "The Central European Lab"
          }
        ],
        "category": [
          {
            "coding": [
              {
                "system": "http://terminology.hl7.org/CodeSystem/observation-category",
                "code": "laboratory"
              }
            ]
          }
        ],
        "code": {
          "coding": [
            {
              "code": "34533-0",
              "system": "http://loinc.org",
              "display": "Odor of Urine"
            }
          ],
          "text": "Odor of Urine"
        },
        "text": {
          "status": "generated",
          "div": "<div xmlns=\"http://www.w3.org/1999/xhtml\"><table class=\"hl7__eu__lab__report\"><tr><th>Test</th><th>07-Oct-2015</th><th>Reference&#xA0;Range</th><th>Unit</th></tr><tr><td>Odor of Urine</td></tr></table></div>"
        },
        "status": "final",
        "subject": {
          "reference": "urn:uuid:516898c4-cee3-40e1-b612-877177da2442",
          "display": "Θεμιστοκλής Λιναρδάκη"
        },
        "effectiveDateTime": "2015-10-07T06:16:00Z",
        "specimen": {
          "reference": "urn:uuid:1b0224a7-536d-4200-a581-6fa4cccb85a7"
        }
      }
    },
    {
      "fullUrl": "urn:uuid:d59fe13a-9114-4da9-a842-01ef060a483e",
      "resource": {
        "resourceType": "Observation",
        "id": "d59fe13a-9114-4da9-a842-01ef060a483e",
        "meta": {
          "profile": [
            "http://hl7.eu/fhir/laboratory/StructureDefinition/Observation-resultslab-eu-lab"
          ]
        },
        "performer": [
          {
            "display": "The Central European Lab"
          }
        ],
        "category": [
          {
            "coding": [
              {
                "system": "http://terminology.hl7.org/CodeSystem/observation-category",
                "code": "laboratory"
              }
            ]
          }
        ],
        "code": {
          "coding": [
            {
              "code": "32167-9",
              "system": "http://loinc.org",
              "display": "Clarity of Urine"
            }
          ],
          "text": "Clarity of Urine"
        },
        "text": {
          "status": "generated",
          "div": "<div xmlns=\"http://www.w3.org/1999/xhtml\"><table class=\"hl7__eu__lab__report\"><tr><th>Test</th><th>07-Oct-2015</th><th>Reference&#xA0;Range</th><th>Unit</th></tr><tr><td>Clarity of Urine</td></tr></table></div>"
        },
        "status": "final",
        "subject": {
          "reference": "urn:uuid:516898c4-cee3-40e1-b612-877177da2442",
          "display": "Θεμιστοκλής Λιναρδάκη"
        },
        "effectiveDateTime": "2015-10-07T06:16:00Z",
        "specimen": {
          "reference": "urn:uuid:1b0224a7-536d-4200-a581-6fa4cccb85a7"
        }
      }
    },
    {
      "fullUrl": "urn:uuid:511c91ed-7fcd-4eea-947b-feaefda9c994",
      "resource": {
        "resourceType": "Observation",
        "id": "511c91ed-7fcd-4eea-947b-feaefda9c994",
        "meta": {
          "profile": [
            "http://hl7.eu/fhir/laboratory/StructureDefinition/Observation-resultslab-eu-lab"
          ]
        },
        "performer": [
          {
            "display": "The Central European Lab"
          }
        ],
        "category": [
          {
            "coding": [
              {
                "system": "http://terminology.hl7.org/CodeSystem/observation-category",
                "code": "laboratory"
              }
            ]
          }
        ],
        "code": {
          "coding": [
            {
              "code": "5778-6",
              "system": "http://loinc.org",
              "display": "Color of Urine"
            }
          ],
          "text": "Color of Urine"
        },
        "text": {
          "status": "generated",
          "div": "<div xmlns=\"http://www.w3.org/1999/xhtml\"><table class=\"hl7__eu__lab__report\"><tr><th>Test</th><th>07-Oct-2015</th><th>Reference&#xA0;Range</th><th>Unit</th></tr><tr><td>Color of Urine</td></tr></table></div>"
        },
        "status": "final",
        "subject": {
          "reference": "urn:uuid:516898c4-cee3-40e1-b612-877177da2442",
          "display": "Θεμιστοκλής Λιναρδάκη"
        },
        "effectiveDateTime": "2015-10-07T06:16:00Z",
        "specimen": {
          "reference": "urn:uuid:1b0224a7-536d-4200-a581-6fa4cccb85a7"
        }
      }
    },
    {
      "fullUrl": "urn:uuid:d367adf2-b6f3-4c12-b0ce-71665756556a",
      "resource": {
        "resourceType": "Observation",
        "id": "d367adf2-b6f3-4c12-b0ce-71665756556a",
        "meta": {
          "profile": [
            "http://hl7.eu/fhir/laboratory/StructureDefinition/Observation-resultslab-eu-lab"
          ]
        },
        "performer": [
          {
            "display": "The Central European Lab"
          }
        ],
        "category": [
          {
            "coding": [
              {
                "system": "http://terminology.hl7.org/CodeSystem/observation-category",
                "code": "laboratory"
              }
            ]
          }
        ],
        "code": {
          "coding": [
            {
              "code": "5792-7",
              "system": "http://loinc.org",
              "display": "Glucose [Mass/volume] in Urine by Test strip"
            }
          ],
          "text": "Glucose [Mass/volume] in Urine by Test strip"
        },
        "valueQuantity": {
          "system": "http://unitsofmeasure.org",
          "value": 1.3,
          "unit": "mg/dL",
          "code": "mg/dL"
        },
        "referenceRange": [
          {
            "low": {
              "value": 0,
              "code": "mg/dL",
              "system": "http://unitsofmeasure.org"
            }
          },
          {
            "high": {
              "value": 0.8,
              "code": "mg/dL",
              "system": "http://unitsofmeasure.org"
            }
          }
        ],
        "interpretation": [
          {
            "coding": [
              {
                "code": "H",
                "system": "http://terminology.hl7.org/CodeSystem/v3-ObservationInterpretation",
                "display": "High"
              }
            ]
          }
        ],
        "text": {
          "status": "generated",
          "div": "<div xmlns=\"http://www.w3.org/1999/xhtml\"><table class=\"hl7__eu__lab__report\"><tr><th>Test</th><th>07-Oct-2015</th><th>Reference&#xA0;Range</th><th>Unit</th></tr><tr><td>Glucose [Mass/volume] in Urine by Test strip</td><td>1.3</td><td>0 - 0.8</td><td>H</td><td>mg/dL</td></tr></table></div>"
        },
        "status": "final",
        "subject": {
          "reference": "urn:uuid:516898c4-cee3-40e1-b612-877177da2442",
          "display": "Θεμιστοκλής Λιναρδάκη"
        },
        "effectiveDateTime": "2015-10-07T06:16:00Z",
        "specimen": {
          "reference": "urn:uuid:1b0224a7-536d-4200-a581-6fa4cccb85a7"
        }
      }
    },
    {
      "fullUrl": "urn:uuid:75f9196b-a8ce-43eb-bf02-353ca668ee76",
      "resource": {
        "resourceType": "Observation",
        "id": "75f9196b-a8ce-43eb-bf02-353ca668ee76",
        "meta": {
          "profile": [
            "http://hl7.eu/fhir/laboratory/StructureDefinition/Observation-resultslab-eu-lab"
          ]
        },
        "performer": [
          {
            "display": "The Central European Lab"
          }
        ],
        "category": [
          {
            "coding": [
              {
                "system": "http://terminology.hl7.org/CodeSystem/observation-category",
                "code": "laboratory"
              }
            ]
          }
        ],
        "code": {
          "coding": [
            {
              "code": "25428-4",
              "system": "http://loinc.org",
              "display": "Glucose [Presence] in Urine by Test strip"
            }
          ],
          "text": "Glucose [Presence] in Urine by Test strip"
        },
        "text": {
          "status": "generated",
          "div": "<div xmlns=\"http://www.w3.org/1999/xhtml\"><table class=\"hl7__eu__lab__report\"><tr><th>Test</th><th>07-Oct-2015</th><th>Reference&#xA0;Range</th><th>Unit</th></tr><tr><td>Glucose [Presence] in Urine by Test strip</td></tr></table></div>"
        },
        "status": "final",
        "subject": {
          "reference": "urn:uuid:516898c4-cee3-40e1-b612-877177da2442",
          "display": "Θεμιστοκλής Λιναρδάκη"
        },
        "effectiveDateTime": "2015-10-07T06:16:00Z",
        "specimen": {
          "reference": "urn:uuid:1b0224a7-536d-4200-a581-6fa4cccb85a7"
        }
      }
    },
    {
      "fullUrl": "urn:uuid:0c374c49-a15d-48dd-99f8-45a3149741d8",
      "resource": {
        "resourceType": "Observation",
        "id": "0c374c49-a15d-48dd-99f8-45a3149741d8",
        "meta": {
          "profile": [
            "http://hl7.eu/fhir/laboratory/StructureDefinition/Observation-resultslab-eu-lab"
          ]
        },
        "performer": [
          {
            "display": "The Central European Lab"
          }
        ],
        "category": [
          {
            "coding": [
              {
                "system": "http://terminology.hl7.org/CodeSystem/observation-category",
                "code": "laboratory"
              }
            ]
          }
        ],
        "code": {
          "coding": [
            {
              "code": "20505-4",
              "system": "http://loinc.org",
              "display": "Bilirubin.total [Mass/volume] in Urine by Test strip"
            }
          ],
          "text": "Bilirubin.total [Mass/volume] in Urine by Test strip"
        },
        "valueQuantity": {
          "system": "http://unitsofmeasure.org",
          "value": 0.7,
          "unit": "mg/dL",
          "code": "mg/dL"
        },
        "referenceRange": [
          {
            "low": {
              "value": 0.2,
              "code": "mg/dL",
              "system": "http://unitsofmeasure.org"
            }
          },
          {
            "high": {
              "value": 1,
              "code": "mg/dL",
              "system": "http://unitsofmeasure.org"
            }
          }
        ],
        "text": {
          "status": "generated",
          "div": "<div xmlns=\"http://www.w3.org/1999/xhtml\"><table class=\"hl7__eu__lab__report\"><tr><th>Test</th><th>07-Oct-2015</th><th>Reference&#xA0;Range</th><th>Unit</th></tr><tr><td>Bilirubin.total [Mass/volume] in Urine by Test strip</td><td>0.7</td><td>0.2 - 1</td><td></td><td>mg/dL</td></tr></table></div>"
        },
        "status": "final",
        "subject": {
          "reference": "urn:uuid:516898c4-cee3-40e1-b612-877177da2442",
          "display": "Θεμιστοκλής Λιναρδάκη"
        },
        "effectiveDateTime": "2015-10-07T06:16:00Z",
        "specimen": {
          "reference": "urn:uuid:1b0224a7-536d-4200-a581-6fa4cccb85a7"
        }
      }
    },
    {
      "fullUrl": "urn:uuid:13ca870f-7231-4455-b188-70b5c36d8b27",
      "resource": {
        "resourceType": "Observation",
        "id": "13ca870f-7231-4455-b188-70b5c36d8b27",
        "meta": {
          "profile": [
            "http://hl7.eu/fhir/laboratory/StructureDefinition/Observation-resultslab-eu-lab"
          ]
        },
        "performer": [
          {
            "display": "The Central European Lab"
          }
        ],
        "category": [
          {
            "coding": [
              {
                "system": "http://terminology.hl7.org/CodeSystem/observation-category",
                "code": "laboratory"
              }
            ]
          }
        ],
        "code": {
          "coding": [
            {
              "code": "5770-3",
              "system": "http://loinc.org",
              "display": "Bilirubin.total [Presence] in Urine by Test strip"
            }
          ],
          "text": "Bilirubin.total [Presence] in Urine by Test strip"
        },
        "text": {
          "status": "generated",
          "div": "<div xmlns=\"http://www.w3.org/1999/xhtml\"><table class=\"hl7__eu__lab__report\"><tr><th>Test</th><th>07-Oct-2015</th><th>Reference&#xA0;Range</th><th>Unit</th></tr><tr><td>Bilirubin.total [Presence] in Urine by Test strip</td></tr></table></div>"
        },
        "status": "final",
        "subject": {
          "reference": "urn:uuid:516898c4-cee3-40e1-b612-877177da2442",
          "display": "Θεμιστοκλής Λιναρδάκη"
        },
        "effectiveDateTime": "2015-10-07T06:16:00Z",
        "specimen": {
          "reference": "urn:uuid:1b0224a7-536d-4200-a581-6fa4cccb85a7"
        }
      }
    },
    {
      "fullUrl": "urn:uuid:7eebfaf8-1124-441b-b3ed-1dfde5d39537",
      "resource": {
        "resourceType": "Observation",
        "id": "7eebfaf8-1124-441b-b3ed-1dfde5d39537",
        "meta": {
          "profile": [
            "http://hl7.eu/fhir/laboratory/StructureDefinition/Observation-resultslab-eu-lab"
          ]
        },
        "performer": [
          {
            "display": "The Central European Lab"
          }
        ],
        "category": [
          {
            "coding": [
              {
                "system": "http://terminology.hl7.org/CodeSystem/observation-category",
                "code": "laboratory"
              }
            ]
          }
        ],
        "code": {
          "coding": [
            {
              "code": "5797-6",
              "system": "http://loinc.org",
              "display": "Ketones [Mass/volume] in Urine by Test strip"
            }
          ],
          "text": "Ketones [Mass/volume] in Urine by Test strip"
        },
        "valueQuantity": {
          "system": "http://unitsofmeasure.org",
          "value": 8.2,
          "unit": "mg/dL",
          "code": "mg/dL"
        },
        "referenceRange": [
          {
            "low": {
              "value": 0,
              "code": "mg/dL",
              "system": "http://unitsofmeasure.org"
            }
          },
          {
            "high": {
              "value": 5,
              "code": "mg/dL",
              "system": "http://unitsofmeasure.org"
            }
          }
        ],
        "interpretation": [
          {
            "coding": [
              {
                "code": "H",
                "system": "http://terminology.hl7.org/CodeSystem/v3-ObservationInterpretation",
                "display": "High"
              }
            ]
          }
        ],
        "text": {
          "status": "generated",
          "div": "<div xmlns=\"http://www.w3.org/1999/xhtml\"><table class=\"hl7__eu__lab__report\"><tr><th>Test</th><th>07-Oct-2015</th><th>Reference&#xA0;Range</th><th>Unit</th></tr><tr><td>Ketones [Mass/volume] in Urine by Test strip</td><td>8.2</td><td>0 - 5</td><td>H</td><td>mg/dL</td></tr></table></div>"
        },
        "status": "final",
        "subject": {
          "reference": "urn:uuid:516898c4-cee3-40e1-b612-877177da2442",
          "display": "Θεμιστοκλής Λιναρδάκη"
        },
        "effectiveDateTime": "2015-10-07T06:16:00Z",
        "specimen": {
          "reference": "urn:uuid:1b0224a7-536d-4200-a581-6fa4cccb85a7"
        }
      }
    },
    {
      "fullUrl": "urn:uuid:62b8dd9c-b982-4e13-a5e0-5690c8eebec0",
      "resource": {
        "resourceType": "Observation",
        "id": "62b8dd9c-b982-4e13-a5e0-5690c8eebec0",
        "meta": {
          "profile": [
            "http://hl7.eu/fhir/laboratory/StructureDefinition/Observation-resultslab-eu-lab"
          ]
        },
        "performer": [
          {
            "display": "The Central European Lab"
          }
        ],
        "category": [
          {
            "coding": [
              {
                "system": "http://terminology.hl7.org/CodeSystem/observation-category",
                "code": "laboratory"
              }
            ]
          }
        ],
        "code": {
          "coding": [
            {
              "code": "2514-8",
              "system": "http://loinc.org",
              "display": "Ketones [Presence] in Urine by Test strip"
            }
          ],
          "text": "Ketones [Presence] in Urine by Test strip"
        },
        "text": {
          "status": "generated",
          "div": "<div xmlns=\"http://www.w3.org/1999/xhtml\"><table class=\"hl7__eu__lab__report\"><tr><th>Test</th><th>07-Oct-2015</th><th>Reference&#xA0;Range</th><th>Unit</th></tr><tr><td>Ketones [Presence] in Urine by Test strip</td></tr></table></div>"
        },
        "status": "final",
        "subject": {
          "reference": "urn:uuid:516898c4-cee3-40e1-b612-877177da2442",
          "display": "Θεμιστοκλής Λιναρδάκη"
        },
        "effectiveDateTime": "2015-10-07T06:16:00Z",
        "specimen": {
          "reference": "urn:uuid:1b0224a7-536d-4200-a581-6fa4cccb85a7"
        }
      }
    },
    {
      "fullUrl": "urn:uuid:c93c28c8-8eb8-445b-89d8-1aa16ffe16f4",
      "resource": {
        "resourceType": "Observation",
        "id": "c93c28c8-8eb8-445b-89d8-1aa16ffe16f4",
        "meta": {
          "profile": [
            "http://hl7.eu/fhir/laboratory/StructureDefinition/Observation-resultslab-eu-lab"
          ]
        },
        "performer": [
          {
            "display": "The Central European Lab"
          }
        ],
        "category": [
          {
            "coding": [
              {
                "system": "http://terminology.hl7.org/CodeSystem/observation-category",
                "code": "laboratory"
              }
            ]
          }
        ],
        "code": {
          "coding": [
            {
              "code": "5811-5",
              "system": "http://loinc.org",
              "display": "Specific gravity of Urine by Test strip"
            }
          ],
          "text": "Specific gravity of Urine by Test strip"
        },
        "valueQuantity": {
          "system": "http://unitsofmeasure.org",
          "value": 1,
          "unit": "{nominal}",
          "code": "{nominal}"
        },
        "referenceRange": [
          {
            "low": {
              "value": 1.005,
              "code": "g/mL",
              "system": "http://unitsofmeasure.org"
            }
          },
          {
            "high": {
              "value": 1.03,
              "code": "g/mL",
              "system": "http://unitsofmeasure.org"
            }
          }
        ],
        "interpretation": [
          {
            "coding": [
              {
                "code": "L",
                "system": "http://terminology.hl7.org/CodeSystem/v3-ObservationInterpretation",
                "display": "Low"
              }
            ]
          }
        ],
        "text": {
          "status": "generated",
          "div": "<div xmlns=\"http://www.w3.org/1999/xhtml\"><table class=\"hl7__eu__lab__report\"><tr><th>Test</th><th>07-Oct-2015</th><th>Reference&#xA0;Range</th><th>Unit</th></tr><tr><td>Specific gravity of Urine by Test strip</td><td>1.0</td><td>1.005 - 1.03</td><td>L</td><td>{nominal}</td></tr></table></div>"
        },
        "status": "final",
        "subject": {
          "reference": "urn:uuid:516898c4-cee3-40e1-b612-877177da2442",
          "display": "Θεμιστοκλής Λιναρδάκη"
        },
        "effectiveDateTime": "2015-10-07T06:16:00Z",
        "specimen": {
          "reference": "urn:uuid:1b0224a7-536d-4200-a581-6fa4cccb85a7"
        }
      }
    },
    {
      "fullUrl": "urn:uuid:5eba5e21-cb59-4f77-b44c-3fa40574e992",
      "resource": {
        "resourceType": "Observation",
        "id": "5eba5e21-cb59-4f77-b44c-3fa40574e992",
        "meta": {
          "profile": [
            "http://hl7.eu/fhir/laboratory/StructureDefinition/Observation-resultslab-eu-lab"
          ]
        },
        "performer": [
          {
            "display": "The Central European Lab"
          }
        ],
        "category": [
          {
            "coding": [
              {
                "system": "http://terminology.hl7.org/CodeSystem/observation-category",
                "code": "laboratory"
              }
            ]
          }
        ],
        "code": {
          "coding": [
            {
              "code": "5803-2",
              "system": "http://loinc.org",
              "display": "pH of Urine by Test strip"
            }
          ],
          "text": "pH of Urine by Test strip"
        },
        "valueQuantity": {
          "system": "http://unitsofmeasure.org",
          "value": 6.1,
          "unit": "pH",
          "code": "pH"
        },
        "referenceRange": [
          {
            "low": {
              "value": 4.6,
              "code": "pH",
              "system": "http://unitsofmeasure.org"
            }
          },
          {
            "high": {
              "value": 7,
              "code": "pH",
              "system": "http://unitsofmeasure.org"
            }
          }
        ],
        "text": {
          "status": "generated",
          "div": "<div xmlns=\"http://www.w3.org/1999/xhtml\"><table class=\"hl7__eu__lab__report\"><tr><th>Test</th><th>07-Oct-2015</th><th>Reference&#xA0;Range</th><th>Unit</th></tr><tr><td>pH of Urine by Test strip</td><td>6.1</td><td>4.6 - 7</td><td></td><td>pH</td></tr></table></div>"
        },
        "status": "final",
        "subject": {
          "reference": "urn:uuid:516898c4-cee3-40e1-b612-877177da2442",
          "display": "Θεμιστοκλής Λιναρδάκη"
        },
        "effectiveDateTime": "2015-10-07T06:16:00Z",
        "specimen": {
          "reference": "urn:uuid:1b0224a7-536d-4200-a581-6fa4cccb85a7"
        }
      }
    },
    {
      "fullUrl": "urn:uuid:d5dbc7d5-12d5-4ed4-923e-2c52e4876d7c",
      "resource": {
        "resourceType": "Observation",
        "id": "d5dbc7d5-12d5-4ed4-923e-2c52e4876d7c",
        "meta": {
          "profile": [
            "http://hl7.eu/fhir/laboratory/StructureDefinition/Observation-resultslab-eu-lab"
          ]
        },
        "performer": [
          {
            "display": "The Central European Lab"
          }
        ],
        "category": [
          {
            "coding": [
              {
                "system": "http://terminology.hl7.org/CodeSystem/observation-category",
                "code": "laboratory"
              }
            ]
          }
        ],
        "code": {
          "coding": [
            {
              "code": "5804-0",
              "system": "http://loinc.org",
              "display": "Protein [Mass/volume] in Urine by Test strip"
            }
          ],
          "text": "Protein [Mass/volume] in Urine by Test strip"
        },
        "valueQuantity": {
          "system": "http://unitsofmeasure.org",
          "value": 269.2,
          "unit": "mg/dL",
          "code": "mg/dL"
        },
        "referenceRange": [
          {
            "low": {
              "value": 0,
              "code": "mg/dL",
              "system": "http://unitsofmeasure.org"
            }
          },
          {
            "high": {
              "value": 150,
              "code": "mg/dL",
              "system": "http://unitsofmeasure.org"
            }
          }
        ],
        "interpretation": [
          {
            "coding": [
              {
                "code": "H",
                "system": "http://terminology.hl7.org/CodeSystem/v3-ObservationInterpretation",
                "display": "High"
              }
            ]
          }
        ],
        "text": {
          "status": "generated",
          "div": "<div xmlns=\"http://www.w3.org/1999/xhtml\"><table class=\"hl7__eu__lab__report\"><tr><th>Test</th><th>07-Oct-2015</th><th>Reference&#xA0;Range</th><th>Unit</th></tr><tr><td>Protein [Mass/volume] in Urine by Test strip</td><td>269.2</td><td>0 - 150</td><td>H</td><td>mg/dL</td></tr></table></div>"
        },
        "status": "final",
        "subject": {
          "reference": "urn:uuid:516898c4-cee3-40e1-b612-877177da2442",
          "display": "Θεμιστοκλής Λιναρδάκη"
        },
        "effectiveDateTime": "2015-10-07T06:16:00Z",
        "specimen": {
          "reference": "urn:uuid:1b0224a7-536d-4200-a581-6fa4cccb85a7"
        }
      }
    },
    {
      "fullUrl": "urn:uuid:536aec06-a311-4db4-8ade-1588dda95248",
      "resource": {
        "resourceType": "Observation",
        "id": "536aec06-a311-4db4-8ade-1588dda95248",
        "meta": {
          "profile": [
            "http://hl7.eu/fhir/laboratory/StructureDefinition/Observation-resultslab-eu-lab"
          ]
        },
        "performer": [
          {
            "display": "The Central European Lab"
          }
        ],
        "category": [
          {
            "coding": [
              {
                "system": "http://terminology.hl7.org/CodeSystem/observation-category",
                "code": "laboratory"
              }
            ]
          }
        ],
        "code": {
          "coding": [
            {
              "code": "20454-5",
              "system": "http://loinc.org",
              "display": "Protein [Presence] in Urine by Test strip"
            }
          ],
          "text": "Protein [Presence] in Urine by Test strip"
        },
        "text": {
          "status": "generated",
          "div": "<div xmlns=\"http://www.w3.org/1999/xhtml\"><table class=\"hl7__eu__lab__report\"><tr><th>Test</th><th>07-Oct-2015</th><th>Reference&#xA0;Range</th><th>Unit</th></tr><tr><td>Protein [Presence] in Urine by Test strip</td></tr></table></div>"
        },
        "status": "final",
        "subject": {
          "reference": "urn:uuid:516898c4-cee3-40e1-b612-877177da2442",
          "display": "Θεμιστοκλής Λιναρδάκη"
        },
        "effectiveDateTime": "2015-10-07T06:16:00Z",
        "specimen": {
          "reference": "urn:uuid:1b0224a7-536d-4200-a581-6fa4cccb85a7"
        }
      }
    },
    {
      "fullUrl": "urn:uuid:16f77a65-0d9a-469e-a589-b90095633228",
      "resource": {
        "resourceType": "Observation",
        "id": "16f77a65-0d9a-469e-a589-b90095633228",
        "meta": {
          "profile": [
            "http://hl7.eu/fhir/laboratory/StructureDefinition/Observation-resultslab-eu-lab"
          ]
        },
        "performer": [
          {
            "display": "The Central European Lab"
          }
        ],
        "category": [
          {
            "coding": [
              {
                "system": "http://terminology.hl7.org/CodeSystem/observation-category",
                "code": "laboratory"
              }
            ]
          }
        ],
        "code": {
          "coding": [
            {
              "code": "5802-4",
              "system": "http://loinc.org",
              "display": "Nitrite [Presence] in Urine by Test strip"
            }
          ],
          "text": "Nitrite [Presence] in Urine by Test strip"
        },
        "text": {
          "status": "generated",
          "div": "<div xmlns=\"http://www.w3.org/1999/xhtml\"><table class=\"hl7__eu__lab__report\"><tr><th>Test</th><th>07-Oct-2015</th><th>Reference&#xA0;Range</th><th>Unit</th></tr><tr><td>Nitrite [Presence] in Urine by Test strip</td></tr></table></div>"
        },
        "status": "final",
        "subject": {
          "reference": "urn:uuid:516898c4-cee3-40e1-b612-877177da2442",
          "display": "Θεμιστοκλής Λιναρδάκη"
        },
        "effectiveDateTime": "2015-10-07T06:16:00Z",
        "specimen": {
          "reference": "urn:uuid:1b0224a7-536d-4200-a581-6fa4cccb85a7"
        }
      }
    },
    {
      "fullUrl": "urn:uuid:2dee6cb0-b55e-4662-8acc-a502d4f6e850",
      "resource": {
        "resourceType": "Observation",
        "id": "2dee6cb0-b55e-4662-8acc-a502d4f6e850",
        "meta": {
          "profile": [
            "http://hl7.eu/fhir/laboratory/StructureDefinition/Observation-resultslab-eu-lab"
          ]
        },
        "performer": [
          {
            "display": "The Central European Lab"
          }
        ],
        "category": [
          {
            "coding": [
              {
                "system": "http://terminology.hl7.org/CodeSystem/observation-category",
                "code": "laboratory"
              }
            ]
          }
        ],
        "code": {
          "coding": [
            {
              "code": "5794-3",
              "system": "http://loinc.org",
              "display": "Hemoglobin [Presence] in Urine by Test strip"
            }
          ],
          "text": "Hemoglobin [Presence] in Urine by Test strip"
        },
        "text": {
          "status": "generated",
          "div": "<div xmlns=\"http://www.w3.org/1999/xhtml\"><table class=\"hl7__eu__lab__report\"><tr><th>Test</th><th>07-Oct-2015</th><th>Reference&#xA0;Range</th><th>Unit</th></tr><tr><td>Hemoglobin [Presence] in Urine by Test strip</td></tr></table></div>"
        },
        "status": "final",
        "subject": {
          "reference": "urn:uuid:516898c4-cee3-40e1-b612-877177da2442",
          "display": "Θεμιστοκλής Λιναρδάκη"
        },
        "effectiveDateTime": "2015-10-07T06:16:00Z",
        "specimen": {
          "reference": "urn:uuid:1b0224a7-536d-4200-a581-6fa4cccb85a7"
        }
      }
    },
    {
      "fullUrl": "urn:uuid:72d5339a-59aa-40fa-96d8-5fb4d565f11b",
      "resource": {
        "resourceType": "Observation",
        "id": "72d5339a-59aa-40fa-96d8-5fb4d565f11b",
        "meta": {
          "profile": [
            "http://hl7.eu/fhir/laboratory/StructureDefinition/Observation-resultslab-eu-lab"
          ]
        },
        "performer": [
          {
            "display": "The Central European Lab"
          }
        ],
        "category": [
          {
            "coding": [
              {
                "system": "http://terminology.hl7.org/CodeSystem/observation-category",
                "code": "laboratory"
              }
            ]
          }
        ],
        "code": {
          "coding": [
            {
              "code": "5799-2",
              "system": "http://loinc.org",
              "display": "Leukocyte esterase [Presence] in Urine by Test strip"
            }
          ],
          "text": "Leukocyte esterase [Presence] in Urine by Test strip"
        },
        "text": {
          "status": "generated",
          "div": "<div xmlns=\"http://www.w3.org/1999/xhtml\"><table class=\"hl7__eu__lab__report\"><tr><th>Test</th><th>07-Oct-2015</th><th>Reference&#xA0;Range</th><th>Unit</th></tr><tr><td>Leukocyte esterase [Presence] in Urine by Test strip</td></tr></table></div>"
        },
        "status": "final",
        "subject": {
          "reference": "urn:uuid:516898c4-cee3-40e1-b612-877177da2442",
          "display": "Θεμιστοκλής Λιναρδάκη"
        },
        "effectiveDateTime": "2015-10-07T06:16:00Z",
        "specimen": {
          "reference": "urn:uuid:1b0224a7-536d-4200-a581-6fa4cccb85a7"
        }
      }
    },
    {
      "fullUrl": "urn:uuid:25503221-257d-43f2-821b-5a12a27be779",
      "resource": {
        "resourceType": "Observation",
        "id": "25503221-257d-43f2-821b-5a12a27be779",
        "meta": {
          "profile": [
            "http://hl7.eu/fhir/laboratory/StructureDefinition/Observation-resultslab-eu-lab"
          ]
        },
        "performer": [
          {
            "display": "The Central European Lab"
          }
        ],
        "category": [
          {
            "coding": [
              {
                "system": "http://terminology.hl7.org/CodeSystem/observation-category",
                "code": "laboratory"
              }
            ]
          }
        ],
        "code": {
          "coding": [
            {
              "code": "4548-4",
              "system": "http://loinc.org",
              "display": "Hemoglobin A1c/Hemoglobin.total in Blood"
            }
          ],
          "text": "Hemoglobin A1c/Hemoglobin.total in Blood"
        },
        "valueQuantity": {
          "system": "http://unitsofmeasure.org",
          "value": 2.8,
          "unit": "%",
          "code": "%"
        },
        "referenceRange": [
          {
            "low": {
              "value": 4.3,
              "code": "%",
              "system": "http://unitsofmeasure.org"
            }
          },
          {
            "high": {
              "value": 6.4,
              "code": "%",
              "system": "http://unitsofmeasure.org"
            }
          }
        ],
        "interpretation": [
          {
            "coding": [
              {
                "code": "L",
                "system": "http://terminology.hl7.org/CodeSystem/v3-ObservationInterpretation",
                "display": "Low"
              }
            ]
          }
        ],
        "text": {
          "status": "generated",
          "div": "<div xmlns=\"http://www.w3.org/1999/xhtml\"><table class=\"hl7__eu__lab__report\"><tr><th>Test</th><th>07-Oct-2015</th><th>Reference&#xA0;Range</th><th>Unit</th></tr><tr><td>Hemoglobin A1c/Hemoglobin.total in Blood</td><td>2.8</td><td>4.3 - 6.4</td><td>L</td><td>%</td></tr></table></div>"
        },
        "status": "final",
        "subject": {
          "reference": "urn:uuid:516898c4-cee3-40e1-b612-877177da2442",
          "display": "Θεμιστοκλής Λιναρδάκη"
        },
        "effectiveDateTime": "2015-10-07T06:16:00Z",
        "specimen": {
          "reference": "urn:uuid:388eb8d6-df7a-479d-b609-10883ac462ec"
        }
      }
    },
    {
      "fullUrl": "urn:uuid:e100e330-8eaa-468b-98fd-a9b8ba13f0aa",
      "resource": {
        "resourceType": "Observation",
        "id": "e100e330-8eaa-468b-98fd-a9b8ba13f0aa",
        "meta": {
          "profile": [
            "http://hl7.eu/fhir/laboratory/StructureDefinition/Observation-resultslab-eu-lab"
          ]
        },
        "performer": [
          {
            "display": "The Central European Lab"
          }
        ],
        "category": [
          {
            "coding": [
              {
                "system": "http://terminology.hl7.org/CodeSystem/observation-category",
                "code": "laboratory"
              }
            ]
          }
        ],
        "code": {
          "coding": [
            {
              "code": "2339-0",
              "system": "http://loinc.org",
              "display": "Glucose [Mass/volume] in Blood"
            }
          ],
          "text": "Glucose [Mass/volume] in Blood"
        },
        "valueQuantity": {
          "system": "http://unitsofmeasure.org",
          "value": 73.6,
          "unit": "mg/dL",
          "code": "mg/dL"
        },
        "referenceRange": [
          {
            "low": {
              "value": 70,
              "code": "mg/dL",
              "system": "http://unitsofmeasure.org"
            }
          },
          {
            "high": {
              "value": 140,
              "code": "mg/dL",
              "system": "http://unitsofmeasure.org"
            }
          }
        ],
        "text": {
          "status": "generated",
          "div": "<div xmlns=\"http://www.w3.org/1999/xhtml\"><table class=\"hl7__eu__lab__report\"><tr><th>Test</th><th>07-Oct-2015</th><th>Reference&#xA0;Range</th><th>Unit</th></tr><tr><td>Glucose [Mass/volume] in Blood</td><td>73.6</td><td>70 - 140</td><td></td><td>mg/dL</td></tr></table></div>"
        },
        "status": "final",
        "subject": {
          "reference": "urn:uuid:516898c4-cee3-40e1-b612-877177da2442",
          "display": "Θεμιστοκλής Λιναρδάκη"
        },
        "effectiveDateTime": "2015-10-07T06:16:00Z",
        "specimen": {
          "reference": "urn:uuid:388eb8d6-df7a-479d-b609-10883ac462ec"
        }
      }
    },
    {
      "fullUrl": "urn:uuid:0c457271-7771-4d69-975a-39f09f6a0a1d",
      "resource": {
        "resourceType": "Observation",
        "id": "0c457271-7771-4d69-975a-39f09f6a0a1d",
        "meta": {
          "profile": [
            "http://hl7.eu/fhir/laboratory/StructureDefinition/Observation-resultslab-eu-lab"
          ]
        },
        "performer": [
          {
            "display": "The Central European Lab"
          }
        ],
        "category": [
          {
            "coding": [
              {
                "system": "http://terminology.hl7.org/CodeSystem/observation-category",
                "code": "laboratory"
              }
            ]
          }
        ],
        "code": {
          "coding": [
            {
              "code": "6299-2",
              "system": "http://loinc.org",
              "display": "Urea nitrogen [Mass/volume] in Blood"
            }
          ],
          "text": "Urea nitrogen [Mass/volume] in Blood"
        },
        "valueQuantity": {
          "system": "http://unitsofmeasure.org",
          "value": 14.8,
          "unit": "mg/dL",
          "code": "mg/dL"
        },
        "referenceRange": [
          {
            "low": {
              "value": 7,
              "code": "mg/dL",
              "system": "http://unitsofmeasure.org"
            }
          },
          {
            "high": {
              "value": 20,
              "code": "mg/dL",
              "system": "http://unitsofmeasure.org"
            }
          }
        ],
        "text": {
          "status": "generated",
          "div": "<div xmlns=\"http://www.w3.org/1999/xhtml\"><table class=\"hl7__eu__lab__report\"><tr><th>Test</th><th>07-Oct-2015</th><th>Reference&#xA0;Range</th><th>Unit</th></tr><tr><td>Urea nitrogen [Mass/volume] in Blood</td><td>14.8</td><td>7 - 20</td><td></td><td>mg/dL</td></tr></table></div>"
        },
        "status": "final",
        "subject": {
          "reference": "urn:uuid:516898c4-cee3-40e1-b612-877177da2442",
          "display": "Θεμιστοκλής Λιναρδάκη"
        },
        "effectiveDateTime": "2015-10-07T06:16:00Z",
        "specimen": {
          "reference": "urn:uuid:388eb8d6-df7a-479d-b609-10883ac462ec"
        }
      }
    },
    {
      "fullUrl": "urn:uuid:9cd01b6f-0510-4de1-9f45-2fa4392a9abc",
      "resource": {
        "resourceType": "Observation",
        "id": "9cd01b6f-0510-4de1-9f45-2fa4392a9abc",
        "meta": {
          "profile": [
            "http://hl7.eu/fhir/laboratory/StructureDefinition/Observation-resultslab-eu-lab"
          ]
        },
        "performer": [
          {
            "display": "The Central European Lab"
          }
        ],
        "category": [
          {
            "coding": [
              {
                "system": "http://terminology.hl7.org/CodeSystem/observation-category",
                "code": "laboratory"
              }
            ]
          }
        ],
        "code": {
          "coding": [
            {
              "code": "38483-4",
              "system": "http://loinc.org",
              "display": "Creatinine [Mass/volume] in Blood"
            }
          ],
          "text": "Creatinine [Mass/volume] in Blood"
        },
        "valueQuantity": {
          "system": "http://unitsofmeasure.org",
          "value": 3.5,
          "unit": "mg/dL",
          "code": "mg/dL"
        },
        "referenceRange": [
          {
            "low": {
              "value": 0.6,
              "code": "mg/dL",
              "system": "http://unitsofmeasure.org"
            }
          },
          {
            "high": {
              "value": 1.3,
              "code": "mg/dL",
              "system": "http://unitsofmeasure.org"
            }
          }
        ],
        "interpretation": [
          {
            "coding": [
              {
                "code": "H",
                "system": "http://terminology.hl7.org/CodeSystem/v3-ObservationInterpretation",
                "display": "High"
              }
            ]
          }
        ],
        "text": {
          "status": "generated",
          "div": "<div xmlns=\"http://www.w3.org/1999/xhtml\"><table class=\"hl7__eu__lab__report\"><tr><th>Test</th><th>07-Oct-2015</th><th>Reference&#xA0;Range</th><th>Unit</th></tr><tr><td>Creatinine [Mass/volume] in Blood</td><td>3.5</td><td>0.6 - 1.3</td><td>H</td><td>mg/dL</td></tr></table></div>"
        },
        "status": "final",
        "subject": {
          "reference": "urn:uuid:516898c4-cee3-40e1-b612-877177da2442",
          "display": "Θεμιστοκλής Λιναρδάκη"
        },
        "effectiveDateTime": "2015-10-07T06:16:00Z",
        "specimen": {
          "reference": "urn:uuid:388eb8d6-df7a-479d-b609-10883ac462ec"
        }
      }
    },
    {
      "fullUrl": "urn:uuid:5b5927d0-acee-4c49-b564-e04fee9ee739",
      "resource": {
        "resourceType": "Observation",
        "id": "5b5927d0-acee-4c49-b564-e04fee9ee739",
        "meta": {
          "profile": [
            "http://hl7.eu/fhir/laboratory/StructureDefinition/Observation-resultslab-eu-lab"
          ]
        },
        "performer": [
          {
            "display": "The Central European Lab"
          }
        ],
        "category": [
          {
            "coding": [
              {
                "system": "http://terminology.hl7.org/CodeSystem/observation-category",
                "code": "laboratory"
              }
            ]
          }
        ],
        "code": {
          "coding": [
            {
              "code": "49765-1",
              "system": "http://loinc.org",
              "display": "Calcium [Mass/volume] in Blood"
            }
          ],
          "text": "Calcium [Mass/volume] in Blood"
        },
        "valueQuantity": {
          "system": "http://unitsofmeasure.org",
          "value": 9.6,
          "unit": "mg/dL",
          "code": "mg/dL"
        },
        "referenceRange": [
          {
            "low": {
              "value": 8.5,
              "code": "mg/dL",
              "system": "http://unitsofmeasure.org"
            }
          },
          {
            "high": {
              "value": 10.5,
              "code": "mg/dL",
              "system": "http://unitsofmeasure.org"
            }
          }
        ],
        "text": {
          "status": "generated",
          "div": "<div xmlns=\"http://www.w3.org/1999/xhtml\"><table class=\"hl7__eu__lab__report\"><tr><th>Test</th><th>07-Oct-2015</th><th>Reference&#xA0;Range</th><th>Unit</th></tr><tr><td>Calcium [Mass/volume] in Blood</td><td>9.6</td><td>8.5 - 10.5</td><td></td><td>mg/dL</td></tr></table></div>"
        },
        "status": "final",
        "subject": {
          "reference": "urn:uuid:516898c4-cee3-40e1-b612-877177da2442",
          "display": "Θεμιστοκλής Λιναρδάκη"
        },
        "effectiveDateTime": "2015-10-07T06:16:00Z",
        "specimen": {
          "reference": "urn:uuid:388eb8d6-df7a-479d-b609-10883ac462ec"
        }
      }
    },
    {
      "fullUrl": "urn:uuid:dedbca4c-b437-4adc-bc82-90696a3131b6",
      "resource": {
        "resourceType": "Observation",
        "id": "dedbca4c-b437-4adc-bc82-90696a3131b6",
        "meta": {
          "profile": [
            "http://hl7.eu/fhir/laboratory/StructureDefinition/Observation-resultslab-eu-lab"
          ]
        },
        "performer": [
          {
            "display": "The Central European Lab"
          }
        ],
        "category": [
          {
            "coding": [
              {
                "system": "http://terminology.hl7.org/CodeSystem/observation-category",
                "code": "laboratory"
              }
            ]
          }
        ],
        "code": {
          "coding": [
            {
              "code": "2947-0",
              "system": "http://loinc.org",
              "display": "Sodium [Moles/volume] in Blood"
            }
          ],
          "text": "Sodium [Moles/volume] in Blood"
        },
        "valueQuantity": {
          "system": "http://unitsofmeasure.org",
          "value": 137.3,
          "unit": "mmol/L",
          "code": "mmol/L"
        },
        "referenceRange": [
          {
            "low": {
              "value": 135,
              "code": "mmol/L",
              "system": "http://unitsofmeasure.org"
            }
          },
          {
            "high": {
              "value": 145,
              "code": "mmol/L",
              "system": "http://unitsofmeasure.org"
            }
          }
        ],
        "text": {
          "status": "generated",
          "div": "<div xmlns=\"http://www.w3.org/1999/xhtml\"><table class=\"hl7__eu__lab__report\"><tr><th>Test</th><th>07-Oct-2015</th><th>Reference&#xA0;Range</th><th>Unit</th></tr><tr><td>Sodium [Moles/volume] in Blood</td><td>137.3</td><td>135 - 145</td><td></td><td>mmol/L</td></tr></table></div>"
        },
        "status": "final",
        "subject": {
          "reference": "urn:uuid:516898c4-cee3-40e1-b612-877177da2442",
          "display": "Θεμιστοκλής Λιναρδάκη"
        },
        "effectiveDateTime": "2015-10-07T06:16:00Z",
        "specimen": {
          "reference": "urn:uuid:388eb8d6-df7a-479d-b609-10883ac462ec"
        }
      }
    },
    {
      "fullUrl": "urn:uuid:dce71349-8f08-4739-b44b-4187f938dfae",
      "resource": {
        "resourceType": "Observation",
        "id": "dce71349-8f08-4739-b44b-4187f938dfae",
        "meta": {
          "profile": [
            "http://hl7.eu/fhir/laboratory/StructureDefinition/Observation-resultslab-eu-lab"
          ]
        },
        "performer": [
          {
            "display": "The Central European Lab"
          }
        ],
        "category": [
          {
            "coding": [
              {
                "system": "http://terminology.hl7.org/CodeSystem/observation-category",
                "code": "laboratory"
              }
            ]
          }
        ],
        "code": {
          "coding": [
            {
              "code": "6298-4",
              "system": "http://loinc.org",
              "display": "Potassium [Moles/volume] in Blood"
            }
          ],
          "text": "Potassium [Moles/volume] in Blood"
        },
        "valueQuantity": {
          "system": "http://unitsofmeasure.org",
          "value": 3.7,
          "unit": "mmol/L",
          "code": "mmol/L"
        },
        "referenceRange": [
          {
            "low": {
              "value": 3.5,
              "code": "mmol/L",
              "system": "http://unitsofmeasure.org"
            }
          },
          {
            "high": {
              "value": 5.3,
              "code": "mmol/L",
              "system": "http://unitsofmeasure.org"
            }
          }
        ],
        "text": {
          "status": "generated",
          "div": "<div xmlns=\"http://www.w3.org/1999/xhtml\"><table class=\"hl7__eu__lab__report\"><tr><th>Test</th><th>07-Oct-2015</th><th>Reference&#xA0;Range</th><th>Unit</th></tr><tr><td>Potassium [Moles/volume] in Blood</td><td>3.7</td><td>3.5 - 5.3</td><td></td><td>mmol/L</td></tr></table></div>"
        },
        "status": "final",
        "subject": {
          "reference": "urn:uuid:516898c4-cee3-40e1-b612-877177da2442",
          "display": "Θεμιστοκλής Λιναρδάκη"
        },
        "effectiveDateTime": "2015-10-07T06:16:00Z",
        "specimen": {
          "reference": "urn:uuid:388eb8d6-df7a-479d-b609-10883ac462ec"
        }
      }
    },
    {
      "fullUrl": "urn:uuid:6a6326ae-8566-48d1-a3da-b794b44b046e",
      "resource": {
        "resourceType": "Observation",
        "id": "6a6326ae-8566-48d1-a3da-b794b44b046e",
        "meta": {
          "profile": [
            "http://hl7.eu/fhir/laboratory/StructureDefinition/Observation-resultslab-eu-lab"
          ]
        },
        "performer": [
          {
            "display": "The Central European Lab"
          }
        ],
        "category": [
          {
            "coding": [
              {
                "system": "http://terminology.hl7.org/CodeSystem/observation-category",
                "code": "laboratory"
              }
            ]
          }
        ],
        "code": {
          "coding": [
            {
              "code": "2069-3",
              "system": "http://loinc.org",
              "display": "Chloride [Moles/volume] in Blood"
            }
          ],
          "text": "Chloride [Moles/volume] in Blood"
        },
        "valueQuantity": {
          "system": "http://unitsofmeasure.org",
          "value": 109.7,
          "unit": "mmol/L",
          "code": "mmol/L"
        },
        "referenceRange": [
          {
            "low": {
              "value": 98,
              "code": "mmol/L",
              "system": "http://unitsofmeasure.org"
            }
          },
          {
            "high": {
              "value": 110,
              "code": "mmol/L",
              "system": "http://unitsofmeasure.org"
            }
          }
        ],
        "text": {
          "status": "generated",
          "div": "<div xmlns=\"http://www.w3.org/1999/xhtml\"><table class=\"hl7__eu__lab__report\"><tr><th>Test</th><th>07-Oct-2015</th><th>Reference&#xA0;Range</th><th>Unit</th></tr><tr><td>Chloride [Moles/volume] in Blood</td><td>109.7</td><td>98 - 110</td><td></td><td>mmol/L</td></tr></table></div>"
        },
        "status": "final",
        "subject": {
          "reference": "urn:uuid:516898c4-cee3-40e1-b612-877177da2442",
          "display": "Θεμιστοκλής Λιναρδάκη"
        },
        "effectiveDateTime": "2015-10-07T06:16:00Z",
        "specimen": {
          "reference": "urn:uuid:388eb8d6-df7a-479d-b609-10883ac462ec"
        }
      }
    },
    {
      "fullUrl": "urn:uuid:12432dbc-8739-4c3c-9a68-910086559f6e",
      "resource": {
        "resourceType": "Observation",
        "id": "12432dbc-8739-4c3c-9a68-910086559f6e",
        "meta": {
          "profile": [
            "http://hl7.eu/fhir/laboratory/StructureDefinition/Observation-resultslab-eu-lab"
          ]
        },
        "performer": [
          {
            "display": "The Central European Lab"
          }
        ],
        "category": [
          {
            "coding": [
              {
                "system": "http://terminology.hl7.org/CodeSystem/observation-category",
                "code": "laboratory"
              }
            ]
          }
        ],
        "code": {
          "coding": [
            {
              "code": "20565-8",
              "system": "http://loinc.org",
              "display": "Carbon dioxide, total [Moles/volume] in Blood"
            }
          ],
          "text": "Carbon dioxide, total [Moles/volume] in Blood"
        },
        "valueQuantity": {
          "system": "http://unitsofmeasure.org",
          "value": 20.6,
          "unit": "mmol/L",
          "code": "mmol/L"
        },
        "referenceRange": [
          {
            "low": {
              "value": 22,
              "code": "mmol/L",
              "system": "http://unitsofmeasure.org"
            }
          },
          {
            "high": {
              "value": 29,
              "code": "mmol/L",
              "system": "http://unitsofmeasure.org"
            }
          }
        ],
        "interpretation": [
          {
            "coding": [
              {
                "code": "L",
                "system": "http://terminology.hl7.org/CodeSystem/v3-ObservationInterpretation",
                "display": "Low"
              }
            ]
          }
        ],
        "text": {
          "status": "generated",
          "div": "<div xmlns=\"http://www.w3.org/1999/xhtml\"><table class=\"hl7__eu__lab__report\"><tr><th>Test</th><th>07-Oct-2015</th><th>Reference&#xA0;Range</th><th>Unit</th></tr><tr><td>Carbon dioxide, total [Moles/volume] in Blood</td><td>20.6</td><td>22 - 29</td><td>L</td><td>mmol/L</td></tr></table></div>"
        },
        "status": "final",
        "subject": {
          "reference": "urn:uuid:516898c4-cee3-40e1-b612-877177da2442",
          "display": "Θεμιστοκλής Λιναρδάκη"
        },
        "effectiveDateTime": "2015-10-07T06:16:00Z",
        "specimen": {
          "reference": "urn:uuid:388eb8d6-df7a-479d-b609-10883ac462ec"
        }
      }
    },
    {
      "fullUrl": "urn:uuid:fda48585-7299-4bfd-ad1b-8f3bb0846bfa",
      "resource": {
        "resourceType": "Observation",
        "id": "fda48585-7299-4bfd-ad1b-8f3bb0846bfa",
        "meta": {
          "profile": [
            "http://hl7.eu/fhir/laboratory/StructureDefinition/Observation-resultslab-eu-lab"
          ]
        },
        "performer": [
          {
            "display": "The Central European Lab"
          }
        ],
        "category": [
          {
            "coding": [
              {
                "system": "http://terminology.hl7.org/CodeSystem/observation-category",
                "code": "laboratory"
              }
            ]
          }
        ],
        "code": {
          "coding": [
            {
              "code": "2093-3",
              "system": "http://loinc.org",
              "display": "Cholesterol [Mass/volume] in Serum or Plasma"
            }
          ],
          "text": "Cholesterol [Mass/volume] in Serum or Plasma"
        },
        "valueQuantity": {
          "system": "http://unitsofmeasure.org",
          "value": 115.6,
          "unit": "mg/dL",
          "code": "mg/dL"
        },
        "referenceRange": [
          {
            "low": {
              "value": 125,
              "code": "mg/dL",
              "system": "http://unitsofmeasure.org"
            }
          },
          {
            "high": {
              "value": 200,
              "code": "mg/dL",
              "system": "http://unitsofmeasure.org"
            }
          }
        ],
        "interpretation": [
          {
            "coding": [
              {
                "code": "L",
                "system": "http://terminology.hl7.org/CodeSystem/v3-ObservationInterpretation",
                "display": "Low"
              }
            ]
          }
        ],
        "text": {
          "status": "generated",
          "div": "<div xmlns=\"http://www.w3.org/1999/xhtml\"><table class=\"hl7__eu__lab__report\"><tr><th>Test</th><th>07-Oct-2015</th><th>Reference&#xA0;Range</th><th>Unit</th></tr><tr><td>Cholesterol [Mass/volume] in Serum or Plasma</td><td>115.6</td><td>125 - 200</td><td>L</td><td>mg/dL</td></tr></table></div>"
        },
        "status": "final",
        "subject": {
          "reference": "urn:uuid:516898c4-cee3-40e1-b612-877177da2442",
          "display": "Θεμιστοκλής Λιναρδάκη"
        },
        "effectiveDateTime": "2015-10-07T06:16:00Z",
        "specimen": {
          "reference": "urn:uuid:9dae5672-29c6-4fd2-bfb7-f10a0d228269"
        }
      }
    },
    {
      "fullUrl": "urn:uuid:280c44fb-7140-45e7-99a0-801f2c264c45",
      "resource": {
        "resourceType": "Observation",
        "id": "280c44fb-7140-45e7-99a0-801f2c264c45",
        "meta": {
          "profile": [
            "http://hl7.eu/fhir/laboratory/StructureDefinition/Observation-resultslab-eu-lab"
          ]
        },
        "performer": [
          {
            "display": "The Central European Lab"
          }
        ],
        "category": [
          {
            "coding": [
              {
                "system": "http://terminology.hl7.org/CodeSystem/observation-category",
                "code": "laboratory"
              }
            ]
          }
        ],
        "code": {
          "coding": [
            {
              "code": "2571-8",
              "system": "http://loinc.org",
              "display": "Triglyceride [Mass/volume] in Serum or Plasma"
            }
          ],
          "text": "Triglyceride [Mass/volume] in Serum or Plasma"
        },
        "valueQuantity": {
          "system": "http://unitsofmeasure.org",
          "value": 122.9,
          "unit": "mg/dL",
          "code": "mg/dL"
        },
        "referenceRange": [
          {
            "low": {
              "value": 0,
              "code": "mg/dL",
              "system": "http://unitsofmeasure.org"
            }
          },
          {
            "high": {
              "value": 150,
              "code": "mg/dL",
              "system": "http://unitsofmeasure.org"
            }
          }
        ],
        "text": {
          "status": "generated",
          "div": "<div xmlns=\"http://www.w3.org/1999/xhtml\"><table class=\"hl7__eu__lab__report\"><tr><th>Test</th><th>07-Oct-2015</th><th>Reference&#xA0;Range</th><th>Unit</th></tr><tr><td>Triglyceride [Mass/volume] in Serum or Plasma</td><td>122.9</td><td>0 - 150</td><td></td><td>mg/dL</td></tr></table></div>"
        },
        "status": "final",
        "subject": {
          "reference": "urn:uuid:516898c4-cee3-40e1-b612-877177da2442",
          "display": "Θεμιστοκλής Λιναρδάκη"
        },
        "effectiveDateTime": "2015-10-07T06:16:00Z",
        "specimen": {
          "reference": "urn:uuid:9dae5672-29c6-4fd2-bfb7-f10a0d228269"
        }
      }
    },
    {
      "fullUrl": "urn:uuid:65428d21-f9ad-44e8-972e-0d4d541e293e",
      "resource": {
        "resourceType": "Observation",
        "id": "65428d21-f9ad-44e8-972e-0d4d541e293e",
        "meta": {
          "profile": [
            "http://hl7.eu/fhir/laboratory/StructureDefinition/Observation-resultslab-eu-lab"
          ]
        },
        "performer": [
          {
            "display": "The Central European Lab"
          }
        ],
        "category": [
          {
            "coding": [
              {
                "system": "http://terminology.hl7.org/CodeSystem/observation-category",
                "code": "laboratory"
              }
            ]
          }
        ],
        "code": {
          "coding": [
            {
              "code": "18262-6",
              "system": "http://loinc.org",
              "display": "Cholesterol in LDL [Mass/volume] in Serum or Plasma by Direct assay"
            }
          ],
          "text": "Cholesterol in LDL [Mass/volume] in Serum or Plasma by Direct assay"
        },
        "valueQuantity": {
          "system": "http://unitsofmeasure.org",
          "value": 59.4,
          "unit": "mg/dL",
          "code": "mg/dL"
        },
        "referenceRange": [
          {
            "low": {
              "value": 0,
              "code": "mg/dL",
              "system": "http://unitsofmeasure.org"
            }
          },
          {
            "high": {
              "value": 130,
              "code": "mg/dL",
              "system": "http://unitsofmeasure.org"
            }
          }
        ],
        "text": {
          "status": "generated",
          "div": "<div xmlns=\"http://www.w3.org/1999/xhtml\"><table class=\"hl7__eu__lab__report\"><tr><th>Test</th><th>07-Oct-2015</th><th>Reference&#xA0;Range</th><th>Unit</th></tr><tr><td>Cholesterol in LDL [Mass/volume] in Serum or Plasma by Direct assay</td><td>59.4</td><td>0 - 130</td><td></td><td>mg/dL</td></tr></table></div>"
        },
        "status": "final",
        "subject": {
          "reference": "urn:uuid:516898c4-cee3-40e1-b612-877177da2442",
          "display": "Θεμιστοκλής Λιναρδάκη"
        },
        "effectiveDateTime": "2015-10-07T06:16:00Z",
        "specimen": {
          "reference": "urn:uuid:9dae5672-29c6-4fd2-bfb7-f10a0d228269"
        }
      }
    },
    {
      "fullUrl": "urn:uuid:40880caa-5cf5-4f2d-bf57-e835aaa02125",
      "resource": {
        "resourceType": "Observation",
        "id": "40880caa-5cf5-4f2d-bf57-e835aaa02125",
        "meta": {
          "profile": [
            "http://hl7.eu/fhir/laboratory/StructureDefinition/Observation-resultslab-eu-lab"
          ]
        },
        "performer": [
          {
            "display": "The Central European Lab"
          }
        ],
        "category": [
          {
            "coding": [
              {
                "system": "http://terminology.hl7.org/CodeSystem/observation-category",
                "code": "laboratory"
              }
            ]
          }
        ],
        "code": {
          "coding": [
            {
              "code": "2085-9",
              "system": "http://loinc.org",
              "display": "Cholesterol in HDL [Mass/volume] in Serum or Plasma"
            }
          ],
          "text": "Cholesterol in HDL [Mass/volume] in Serum or Plasma"
        },
        "valueQuantity": {
          "system": "http://unitsofmeasure.org",
          "value": 31.6,
          "unit": "mg/dL",
          "code": "mg/dL"
        },
        "referenceRange": [
          {
            "low": {
              "value": 40,
              "code": "mg/dL",
              "system": "http://unitsofmeasure.org"
            }
          },
          {
            "high": {
              "value": 60,
              "code": "mg/dL",
              "system": "http://unitsofmeasure.org"
            }
          }
        ],
        "interpretation": [
          {
            "coding": [
              {
                "code": "L",
                "system": "http://terminology.hl7.org/CodeSystem/v3-ObservationInterpretation",
                "display": "Low"
              }
            ]
          }
        ],
        "text": {
          "status": "generated",
          "div": "<div xmlns=\"http://www.w3.org/1999/xhtml\"><table class=\"hl7__eu__lab__report\"><tr><th>Test</th><th>07-Oct-2015</th><th>Reference&#xA0;Range</th><th>Unit</th></tr><tr><td>Cholesterol in HDL [Mass/volume] in Serum or Plasma</td><td>31.6</td><td>40 - 60</td><td>L</td><td>mg/dL</td></tr></table></div>"
        },
        "status": "final",
        "subject": {
          "reference": "urn:uuid:516898c4-cee3-40e1-b612-877177da2442",
          "display": "Θεμιστοκλής Λιναρδάκη"
        },
        "effectiveDateTime": "2015-10-07T06:16:00Z",
        "specimen": {
          "reference": "urn:uuid:9dae5672-29c6-4fd2-bfb7-f10a0d228269"
        }
      }
    },
    {
      "fullUrl": "urn:uuid:40e05100-d8ef-4620-bfa5-0dc2c0b5d421",
      "resource": {
        "resourceType": "Observation",
        "id": "40e05100-d8ef-4620-bfa5-0dc2c0b5d421",
        "meta": {
          "profile": [
            "http://hl7.eu/fhir/laboratory/StructureDefinition/Observation-resultslab-eu-lab"
          ]
        },
        "performer": [
          {
            "display": "The Central European Lab"
          }
        ],
        "category": [
          {
            "coding": [
              {
                "system": "http://terminology.hl7.org/CodeSystem/observation-category",
                "code": "laboratory"
              }
            ]
          }
        ],
        "code": {
          "coding": [
            {
              "code": "6690-2",
              "system": "http://loinc.org",
              "display": "Leukocytes [#/volume] in Blood by Automated count"
            }
          ],
          "text": "Leukocytes [#/volume] in Blood by Automated count"
        },
        "valueQuantity": {
          "system": "http://unitsofmeasure.org",
          "value": 8,
          "unit": "10*3/uL",
          "code": "10*3/uL"
        },
        "referenceRange": [
          {
            "low": {
              "value": 3.5,
              "code": "10*3/uL",
              "system": "http://unitsofmeasure.org"
            }
          },
          {
            "high": {
              "value": 10.5,
              "code": "10*3/uL",
              "system": "http://unitsofmeasure.org"
            }
          }
        ],
        "text": {
          "status": "generated",
          "div": "<div xmlns=\"http://www.w3.org/1999/xhtml\"><table class=\"hl7__eu__lab__report\"><tr><th>Test</th><th>07-Oct-2015</th><th>Reference&#xA0;Range</th><th>Unit</th></tr><tr><td>Leukocytes [#/volume] in Blood by Automated count</td><td>8.0</td><td>3.5 - 10.5</td><td></td><td>10*3/uL</td></tr></table></div>"
        },
        "status": "final",
        "subject": {
          "reference": "urn:uuid:516898c4-cee3-40e1-b612-877177da2442",
          "display": "Θεμιστοκλής Λιναρδάκη"
        },
        "effectiveDateTime": "2015-10-07T06:16:00Z",
        "specimen": {
          "reference": "urn:uuid:388eb8d6-df7a-479d-b609-10883ac462ec"
        }
      }
    },
    {
      "fullUrl": "urn:uuid:3595a1bb-0b47-4908-81a5-435b330caa08",
      "resource": {
        "resourceType": "Observation",
        "id": "3595a1bb-0b47-4908-81a5-435b330caa08",
        "meta": {
          "profile": [
            "http://hl7.eu/fhir/laboratory/StructureDefinition/Observation-resultslab-eu-lab"
          ]
        },
        "performer": [
          {
            "display": "The Central European Lab"
          }
        ],
        "category": [
          {
            "coding": [
              {
                "system": "http://terminology.hl7.org/CodeSystem/observation-category",
                "code": "laboratory"
              }
            ]
          }
        ],
        "code": {
          "coding": [
            {
              "code": "789-8",
              "system": "http://loinc.org",
              "display": "Erythrocytes [#/volume] in Blood by Automated count"
            }
          ],
          "text": "Erythrocytes [#/volume] in Blood by Automated count"
        },
        "valueQuantity": {
          "system": "http://unitsofmeasure.org",
          "value": 3.9,
          "unit": "10*6/uL",
          "code": "10*6/uL"
        },
        "referenceRange": [
          {
            "low": {
              "value": 4.5,
              "code": "10*6/uL",
              "system": "http://unitsofmeasure.org"
            }
          },
          {
            "high": {
              "value": 5.7,
              "code": "10*6/uL",
              "system": "http://unitsofmeasure.org"
            }
          }
        ],
        "interpretation": [
          {
            "coding": [
              {
                "code": "L",
                "system": "http://terminology.hl7.org/CodeSystem/v3-ObservationInterpretation",
                "display": "Low"
              }
            ]
          }
        ],
        "text": {
          "status": "generated",
          "div": "<div xmlns=\"http://www.w3.org/1999/xhtml\"><table class=\"hl7__eu__lab__report\"><tr><th>Test</th><th>07-Oct-2015</th><th>Reference&#xA0;Range</th><th>Unit</th></tr><tr><td>Erythrocytes [#/volume] in Blood by Automated count</td><td>3.9</td><td>4.5 - 5.7</td><td>L</td><td>10*6/uL</td></tr></table></div>"
        },
        "status": "final",
        "subject": {
          "reference": "urn:uuid:516898c4-cee3-40e1-b612-877177da2442",
          "display": "Θεμιστοκλής Λιναρδάκη"
        },
        "effectiveDateTime": "2015-10-07T06:16:00Z",
        "specimen": {
          "reference": "urn:uuid:388eb8d6-df7a-479d-b609-10883ac462ec"
        }
      }
    },
    {
      "fullUrl": "urn:uuid:db1ab9ed-42c1-4d6a-ac45-efc430e61271",
      "resource": {
        "resourceType": "Observation",
        "id": "db1ab9ed-42c1-4d6a-ac45-efc430e61271",
        "meta": {
          "profile": [
            "http://hl7.eu/fhir/laboratory/StructureDefinition/Observation-resultslab-eu-lab"
          ]
        },
        "performer": [
          {
            "display": "The Central European Lab"
          }
        ],
        "category": [
          {
            "coding": [
              {
                "system": "http://terminology.hl7.org/CodeSystem/observation-category",
                "code": "laboratory"
              }
            ]
          }
        ],
        "code": {
          "coding": [
            {
              "code": "718-7",
              "system": "http://loinc.org",
              "display": "Hemoglobin [Mass/volume] in Blood"
            }
          ],
          "text": "Hemoglobin [Mass/volume] in Blood"
        },
        "valueQuantity": {
          "system": "http://unitsofmeasure.org",
          "value": 16.1,
          "unit": "g/dL",
          "code": "g/dL"
        },
        "referenceRange": [
          {
            "low": {
              "value": 14,
              "code": "g/dL",
              "system": "http://unitsofmeasure.org"
            }
          },
          {
            "high": {
              "value": 18,
              "code": "g/dL",
              "system": "http://unitsofmeasure.org"
            }
          }
        ],
        "text": {
          "status": "generated",
          "div": "<div xmlns=\"http://www.w3.org/1999/xhtml\"><table class=\"hl7__eu__lab__report\"><tr><th>Test</th><th>07-Oct-2015</th><th>Reference&#xA0;Range</th><th>Unit</th></tr><tr><td>Hemoglobin [Mass/volume] in Blood</td><td>16.1</td><td>14 - 18</td><td></td><td>g/dL</td></tr></table></div>"
        },
        "status": "final",
        "subject": {
          "reference": "urn:uuid:516898c4-cee3-40e1-b612-877177da2442",
          "display": "Θεμιστοκλής Λιναρδάκη"
        },
        "effectiveDateTime": "2015-10-07T06:16:00Z",
        "specimen": {
          "reference": "urn:uuid:388eb8d6-df7a-479d-b609-10883ac462ec"
        }
      }
    },
    {
      "fullUrl": "urn:uuid:4ebe6340-d63b-4397-b482-da5920628a4c",
      "resource": {
        "resourceType": "Observation",
        "id": "4ebe6340-d63b-4397-b482-da5920628a4c",
        "meta": {
          "profile": [
            "http://hl7.eu/fhir/laboratory/StructureDefinition/Observation-resultslab-eu-lab"
          ]
        },
        "performer": [
          {
            "display": "The Central European Lab"
          }
        ],
        "category": [
          {
            "coding": [
              {
                "system": "http://terminology.hl7.org/CodeSystem/observation-category",
                "code": "laboratory"
              }
            ]
          }
        ],
        "code": {
          "coding": [
            {
              "code": "4544-3",
              "system": "http://loinc.org",
              "display": "Hematocrit [Volume Fraction] of Blood by Automated count"
            }
          ],
          "text": "Hematocrit [Volume Fraction] of Blood by Automated count"
        },
        "valueQuantity": {
          "system": "http://unitsofmeasure.org",
          "value": 39.8,
          "unit": "%",
          "code": "%"
        },
        "referenceRange": [
          {
            "low": {
              "value": 38,
              "code": "%",
              "system": "http://unitsofmeasure.org"
            }
          },
          {
            "high": {
              "value": 50,
              "code": "%",
              "system": "http://unitsofmeasure.org"
            }
          }
        ],
        "text": {
          "status": "generated",
          "div": "<div xmlns=\"http://www.w3.org/1999/xhtml\"><table class=\"hl7__eu__lab__report\"><tr><th>Test</th><th>07-Oct-2015</th><th>Reference&#xA0;Range</th><th>Unit</th></tr><tr><td>Hematocrit [Volume Fraction] of Blood by Automated count</td><td>39.8</td><td>38 - 50</td><td></td><td>%</td></tr></table></div>"
        },
        "status": "final",
        "subject": {
          "reference": "urn:uuid:516898c4-cee3-40e1-b612-877177da2442",
          "display": "Θεμιστοκλής Λιναρδάκη"
        },
        "effectiveDateTime": "2015-10-07T06:16:00Z",
        "specimen": {
          "reference": "urn:uuid:388eb8d6-df7a-479d-b609-10883ac462ec"
        }
      }
    },
    {
      "fullUrl": "urn:uuid:db044d3d-4579-41ae-a2c0-fcca4193c4d1",
      "resource": {
        "resourceType": "Observation",
        "id": "db044d3d-4579-41ae-a2c0-fcca4193c4d1",
        "meta": {
          "profile": [
            "http://hl7.eu/fhir/laboratory/StructureDefinition/Observation-resultslab-eu-lab"
          ]
        },
        "performer": [
          {
            "display": "The Central European Lab"
          }
        ],
        "category": [
          {
            "coding": [
              {
                "system": "http://terminology.hl7.org/CodeSystem/observation-category",
                "code": "laboratory"
              }
            ]
          }
        ],
        "code": {
          "coding": [
            {
              "code": "787-2",
              "system": "http://loinc.org",
              "display": "MCV [Entitic volume] by Automated count"
            }
          ],
          "text": "MCV [Entitic volume] by Automated count"
        },
        "valueQuantity": {
          "system": "http://unitsofmeasure.org",
          "value": 87.1,
          "unit": "fL",
          "code": "fL"
        },
        "referenceRange": [
          {
            "low": {
              "value": 82,
              "code": "fL",
              "system": "http://unitsofmeasure.org"
            }
          },
          {
            "high": {
              "value": 98,
              "code": "fL",
              "system": "http://unitsofmeasure.org"
            }
          }
        ],
        "text": {
          "status": "generated",
          "div": "<div xmlns=\"http://www.w3.org/1999/xhtml\"><table class=\"hl7__eu__lab__report\"><tr><th>Test</th><th>07-Oct-2015</th><th>Reference&#xA0;Range</th><th>Unit</th></tr><tr><td>MCV [Entitic volume] by Automated count</td><td>87.1</td><td>82 - 98</td><td></td><td>fL</td></tr></table></div>"
        },
        "status": "final",
        "subject": {
          "reference": "urn:uuid:516898c4-cee3-40e1-b612-877177da2442",
          "display": "Θεμιστοκλής Λιναρδάκη"
        },
        "effectiveDateTime": "2015-10-07T06:16:00Z",
        "specimen": {
          "reference": "urn:uuid:388eb8d6-df7a-479d-b609-10883ac462ec"
        }
      }
    },
    {
      "fullUrl": "urn:uuid:58e48936-58a7-421d-90fe-0441458fa2d5",
      "resource": {
        "resourceType": "Observation",
        "id": "58e48936-58a7-421d-90fe-0441458fa2d5",
        "meta": {
          "profile": [
            "http://hl7.eu/fhir/laboratory/StructureDefinition/Observation-resultslab-eu-lab"
          ]
        },
        "performer": [
          {
            "display": "The Central European Lab"
          }
        ],
        "category": [
          {
            "coding": [
              {
                "system": "http://terminology.hl7.org/CodeSystem/observation-category",
                "code": "laboratory"
              }
            ]
          }
        ],
        "code": {
          "coding": [
            {
              "code": "785-6",
              "system": "http://loinc.org",
              "display": "MCH [Entitic mass] by Automated count"
            }
          ],
          "text": "MCH [Entitic mass] by Automated count"
        },
        "valueQuantity": {
          "system": "http://unitsofmeasure.org",
          "value": 32.6,
          "unit": "pg",
          "code": "pg"
        },
        "referenceRange": [
          {
            "low": {
              "value": 27,
              "code": "pg",
              "system": "http://unitsofmeasure.org"
            }
          },
          {
            "high": {
              "value": 33,
              "code": "pg",
              "system": "http://unitsofmeasure.org"
            }
          }
        ],
        "text": {
          "status": "generated",
          "div": "<div xmlns=\"http://www.w3.org/1999/xhtml\"><table class=\"hl7__eu__lab__report\"><tr><th>Test</th><th>07-Oct-2015</th><th>Reference&#xA0;Range</th><th>Unit</th></tr><tr><td>MCH [Entitic mass] by Automated count</td><td>32.6</td><td>27 - 33</td><td></td><td>pg</td></tr></table></div>"
        },
        "status": "final",
        "subject": {
          "reference": "urn:uuid:516898c4-cee3-40e1-b612-877177da2442",
          "display": "Θεμιστοκλής Λιναρδάκη"
        },
        "effectiveDateTime": "2015-10-07T06:16:00Z",
        "specimen": {
          "reference": "urn:uuid:388eb8d6-df7a-479d-b609-10883ac462ec"
        }
      }
    },
    {
      "fullUrl": "urn:uuid:597c75f5-24b7-4f97-a27b-d549bab13851",
      "resource": {
        "resourceType": "Observation",
        "id": "597c75f5-24b7-4f97-a27b-d549bab13851",
        "meta": {
          "profile": [
            "http://hl7.eu/fhir/laboratory/StructureDefinition/Observation-resultslab-eu-lab"
          ]
        },
        "performer": [
          {
            "display": "The Central European Lab"
          }
        ],
        "category": [
          {
            "coding": [
              {
                "system": "http://terminology.hl7.org/CodeSystem/observation-category",
                "code": "laboratory"
              }
            ]
          }
        ],
        "code": {
          "coding": [
            {
              "code": "786-4",
              "system": "http://loinc.org",
              "display": "MCHC [Mass/volume] by Automated count"
            }
          ],
          "text": "MCHC [Mass/volume] by Automated count"
        },
        "valueQuantity": {
          "system": "http://unitsofmeasure.org",
          "value": 34.6,
          "unit": "g/dL",
          "code": "g/dL"
        },
        "referenceRange": [
          {
            "low": {
              "value": 31,
              "code": "g/dL",
              "system": "http://unitsofmeasure.org"
            }
          },
          {
            "high": {
              "value": 36,
              "code": "g/dL",
              "system": "http://unitsofmeasure.org"
            }
          }
        ],
        "text": {
          "status": "generated",
          "div": "<div xmlns=\"http://www.w3.org/1999/xhtml\"><table class=\"hl7__eu__lab__report\"><tr><th>Test</th><th>07-Oct-2015</th><th>Reference&#xA0;Range</th><th>Unit</th></tr><tr><td>MCHC [Mass/volume] by Automated count</td><td>34.6</td><td>31 - 36</td><td></td><td>g/dL</td></tr></table></div>"
        },
        "status": "final",
        "subject": {
          "reference": "urn:uuid:516898c4-cee3-40e1-b612-877177da2442",
          "display": "Θεμιστοκλής Λιναρδάκη"
        },
        "effectiveDateTime": "2015-10-07T06:16:00Z",
        "specimen": {
          "reference": "urn:uuid:388eb8d6-df7a-479d-b609-10883ac462ec"
        }
      }
    },
    {
      "fullUrl": "urn:uuid:8100e4df-aa1f-4b74-bb99-7b7d70033c08",
      "resource": {
        "resourceType": "Observation",
        "id": "8100e4df-aa1f-4b74-bb99-7b7d70033c08",
        "meta": {
          "profile": [
            "http://hl7.eu/fhir/laboratory/StructureDefinition/Observation-resultslab-eu-lab"
          ]
        },
        "performer": [
          {
            "display": "The Central European Lab"
          }
        ],
        "category": [
          {
            "coding": [
              {
                "system": "http://terminology.hl7.org/CodeSystem/observation-category",
                "code": "laboratory"
              }
            ]
          }
        ],
        "code": {
          "coding": [
            {
              "code": "21000-5",
              "system": "http://loinc.org",
              "display": "Erythrocyte distribution width [Entitic volume] by Automated count"
            }
          ],
          "text": "Erythrocyte distribution width [Entitic volume] by Automated count"
        },
        "valueQuantity": {
          "system": "http://unitsofmeasure.org",
          "value": 43.6,
          "unit": "fL",
          "code": "fL"
        },
        "referenceRange": [
          {
            "low": {
              "value": 39,
              "code": "fL",
              "system": "http://unitsofmeasure.org"
            }
          },
          {
            "high": {
              "value": 55,
              "code": "fL",
              "system": "http://unitsofmeasure.org"
            }
          }
        ],
        "text": {
          "status": "generated",
          "div": "<div xmlns=\"http://www.w3.org/1999/xhtml\"><table class=\"hl7__eu__lab__report\"><tr><th>Test</th><th>07-Oct-2015</th><th>Reference&#xA0;Range</th><th>Unit</th></tr><tr><td>Erythrocyte distribution width [Entitic volume] by Automated count</td><td>43.6</td><td>39 - 55</td><td></td><td>fL</td></tr></table></div>"
        },
        "status": "final",
        "subject": {
          "reference": "urn:uuid:516898c4-cee3-40e1-b612-877177da2442",
          "display": "Θεμιστοκλής Λιναρδάκη"
        },
        "effectiveDateTime": "2015-10-07T06:16:00Z",
        "specimen": {
          "reference": "urn:uuid:388eb8d6-df7a-479d-b609-10883ac462ec"
        }
      }
    },
    {
      "fullUrl": "urn:uuid:a7d704b8-8a4e-49c7-bd34-0add390e2ae3",
      "resource": {
        "resourceType": "Observation",
        "id": "a7d704b8-8a4e-49c7-bd34-0add390e2ae3",
        "meta": {
          "profile": [
            "http://hl7.eu/fhir/laboratory/StructureDefinition/Observation-resultslab-eu-lab"
          ]
        },
        "performer": [
          {
            "display": "The Central European Lab"
          }
        ],
        "category": [
          {
            "coding": [
              {
                "system": "http://terminology.hl7.org/CodeSystem/observation-category",
                "code": "laboratory"
              }
            ]
          }
        ],
        "code": {
          "coding": [
            {
              "code": "777-3",
              "system": "http://loinc.org",
              "display": "Platelets [#/volume] in Blood by Automated count"
            }
          ],
          "text": "Platelets [#/volume] in Blood by Automated count"
        },
        "valueQuantity": {
          "system": "http://unitsofmeasure.org",
          "value": 322.7,
          "unit": "10*3/uL",
          "code": "10*3/uL"
        },
        "referenceRange": [
          {
            "low": {
              "value": 150,
              "code": "10*3/uL",
              "system": "http://unitsofmeasure.org"
            }
          },
          {
            "high": {
              "value": 350,
              "code": "10*3/uL",
              "system": "http://unitsofmeasure.org"
            }
          }
        ],
        "text": {
          "status": "generated",
          "div": "<div xmlns=\"http://www.w3.org/1999/xhtml\"><table class=\"hl7__eu__lab__report\"><tr><th>Test</th><th>07-Oct-2015</th><th>Reference&#xA0;Range</th><th>Unit</th></tr><tr><td>Platelets [#/volume] in Blood by Automated count</td><td>322.7</td><td>150 - 350</td><td></td><td>10*3/uL</td></tr></table></div>"
        },
        "status": "final",
        "subject": {
          "reference": "urn:uuid:516898c4-cee3-40e1-b612-877177da2442",
          "display": "Θεμιστοκλής Λιναρδάκη"
        },
        "effectiveDateTime": "2015-10-07T06:16:00Z",
        "specimen": {
          "reference": "urn:uuid:388eb8d6-df7a-479d-b609-10883ac462ec"
        }
      }
    },
    {
      "fullUrl": "urn:uuid:383049a3-276d-4465-a78e-08cc20ae01cd",
      "resource": {
        "resourceType": "Observation",
        "id": "383049a3-276d-4465-a78e-08cc20ae01cd",
        "meta": {
          "profile": [
            "http://hl7.eu/fhir/laboratory/StructureDefinition/Observation-resultslab-eu-lab"
          ]
        },
        "performer": [
          {
            "display": "The Central European Lab"
          }
        ],
        "category": [
          {
            "coding": [
              {
                "system": "http://terminology.hl7.org/CodeSystem/observation-category",
                "code": "laboratory"
              }
            ]
          }
        ],
        "code": {
          "coding": [
            {
              "code": "32207-3",
              "system": "http://loinc.org",
              "display": "Platelet distribution width [Entitic volume] in Blood by Automated count"
            }
          ],
          "text": "Platelet distribution width [Entitic volume] in Blood by Automated count"
        },
        "valueQuantity": {
          "system": "http://unitsofmeasure.org",
          "value": 340.6,
          "unit": "fL",
          "code": "fL"
        },
        "referenceRange": [
          {
            "low": {
              "value": 144,
              "code": "fL",
              "system": "http://unitsofmeasure.org"
            }
          },
          {
            "high": {
              "value": 366,
              "code": "fL",
              "system": "http://unitsofmeasure.org"
            }
          }
        ],
        "text": {
          "status": "generated",
          "div": "<div xmlns=\"http://www.w3.org/1999/xhtml\"><table class=\"hl7__eu__lab__report\"><tr><th>Test</th><th>07-Oct-2015</th><th>Reference&#xA0;Range</th><th>Unit</th></tr><tr><td>Platelet distribution width [Entitic volume] in Blood by Automated count</td><td>340.6</td><td>144 - 366</td><td></td><td>fL</td></tr></table></div>"
        },
        "status": "final",
        "subject": {
          "reference": "urn:uuid:516898c4-cee3-40e1-b612-877177da2442",
          "display": "Θεμιστοκλής Λιναρδάκη"
        },
        "effectiveDateTime": "2015-10-07T06:16:00Z",
        "specimen": {
          "reference": "urn:uuid:388eb8d6-df7a-479d-b609-10883ac462ec"
        }
      }
    },
    {
      "fullUrl": "urn:uuid:1fad7d3b-1c76-425e-aa04-b0df671ed67b",
      "resource": {
        "resourceType": "Observation",
        "id": "1fad7d3b-1c76-425e-aa04-b0df671ed67b",
        "meta": {
          "profile": [
            "http://hl7.eu/fhir/laboratory/StructureDefinition/Observation-resultslab-eu-lab"
          ]
        },
        "performer": [
          {
            "display": "The Central European Lab"
          }
        ],
        "category": [
          {
            "coding": [
              {
                "system": "http://terminology.hl7.org/CodeSystem/observation-category",
                "code": "laboratory"
              }
            ]
          }
        ],
        "code": {
          "coding": [
            {
              "code": "32623-1",
              "system": "http://loinc.org",
              "display": "Platelet mean volume [Entitic volume] in Blood by Automated count"
            }
          ],
          "text": "Platelet mean volume [Entitic volume] in Blood by Automated count"
        },
        "valueQuantity": {
          "system": "http://unitsofmeasure.org",
          "value": 11.8,
          "unit": "fL",
          "code": "fL"
        },
        "referenceRange": [
          {
            "low": {
              "value": 9.8,
              "code": "fL",
              "system": "http://unitsofmeasure.org"
            }
          },
          {
            "high": {
              "value": 13.8,
              "code": "fL",
              "system": "http://unitsofmeasure.org"
            }
          }
        ],
        "text": {
          "status": "generated",
          "div": "<div xmlns=\"http://www.w3.org/1999/xhtml\"><table class=\"hl7__eu__lab__report\"><tr><th>Test</th><th>07-Oct-2015</th><th>Reference&#xA0;Range</th><th>Unit</th></tr><tr><td>Platelet mean volume [Entitic volume] in Blood by Automated count</td><td>11.8</td><td>9.8 - 13.8</td><td></td><td>fL</td></tr></table></div>"
        },
        "status": "final",
        "subject": {
          "reference": "urn:uuid:516898c4-cee3-40e1-b612-877177da2442",
          "display": "Θεμιστοκλής Λιναρδάκη"
        },
        "effectiveDateTime": "2015-10-07T06:16:00Z",
        "specimen": {
          "reference": "urn:uuid:388eb8d6-df7a-479d-b609-10883ac462ec"
        }
      }
    },
    {
      "fullUrl": "urn:uuid:54f3392a-f0b3-4ae0-8aa8-0bf48881d2fc",
      "resource": {
        "resourceType": "Device",
        "id": "54f3392a-f0b3-4ae0-8aa8-0bf48881d2fc",
        "deviceName": [
          {
            "name": "SYNDERAI Synthetic Generator",
            "type": "manufacturer-name"
          }
        ],
        "version": [
          {
            "value": "5.0"
          }
        ],
        "text": {
          "status": "generated",
          "div": "<div xmlns=\"http://www.w3.org/1999/xhtml\">SYNDERAI Synthetic Generator v5.0</div>"
        },
        "status": "active\"",
        "distinctIdentifier": "synderai-generator-50",
        "manufacturer": "SYNDERAI Project"
      }
    },
    {
      "fullUrl": "urn:uuid:2688d4a8-e1d7-49c6-9f34-495b79b617b5",
      "resource": {
        "resourceType": "Provenance",
        "id": "2688d4a8-e1d7-49c6-9f34-495b79b617b5",
        "target": [
          {
            "reference": "Patient/516898c4-cee3-40e1-b612-877177da2442"
          },
          {
            "reference": "Bundle/2f885df1-909c-42ac-9697-11a84fbcfd32"
          },
          {
            "reference": "Composition/e75e0f67-406e-4e6e-8120-a36cdbd2bae1"
          },
          {
            "reference": "PractitionerRole/3e3885fd-81c7-44a7-9fac-955396a8b78e"
          },
          {
            "reference": "Practitioner/145689ad-0406-4cc0-8c0f-a08d1b463771"
          },
          {
            "reference": "PractitionerRole/9cd23edd-135f-4569-bb46-24e7359889e9"
          },
          {
            "reference": "Organization/9145dbea-69bb-45d7-9a3d-e748258f5e30"
          }
        ],
        "activity": {
          "text": "Synthetic Example Data Generation"
        },
        "policy": [
          "https://synderai.net/synderai-synthetic-data-policy"
        ],
        "agent": [
          {
            "type": {
              "text": "author"
            },
            "who": {
              "reference": "Device/54f3392a-f0b3-4ae0-8aa8-0bf48881d2fc"
            }
          }
        ],
        "reason": [
          {
            "text": "Interoperability Testing and Training (non-clinical use)"
          }
        ],
        "text": {
          "status": "generated",
          "div": "<div xmlns=\"http://www.w3.org/1999/xhtml\">Provenance for SYNDERAI Synthetic Example Data Resource</div>"
        },
        "recorded": "2015-10-07T08:16:00Z"
      }
    },
    {
      "fullUrl": "urn:uuid:3e3885fd-81c7-44a7-9fac-955396a8b78e",
      "resource": {
        "resourceType": "PractitionerRole",
        "id": "3e3885fd-81c7-44a7-9fac-955396a8b78e",
        "meta": {
          "profile": [
            "http://hl7.eu/fhir/base/StructureDefinition/practitionerRole-eu"
          ]
        },
        "text": {
          "status": "generated",
          "div": "<div xmlns=\"http://www.w3.org/1999/xhtml\">Laboratory Role Id: 3e3885fd-81c7-44a7-9fac-955396a8b78e</div>"
        },
        "practitioner": {
          "reference": "urn:uuid:145689ad-0406-4cc0-8c0f-a08d1b463771"
        }
      }
    },
    {
      "fullUrl": "urn:uuid:145689ad-0406-4cc0-8c0f-a08d1b463771",
      "resource": {
        "resourceType": "Practitioner",
        "id": "145689ad-0406-4cc0-8c0f-a08d1b463771",
        "meta": {
          "profile": [
            "http://hl7.eu/fhir/base/StructureDefinition/practitioner-eu"
          ]
        },
        "identifier": [
          {
            "assigner": {
              "display": "HL7 Europe"
            },
            "system": "urn:oid:2.16.840.1.113883.2.51.999",
            "value": "0c37e9b6-7ff0-4158-87e9-cb0592dbc875"
          }
        ],
        "name": [
          {
            "prefix": [
              "dr"
            ],
            "given": [
              "Ex"
            ],
            "family": "Ample"
          }
        ],
        "address": [
          {
            "line": [
              "Laboratoire Central Européenne",
              "Boulevard du Jardin Botanique 32"
            ],
            "postalCode": "1000",
            "city": "Brussels",
            "country": "Belgium"
          }
        ],
        "text": {
          "status": "generated",
          "div": "<div xmlns=\"http://www.w3.org/1999/xhtml\">Laboratory: Laboratoire Central Européenne, 1000 Brussels, Belgium</div>"
        }
      }
    }
  ],
  "type": "document",
  "timestamp": "2015-10-07T08:16:00Z"
}
