<Bundle xmlns="http://hl7.org/fhir">
   <id value="60143a85-56dd-47e9-ac41-c8f855635992"/>
   <meta>
      <profile value="http://hl7.eu/fhir/laboratory/StructureDefinition/Bundle-eu-lab"/>
   </meta>
   <identifier>
      <system value="urn:oid:2.16.840.1.113883.2.51.999"/>
      <value value="ff774560-2ca1-40a0-8e3e-0d95bdc8d168"/>
      <assigner>
         <display value="HL7 Europe"/>
      </assigner>
   </identifier>
   <type value="document"/>
   <timestamp value="2020-12-27T14:31:07Z"/>
   <entry>
      <fullUrl value="urn:uuid:29f4b23c-2c92-42e3-8289-73903555a1c1"/>
      <resource>
         <Composition>
            <id value="29f4b23c-2c92-42e3-8289-73903555a1c1"/>
            <meta>
               <profile value="http://hl7.eu/fhir/laboratory/StructureDefinition/Composition-eu-lab"/>
            </meta>
            <identifier>
               <system value="urn:oid:2.16.840.1.113883.2.51.999"/>
               <value value="cf73a525-ff68-4e32-828b-08a349f1a09c"/>
               <assigner>
                  <display value="HL7 Europe"/>
               </assigner>
            </identifier>
            <status value="final"/>
            <type>
               <coding>
                  <system value="http://loinc.org"/>
                  <code value="11502-2"/>
                  <display value="Laboratory report"/>
               </coding>
               <text value="Laboratory Report"/>
            </type>
            <category>
               <coding>
                  <system value="http://loinc.org"/>
                  <code value="26436-6"/>
                  <display value="Laboratory studies (set)"/>
               </coding>
            </category>
            <subject>
               <reference value="urn:uuid:b97de48c-9768-43d0-90e1-3e35d5e01727"/>
               <display value="Russell Khan"/>
            </subject>
            <date value="2020-12-27T14:31:07Z"/>
            <author>
               <reference value="urn:uuid:9ae90a75-7738-4d0e-9675-61c656a603c8"/>
            </author>
            <title value="Laboratory Report"/>
            <confidentiality value="N"/>
            <section>
               <title value="Laboratory Report"/>
               <code>
                  <coding>
                     <system value="http://loinc.org"/>
                     <code value="26436-6"/>
                     <display value="Laboratory studies (set)"/>
                  </coding>
                  <text value="Laboratory studies"/>
               </code>
               <section>
                  <title value="Hematology"/>
                  <code>
                     <coding>
                        <system value="http://loinc.org"/>
                        <code value="$18723-7"/>
                        <display value="Hematology studies (set)"/>
                     </coding>
                     <text value="Hematology"/>
                  </code>
                  <text>
                     <status value="generated"/>
                     <div xmlns="http://www.w3.org/1999/xhtml">
                        <h3>Hematology</h3>
                        <table class="hl7__eu__lab__report">
                           <thead>
                              <tr>
                                 <th>Test</th>
                                 <th>27-DEC-2020</th>
                                 <th>Reference Range</th>
                                 <th>Unit</th>
                              </tr>
                           </thead>
                           <tbody>
                              <tr>
                                 <td>Leukocytes [#/volume] in Blood by Automated count</td>
                                 <td>5.8</td>
                                 <td>3.5 - 10.5</td>
                                 <td>10*3/uL</td>
                              </tr>
                              <tr>
                                 <td>Erythrocytes [#/volume] in Blood by Automated count</td>
                                 <td>
                                    <strong>3.9 L</strong>
                                 </td>
                                 <td>4.5 - 6.2</td>
                                 <td>10*6/uL</td>
                              </tr>
                              <tr>
                                 <td>Hemoglobin [Mass/volume] in Blood</td>
                                 <td>14.8</td>
                                 <td>13.5 - 17.5</td>
                                 <td>g/dL</td>
                              </tr>
                              <tr>
                                 <td>Hematocrit [Volume Fraction] of Blood by Automated count</td>
                                 <td>42.9</td>
                                 <td>38 - 50</td>
                                 <td>%</td>
                              </tr>
                              <tr>
                                 <td>MCV [Entitic volume] by Automated count</td>
                                 <td>92.6</td>
                                 <td>82 - 98</td>
                                 <td>fL</td>
                              </tr>
                              <tr>
                                 <td>MCH [Entitic mass] by Automated count</td>
                                 <td>28.6</td>
                                 <td>27 - 33</td>
                                 <td>pg</td>
                              </tr>
                              <tr>
                                 <td>MCHC [Mass/volume] by Automated count</td>
                                 <td>34.3</td>
                                 <td>31 - 35</td>
                                 <td>g/dL</td>
                              </tr>
                              <tr>
                                 <td>Erythrocyte distribution width [Entitic volume] by Automated count</td>
                                 <td>43.2</td>
                                 <td>39 - 55</td>
                                 <td>fL</td>
                              </tr>
                              <tr>
                                 <td>Platelets [#/volume] in Blood by Automated count</td>
                                 <td>214.2</td>
                                 <td>150 - 379</td>
                                 <td>10*3/uL</td>
                              </tr>
                              <tr>
                                 <td>Platelet distribution width [Entitic volume] in Blood by Automated count</td>
                                 <td>
                                    <strong>421.7 H</strong>
                                 </td>
                                 <td>286 - 366</td>
                                 <td>fL</td>
                              </tr>
                              <tr>
                                 <td>Platelet mean volume [Entitic volume] in Blood by Automated count</td>
                                 <td>11.7</td>
                                 <td>7.2 - 13.8</td>
                                 <td>fL</td>
                              </tr>
                           </tbody>
                        </table>
                     </div>
                  </text>
                  <entry>
                     <reference value="urn:uuid:77be7258-307f-4409-b642-ffecc2363929"/>
                  </entry>
                  <entry>
                     <reference value="urn:uuid:91a3782e-b114-4193-8104-c41a149a8595"/>
                  </entry>
                  <entry>
                     <reference value="urn:uuid:50ddd39f-6f50-44f5-8152-2916fc144935"/>
                  </entry>
                  <entry>
                     <reference value="urn:uuid:fb46f8e1-cab4-4c0d-8fe9-1e3b58503f03"/>
                  </entry>
                  <entry>
                     <reference value="urn:uuid:5249b36f-b7a8-4ef7-87f5-901cd1f090ec"/>
                  </entry>
                  <entry>
                     <reference value="urn:uuid:c26eb9f3-514f-42de-9554-963c1d5d2e4a"/>
                  </entry>
                  <entry>
                     <reference value="urn:uuid:e706160f-05c8-432a-bbce-68314a2a003b"/>
                  </entry>
                  <entry>
                     <reference value="urn:uuid:a02cd578-32a3-4032-ba1b-9f9c9645c7b3"/>
                  </entry>
                  <entry>
                     <reference value="urn:uuid:5379129a-71e5-4f4e-8ef9-ea6b7bffad4f"/>
                  </entry>
                  <entry>
                     <reference value="urn:uuid:8d891dc3-93a2-48bb-8245-7fd7fe8f5591"/>
                  </entry>
                  <entry>
                     <reference value="urn:uuid:d8a2c465-11ea-4f62-86f6-32e0a4de6bb7"/>
                  </entry>
               </section>
            </section>
            <section>
               <title value="Annotation comment"/>
               <code>
                  <coding>
                     <system value="http://loinc.org"/>
                     <code value="48767-8"/>
                     <display value="Annotation comment"/>
                  </coding>
               </code>
               <text>
                  <status value="generated"/>
                  <div xmlns="http://www.w3.org/1999/xhtml">
                     <h3>Annotation</h3>
                     <table class="hl7__eu__lab__report">
                        <tr>
                           <th>Conclusion and Recommendations based on this report and previous findings known to us</th>
                        </tr>
                        <tr>
                           <td>The results show a mild erythrocytopenia (low red blood cell count) with otherwise normal hemoglobin and hematocrit, suggesting early or mild anemia. Platelet count is normal, but platelet distribution width is elevated, which may indicate increased platelet size variability, possibly due to increased platelet turnover or activation. No leukocyte abnormalities are present. Correlation with clinical context and follow-up is recommended.</td>
                        </tr>
                     </table>
                  </div>
               </text>
            </section>
         </Composition>
      </resource>
   </entry>
   <entry>
      <fullUrl value="urn:uuid:8a6b5719-fa6a-4a8a-93af-b917e2cc7dc8"/>
      <resource>
         <DiagnosticReport>
            <id value="8a6b5719-fa6a-4a8a-93af-b917e2cc7dc8"/>
            <meta>
               <profile value="http://hl7.eu/fhir/laboratory/StructureDefinition/DiagnosticReport-eu-lab"/>
            </meta>
            <extension url="http://hl7.org/fhir/5.0/StructureDefinition/extension-DiagnosticReport.composition">
               <valueReference>
                  <reference value="urn:uuid:cf73a525-ff68-4e32-828b-08a349f1a09c"/>
               </valueReference>
            </extension>
            <identifier>
               <system value="urn:oid:2.16.840.1.113883.2.51.999"/>
               <value value="c43405ac-bbe0-40ce-bb68-453752fbdf38"/>
               <assigner>
                  <display value="HL7 Europe"/>
               </assigner>
            </identifier>
            <status value="registered"/>
            <category>
               <coding>
                  <system value="http://loinc.org"/>
                  <code value="26436-6"/>
                  <display value="Laboratory studies (set)"/>
               </coding>
            </category>
            <code>
               <coding>
                  <system value="http://loinc.org"/>
                  <code value="11502-2"/>
                  <display value="Laboratory report"/>
               </coding>
            </code>
            <subject>
               <reference value="urn:uuid:b97de48c-9768-43d0-90e1-3e35d5e01727"/>
               <display value="Russell Khan"/>
            </subject>
            <specimen>
               <reference value="urn:uuid:cc72c124-c7bf-4c26-823d-681aa68ead21"/>
            </specimen>
            <specimen>
               <reference value="urn:uuid:cc72c124-c7bf-4c26-823d-681aa68ead21"/>
            </specimen>
            <result>
               <reference value="urn:uuid:77be7258-307f-4409-b642-ffecc2363929"/>
            </result>
            <result>
               <reference value="urn:uuid:91a3782e-b114-4193-8104-c41a149a8595"/>
            </result>
            <result>
               <reference value="urn:uuid:50ddd39f-6f50-44f5-8152-2916fc144935"/>
            </result>
            <result>
               <reference value="urn:uuid:fb46f8e1-cab4-4c0d-8fe9-1e3b58503f03"/>
            </result>
            <result>
               <reference value="urn:uuid:5249b36f-b7a8-4ef7-87f5-901cd1f090ec"/>
            </result>
            <result>
               <reference value="urn:uuid:c26eb9f3-514f-42de-9554-963c1d5d2e4a"/>
            </result>
            <result>
               <reference value="urn:uuid:e706160f-05c8-432a-bbce-68314a2a003b"/>
            </result>
            <result>
               <reference value="urn:uuid:a02cd578-32a3-4032-ba1b-9f9c9645c7b3"/>
            </result>
            <result>
               <reference value="urn:uuid:5379129a-71e5-4f4e-8ef9-ea6b7bffad4f"/>
            </result>
            <result>
               <reference value="urn:uuid:8d891dc3-93a2-48bb-8245-7fd7fe8f5591"/>
            </result>
            <result>
               <reference value="urn:uuid:d8a2c465-11ea-4f62-86f6-32e0a4de6bb7"/>
            </result>
         </DiagnosticReport>
      </resource>
   </entry>
   <entry>
      <fullUrl value="urn:uuid:b97de48c-9768-43d0-90e1-3e35d5e01727"/>
      <resource>
         <Patient>
            <id value="b97de48c-9768-43d0-90e1-3e35d5e01727"/>
            <meta>
               <profile value="http://hl7.eu/fhir/base/StructureDefinition/patient-eu-core"/>
               <security>
                  <system value="http://terminology.hl7.org/CodeSystem/v3-ActReason"/>
                  <code value="HTEST"/>
               </security>
               <security>
                  <system value="http://terminology.hl7.org/CodeSystem/v3-ActReason"/>
                  <code value="TRAIN"/>
               </security>
               <tag>
                  <system value="https://synderai.net/fhir/CodeSystem/tags"/>
                  <code value="synthetic"/>
                  <display value="SYNDERAI Synthetic data"/>
               </tag>
            </meta>
            <text>
               <status value="generated"/>
               <div xmlns="http://www.w3.org/1999/xhtml">
                  <table class="hl7__ips">
                     <tr>
                        <td>Russell Khan</td>
                        <td>male</td>
                        <td>29-Aug-1980</td>
                     </tr>
                  </table>
               </div>
            </text>
            <extension url="http://hl7.org/fhir/StructureDefinition/patient-nationality">
               <valueCodeableConcept>
                  <coding>
                     <system value="http://hl7.org/fhir/ValueSet/country"/>
                     <code value="GB"/>
                  </coding>
               </valueCodeableConcept>
            </extension>
            <identifier>
               <type>
                  <coding>
                     <system value="http://terminology.hl7.org/CodeSystem/v2-0203"/>
                     <code value="PT"/>
                  </coding>
               </type>
               <system value="http://ec.europa.eu/identifier/eci"/>
               <value value="7982-255119-2"/>
            </identifier>
            <identifier>
               <type>
                  <coding>
                     <system value="http://terminology.hl7.org/CodeSystem/v2-0203"/>
                     <code value="MR"/>
                  </coding>
               </type>
               <system value="http://local.setting.eu/identifier"/>
               <value value="7070b0e2-4aa2-c981-d552-92289a13285c"/>
            </identifier>
            <name>
               <family value="Khan"/>
            </name>
            <name>
               <given value="Russell"/>
            </name>
            <name>
               <text value="Russell Khan"/>
            </name>
            <telecom>
               <system value="phone"/>
               <value value="0115 4960345"/>
            </telecom>
            <gender value="male"/>
            <birthDate value="1980-08-29"/>
            <address>
               <use value="home"/>
               <type value="physical"/>
               <line value="1 Holly well"/>
               <city value="Allantown"/>
               <postalCode value="B9"/>
               <country value="United Kingdom"/>
            </address>
         </Patient>
      </resource>
   </entry>
   <entry>
      <fullUrl value="urn:uuid:558a048e-631f-4346-bb09-b226ba356f52"/>
      <resource>
         <ServiceRequest>
            <id value="558a048e-631f-4346-bb09-b226ba356f52"/>
            <meta>
               <profile value="http://hl7.eu/fhir/laboratory/StructureDefinition/ServiceRequest-eu-lab"/>
            </meta>
            <identifier>
               <system value="http://example.org"/>
               <value value="89d9f361-4b0d-4200-bfd7-43941584b16a"/>
            </identifier>
            <status value="active"/>
            <intent value="order"/>
            <code>
               <coding>
                  <system value="http://snomed.info/sct"/>
                  <code value="108252007"/>
                  <display value="Laboratory procedure"/>
               </coding>
            </code>
            <subject>
               <reference value="urn:uuid:b97de48c-9768-43d0-90e1-3e35d5e01727"/>
               <display value="Russell Khan"/>
            </subject>
            <requester>
               <reference value="urn:uuid:c882f6bb-bacc-4bab-a84a-ed7ce81ebe07"/>
            </requester>
            <reasonCode>
               <coding>
                  <system value="http://snomed.info/sct"/>
                  <code value="59621000"/>
                  <display value="Essential hypertension"/>
               </coding>
            </reasonCode>
            <specimen>
               <reference value="urn:uuid:cc72c124-c7bf-4c26-823d-681aa68ead21"/>
            </specimen>
         </ServiceRequest>
      </resource>
   </entry>
   <entry>
      <fullUrl value="urn:uuid:c882f6bb-bacc-4bab-a84a-ed7ce81ebe07"/>
      <resource>
         <PractitionerRole>
            <id value="c882f6bb-bacc-4bab-a84a-ed7ce81ebe07"/>
            <meta>
               <profile value="http://hl7.eu/fhir/base/StructureDefinition/practitionerRole-eu"/>
            </meta>
            <text>
               <status value="generated"/>
               <div xmlns="http://www.w3.org/1999/xhtml">Provider Role Id: c882f6bb-bacc-4bab-a84a-ed7ce81ebe07</div>
            </text>
            <organization>
               <reference value="urn:uuid:4eb210fc-b5be-4d3b-870c-378ad20914b8"/>
            </organization>
         </PractitionerRole>
      </resource>
   </entry>
   <entry>
      <fullUrl value="urn:uuid:4eb210fc-b5be-4d3b-870c-378ad20914b8"/>
      <resource>
         <Organization>
            <id value="4eb210fc-b5be-4d3b-870c-378ad20914b8"/>
            <meta>
               <profile value="http://hl7.eu/fhir/base/StructureDefinition/organization-eu"/>
            </meta>
            <text>
               <status value="generated"/>
               <div xmlns="http://www.w3.org/1999/xhtml">Provider Organization: Birmingham Children's Hospital</div>
            </text>
            <identifier>
               <system value="urn:oid:2.16.840.1.113883.2.51.999"/>
               <value value="f56075f4-798f-4a56-98f2-0eed355ffeae"/>
               <assigner>
                  <display value="HL7 Europe"/>
               </assigner>
            </identifier>
            <name value="Birmingham Children&amp;#039;s Hospital"/>
            <address>
               <city value="Birmingham"/>
               <postalCode value="B4 6"/>
               <country value="United Kingdom"/>
            </address>
         </Organization>
      </resource>
   </entry>
   <entry>
      <fullUrl value="urn:uuid:cc72c124-c7bf-4c26-823d-681aa68ead21"/>
      <resource>
         <Specimen>
            <id value="cc72c124-c7bf-4c26-823d-681aa68ead21"/>
            <meta>
               <profile value="http://hl7.eu/fhir/laboratory/StructureDefinition/Specimen-eu-lab"/>
            </meta>
            <text>
               <status value="generated"/>
               <div xmlns="http://www.w3.org/1999/xhtml">
                  <table class="hl7__eu__lab__report">
                     <tr>
                        <th>Specimen</th>
                        <th>Collection Date</th>
                     </tr>
                     <tr>
                        <td>Whole blood specimen (specimen)</td>
                        <td>
                           <span class="nb">27-Dec-2020</span>
                        </td>
                     </tr>
                  </table>
               </div>
            </text>
            <type>
               <coding>
                  <system value="http://snomed.info/sct"/>
                  <code value="258580003"/>
                  <display value="Whole blood specimen (specimen)"/>
               </coding>
            </type>
            <collection>
               <collectedDateTime value="2020-12-27"/>
            </collection>
         </Specimen>
      </resource>
   </entry>
   <entry>
      <fullUrl value="urn:uuid:cc72c124-c7bf-4c26-823d-681aa68ead21"/>
      <resource>
         <Specimen>
            <id value="cc72c124-c7bf-4c26-823d-681aa68ead21"/>
            <meta>
               <profile value="http://hl7.eu/fhir/laboratory/StructureDefinition/Specimen-eu-lab"/>
            </meta>
            <text>
               <status value="generated"/>
               <div xmlns="http://www.w3.org/1999/xhtml">
                  <table class="hl7__eu__lab__report">
                     <tr>
                        <th>Specimen</th>
                        <th>Collection Date</th>
                     </tr>
                     <tr>
                        <td>Whole blood specimen (specimen)</td>
                        <td>
                           <span class="nb">27-Dec-2020</span>
                        </td>
                     </tr>
                  </table>
               </div>
            </text>
            <type>
               <coding>
                  <system value="http://snomed.info/sct"/>
                  <code value="258580003"/>
                  <display value="Whole blood specimen (specimen)"/>
               </coding>
            </type>
            <collection>
               <collectedDateTime value="2020-12-27"/>
            </collection>
         </Specimen>
      </resource>
   </entry>
   <entry>
      <fullUrl value="urn:uuid:77be7258-307f-4409-b642-ffecc2363929"/>
      <resource>
         <Observation>
            <id value="77be7258-307f-4409-b642-ffecc2363929"/>
            <meta>
               <profile value="http://hl7.eu/fhir/laboratory/StructureDefinition/Observation-resultslab-eu-lab"/>
            </meta>
            <text>
               <status value="generated"/>
               <div xmlns="http://www.w3.org/1999/xhtml">
                  <table class="hl7__eu__lab__report">
                     <tr>
                        <th>Test</th>
                        <th>27-Dec-2020</th>
                        <th>Reference Range</th>
                        <th>Unit</th>
                     </tr>
                     <tr>
                        <td>Leukocytes [#/volume] in Blood by Automated count</td>
                        <td>5.8</td>
                        <td>3.5 - 10.5</td>
                        <td/>
                        <td>10*3/uL</td>
                     </tr>
                  </table>
               </div>
            </text>
            <status value="final"/>
            <category>
               <coding>
                  <system value="http://terminology.hl7.org/CodeSystem/observation-category"/>
                  <code value="laboratory"/>
               </coding>
            </category>
            <code>
               <coding>
                  <system value="http://loinc.org"/>
                  <code value="6690-2"/>
                  <display value="Leukocytes [#/volume] in Blood by Automated count"/>
               </coding>
               <text value="Leukocytes [#/volume] in Blood by Automated count"/>
            </code>
            <subject>
               <reference value="urn:uuid:b97de48c-9768-43d0-90e1-3e35d5e01727"/>
               <display value="Russell Khan"/>
            </subject>
            <effectiveDateTime value="2020-12-27T13:31:07Z"/>
            <performer>
               <display value="The Central European Lab"/>
            </performer>
            <valueQuantity>
               <value value="5.8"/>
               <unit value="10*3/uL"/>
               <system value="http://unitsofmeasure.org"/>
               <code value="10*3/uL"/>
            </valueQuantity>
            <specimen>
               <reference value="urn:uuid:cc72c124-c7bf-4c26-823d-681aa68ead21"/>
            </specimen>
            <referenceRange>
               <low>
                  <value value="3.5"/>
                  <system value="http://unitsofmeasure.org"/>
                  <code value="10*3/uL"/>
               </low>
            </referenceRange>
            <referenceRange>
               <high>
                  <value value="10.5"/>
                  <system value="http://unitsofmeasure.org"/>
                  <code value="10*3/uL"/>
               </high>
            </referenceRange>
         </Observation>
      </resource>
   </entry>
   <entry>
      <fullUrl value="urn:uuid:91a3782e-b114-4193-8104-c41a149a8595"/>
      <resource>
         <Observation>
            <id value="91a3782e-b114-4193-8104-c41a149a8595"/>
            <meta>
               <profile value="http://hl7.eu/fhir/laboratory/StructureDefinition/Observation-resultslab-eu-lab"/>
            </meta>
            <text>
               <status value="generated"/>
               <div xmlns="http://www.w3.org/1999/xhtml">
                  <table class="hl7__eu__lab__report">
                     <tr>
                        <th>Test</th>
                        <th>27-Dec-2020</th>
                        <th>Reference Range</th>
                        <th>Unit</th>
                     </tr>
                     <tr>
                        <td>Erythrocytes [#/volume] in Blood by Automated count</td>
                        <td>3.9</td>
                        <td>4.5 - 6.2</td>
                        <td>L</td>
                        <td>10*6/uL</td>
                     </tr>
                  </table>
               </div>
            </text>
            <status value="final"/>
            <category>
               <coding>
                  <system value="http://terminology.hl7.org/CodeSystem/observation-category"/>
                  <code value="laboratory"/>
               </coding>
            </category>
            <code>
               <coding>
                  <system value="http://loinc.org"/>
                  <code value="789-8"/>
                  <display value="Erythrocytes [#/volume] in Blood by Automated count"/>
               </coding>
               <text value="Erythrocytes [#/volume] in Blood by Automated count"/>
            </code>
            <subject>
               <reference value="urn:uuid:b97de48c-9768-43d0-90e1-3e35d5e01727"/>
               <display value="Russell Khan"/>
            </subject>
            <effectiveDateTime value="2020-12-27T13:31:07Z"/>
            <performer>
               <display value="The Central European Lab"/>
            </performer>
            <valueQuantity>
               <value value="3.9"/>
               <unit value="10*6/uL"/>
               <system value="http://unitsofmeasure.org"/>
               <code value="10*6/uL"/>
            </valueQuantity>
            <interpretation>
               <coding>
                  <system value="http://terminology.hl7.org/CodeSystem/v3-ObservationInterpretation"/>
                  <code value="L"/>
                  <display value="Low"/>
               </coding>
            </interpretation>
            <specimen>
               <reference value="urn:uuid:cc72c124-c7bf-4c26-823d-681aa68ead21"/>
            </specimen>
            <referenceRange>
               <low>
                  <value value="4.5"/>
                  <system value="http://unitsofmeasure.org"/>
                  <code value="10*6/uL"/>
               </low>
            </referenceRange>
            <referenceRange>
               <high>
                  <value value="6.2"/>
                  <system value="http://unitsofmeasure.org"/>
                  <code value="10*6/uL"/>
               </high>
            </referenceRange>
         </Observation>
      </resource>
   </entry>
   <entry>
      <fullUrl value="urn:uuid:50ddd39f-6f50-44f5-8152-2916fc144935"/>
      <resource>
         <Observation>
            <id value="50ddd39f-6f50-44f5-8152-2916fc144935"/>
            <meta>
               <profile value="http://hl7.eu/fhir/laboratory/StructureDefinition/Observation-resultslab-eu-lab"/>
            </meta>
            <text>
               <status value="generated"/>
               <div xmlns="http://www.w3.org/1999/xhtml">
                  <table class="hl7__eu__lab__report">
                     <tr>
                        <th>Test</th>
                        <th>27-Dec-2020</th>
                        <th>Reference Range</th>
                        <th>Unit</th>
                     </tr>
                     <tr>
                        <td>Hemoglobin [Mass/volume] in Blood</td>
                        <td>14.8</td>
                        <td>13.5 - 17.5</td>
                        <td/>
                        <td>g/dL</td>
                     </tr>
                  </table>
               </div>
            </text>
            <status value="final"/>
            <category>
               <coding>
                  <system value="http://terminology.hl7.org/CodeSystem/observation-category"/>
                  <code value="laboratory"/>
               </coding>
            </category>
            <code>
               <coding>
                  <system value="http://loinc.org"/>
                  <code value="718-7"/>
                  <display value="Hemoglobin [Mass/volume] in Blood"/>
               </coding>
               <text value="Hemoglobin [Mass/volume] in Blood"/>
            </code>
            <subject>
               <reference value="urn:uuid:b97de48c-9768-43d0-90e1-3e35d5e01727"/>
               <display value="Russell Khan"/>
            </subject>
            <effectiveDateTime value="2020-12-27T13:31:07Z"/>
            <performer>
               <display value="The Central European Lab"/>
            </performer>
            <valueQuantity>
               <value value="14.8"/>
               <unit value="g/dL"/>
               <system value="http://unitsofmeasure.org"/>
               <code value="g/dL"/>
            </valueQuantity>
            <specimen>
               <reference value="urn:uuid:cc72c124-c7bf-4c26-823d-681aa68ead21"/>
            </specimen>
            <referenceRange>
               <low>
                  <value value="13.5"/>
                  <system value="http://unitsofmeasure.org"/>
                  <code value="g/dL"/>
               </low>
            </referenceRange>
            <referenceRange>
               <high>
                  <value value="17.5"/>
                  <system value="http://unitsofmeasure.org"/>
                  <code value="g/dL"/>
               </high>
            </referenceRange>
         </Observation>
      </resource>
   </entry>
   <entry>
      <fullUrl value="urn:uuid:fb46f8e1-cab4-4c0d-8fe9-1e3b58503f03"/>
      <resource>
         <Observation>
            <id value="fb46f8e1-cab4-4c0d-8fe9-1e3b58503f03"/>
            <meta>
               <profile value="http://hl7.eu/fhir/laboratory/StructureDefinition/Observation-resultslab-eu-lab"/>
            </meta>
            <text>
               <status value="generated"/>
               <div xmlns="http://www.w3.org/1999/xhtml">
                  <table class="hl7__eu__lab__report">
                     <tr>
                        <th>Test</th>
                        <th>27-Dec-2020</th>
                        <th>Reference Range</th>
                        <th>Unit</th>
                     </tr>
                     <tr>
                        <td>Hematocrit [Volume Fraction] of Blood by Automated count</td>
                        <td>42.9</td>
                        <td>38 - 50</td>
                        <td/>
                        <td>%</td>
                     </tr>
                  </table>
               </div>
            </text>
            <status value="final"/>
            <category>
               <coding>
                  <system value="http://terminology.hl7.org/CodeSystem/observation-category"/>
                  <code value="laboratory"/>
               </coding>
            </category>
            <code>
               <coding>
                  <system value="http://loinc.org"/>
                  <code value="4544-3"/>
                  <display value="Hematocrit [Volume Fraction] of Blood by Automated count"/>
               </coding>
               <text value="Hematocrit [Volume Fraction] of Blood by Automated count"/>
            </code>
            <subject>
               <reference value="urn:uuid:b97de48c-9768-43d0-90e1-3e35d5e01727"/>
               <display value="Russell Khan"/>
            </subject>
            <effectiveDateTime value="2020-12-27T13:31:07Z"/>
            <performer>
               <display value="The Central European Lab"/>
            </performer>
            <valueQuantity>
               <value value="42.9"/>
               <unit value="%"/>
               <system value="http://unitsofmeasure.org"/>
               <code value="%"/>
            </valueQuantity>
            <specimen>
               <reference value="urn:uuid:cc72c124-c7bf-4c26-823d-681aa68ead21"/>
            </specimen>
            <referenceRange>
               <low>
                  <value value="38"/>
                  <system value="http://unitsofmeasure.org"/>
                  <code value="%"/>
               </low>
            </referenceRange>
            <referenceRange>
               <high>
                  <value value="50"/>
                  <system value="http://unitsofmeasure.org"/>
                  <code value="%"/>
               </high>
            </referenceRange>
         </Observation>
      </resource>
   </entry>
   <entry>
      <fullUrl value="urn:uuid:5249b36f-b7a8-4ef7-87f5-901cd1f090ec"/>
      <resource>
         <Observation>
            <id value="5249b36f-b7a8-4ef7-87f5-901cd1f090ec"/>
            <meta>
               <profile value="http://hl7.eu/fhir/laboratory/StructureDefinition/Observation-resultslab-eu-lab"/>
            </meta>
            <text>
               <status value="generated"/>
               <div xmlns="http://www.w3.org/1999/xhtml">
                  <table class="hl7__eu__lab__report">
                     <tr>
                        <th>Test</th>
                        <th>27-Dec-2020</th>
                        <th>Reference Range</th>
                        <th>Unit</th>
                     </tr>
                     <tr>
                        <td>MCV [Entitic volume] by Automated count</td>
                        <td>92.6</td>
                        <td>82 - 98</td>
                        <td/>
                        <td>fL</td>
                     </tr>
                  </table>
               </div>
            </text>
            <status value="final"/>
            <category>
               <coding>
                  <system value="http://terminology.hl7.org/CodeSystem/observation-category"/>
                  <code value="laboratory"/>
               </coding>
            </category>
            <code>
               <coding>
                  <system value="http://loinc.org"/>
                  <code value="787-2"/>
                  <display value="MCV [Entitic volume] by Automated count"/>
               </coding>
               <text value="MCV [Entitic volume] by Automated count"/>
            </code>
            <subject>
               <reference value="urn:uuid:b97de48c-9768-43d0-90e1-3e35d5e01727"/>
               <display value="Russell Khan"/>
            </subject>
            <effectiveDateTime value="2020-12-27T13:31:07Z"/>
            <performer>
               <display value="The Central European Lab"/>
            </performer>
            <valueQuantity>
               <value value="92.6"/>
               <unit value="fL"/>
               <system value="http://unitsofmeasure.org"/>
               <code value="fL"/>
            </valueQuantity>
            <specimen>
               <reference value="urn:uuid:cc72c124-c7bf-4c26-823d-681aa68ead21"/>
            </specimen>
            <referenceRange>
               <low>
                  <value value="82"/>
                  <system value="http://unitsofmeasure.org"/>
                  <code value="fL"/>
               </low>
            </referenceRange>
            <referenceRange>
               <high>
                  <value value="98"/>
                  <system value="http://unitsofmeasure.org"/>
                  <code value="fL"/>
               </high>
            </referenceRange>
         </Observation>
      </resource>
   </entry>
   <entry>
      <fullUrl value="urn:uuid:c26eb9f3-514f-42de-9554-963c1d5d2e4a"/>
      <resource>
         <Observation>
            <id value="c26eb9f3-514f-42de-9554-963c1d5d2e4a"/>
            <meta>
               <profile value="http://hl7.eu/fhir/laboratory/StructureDefinition/Observation-resultslab-eu-lab"/>
            </meta>
            <text>
               <status value="generated"/>
               <div xmlns="http://www.w3.org/1999/xhtml">
                  <table class="hl7__eu__lab__report">
                     <tr>
                        <th>Test</th>
                        <th>27-Dec-2020</th>
                        <th>Reference Range</th>
                        <th>Unit</th>
                     </tr>
                     <tr>
                        <td>MCH [Entitic mass] by Automated count</td>
                        <td>28.6</td>
                        <td>27 - 33</td>
                        <td/>
                        <td>pg</td>
                     </tr>
                  </table>
               </div>
            </text>
            <status value="final"/>
            <category>
               <coding>
                  <system value="http://terminology.hl7.org/CodeSystem/observation-category"/>
                  <code value="laboratory"/>
               </coding>
            </category>
            <code>
               <coding>
                  <system value="http://loinc.org"/>
                  <code value="785-6"/>
                  <display value="MCH [Entitic mass] by Automated count"/>
               </coding>
               <text value="MCH [Entitic mass] by Automated count"/>
            </code>
            <subject>
               <reference value="urn:uuid:b97de48c-9768-43d0-90e1-3e35d5e01727"/>
               <display value="Russell Khan"/>
            </subject>
            <effectiveDateTime value="2020-12-27T13:31:07Z"/>
            <performer>
               <display value="The Central European Lab"/>
            </performer>
            <valueQuantity>
               <value value="28.6"/>
               <unit value="pg"/>
               <system value="http://unitsofmeasure.org"/>
               <code value="pg"/>
            </valueQuantity>
            <specimen>
               <reference value="urn:uuid:cc72c124-c7bf-4c26-823d-681aa68ead21"/>
            </specimen>
            <referenceRange>
               <low>
                  <value value="27"/>
                  <system value="http://unitsofmeasure.org"/>
                  <code value="pg"/>
               </low>
            </referenceRange>
            <referenceRange>
               <high>
                  <value value="33"/>
                  <system value="http://unitsofmeasure.org"/>
                  <code value="pg"/>
               </high>
            </referenceRange>
         </Observation>
      </resource>
   </entry>
   <entry>
      <fullUrl value="urn:uuid:e706160f-05c8-432a-bbce-68314a2a003b"/>
      <resource>
         <Observation>
            <id value="e706160f-05c8-432a-bbce-68314a2a003b"/>
            <meta>
               <profile value="http://hl7.eu/fhir/laboratory/StructureDefinition/Observation-resultslab-eu-lab"/>
            </meta>
            <text>
               <status value="generated"/>
               <div xmlns="http://www.w3.org/1999/xhtml">
                  <table class="hl7__eu__lab__report">
                     <tr>
                        <th>Test</th>
                        <th>27-Dec-2020</th>
                        <th>Reference Range</th>
                        <th>Unit</th>
                     </tr>
                     <tr>
                        <td>MCHC [Mass/volume] by Automated count</td>
                        <td>34.3</td>
                        <td>31 - 35</td>
                        <td/>
                        <td>g/dL</td>
                     </tr>
                  </table>
               </div>
            </text>
            <status value="final"/>
            <category>
               <coding>
                  <system value="http://terminology.hl7.org/CodeSystem/observation-category"/>
                  <code value="laboratory"/>
               </coding>
            </category>
            <code>
               <coding>
                  <system value="http://loinc.org"/>
                  <code value="786-4"/>
                  <display value="MCHC [Mass/volume] by Automated count"/>
               </coding>
               <text value="MCHC [Mass/volume] by Automated count"/>
            </code>
            <subject>
               <reference value="urn:uuid:b97de48c-9768-43d0-90e1-3e35d5e01727"/>
               <display value="Russell Khan"/>
            </subject>
            <effectiveDateTime value="2020-12-27T13:31:07Z"/>
            <performer>
               <display value="The Central European Lab"/>
            </performer>
            <valueQuantity>
               <value value="34.3"/>
               <unit value="g/dL"/>
               <system value="http://unitsofmeasure.org"/>
               <code value="g/dL"/>
            </valueQuantity>
            <specimen>
               <reference value="urn:uuid:cc72c124-c7bf-4c26-823d-681aa68ead21"/>
            </specimen>
            <referenceRange>
               <low>
                  <value value="31"/>
                  <system value="http://unitsofmeasure.org"/>
                  <code value="g/dL"/>
               </low>
            </referenceRange>
            <referenceRange>
               <high>
                  <value value="35"/>
                  <system value="http://unitsofmeasure.org"/>
                  <code value="g/dL"/>
               </high>
            </referenceRange>
         </Observation>
      </resource>
   </entry>
   <entry>
      <fullUrl value="urn:uuid:a02cd578-32a3-4032-ba1b-9f9c9645c7b3"/>
      <resource>
         <Observation>
            <id value="a02cd578-32a3-4032-ba1b-9f9c9645c7b3"/>
            <meta>
               <profile value="http://hl7.eu/fhir/laboratory/StructureDefinition/Observation-resultslab-eu-lab"/>
            </meta>
            <text>
               <status value="generated"/>
               <div xmlns="http://www.w3.org/1999/xhtml">
                  <table class="hl7__eu__lab__report">
                     <tr>
                        <th>Test</th>
                        <th>27-Dec-2020</th>
                        <th>Reference Range</th>
                        <th>Unit</th>
                     </tr>
                     <tr>
                        <td>Erythrocyte distribution width [Entitic volume] by Automated count</td>
                        <td>43.2</td>
                        <td>39 - 55</td>
                        <td/>
                        <td>fL</td>
                     </tr>
                  </table>
               </div>
            </text>
            <status value="final"/>
            <category>
               <coding>
                  <system value="http://terminology.hl7.org/CodeSystem/observation-category"/>
                  <code value="laboratory"/>
               </coding>
            </category>
            <code>
               <coding>
                  <system value="http://loinc.org"/>
                  <code value="21000-5"/>
                  <display value="Erythrocyte distribution width [Entitic volume] by Automated count"/>
               </coding>
               <text value="Erythrocyte distribution width [Entitic volume] by Automated count"/>
            </code>
            <subject>
               <reference value="urn:uuid:b97de48c-9768-43d0-90e1-3e35d5e01727"/>
               <display value="Russell Khan"/>
            </subject>
            <effectiveDateTime value="2020-12-27T13:31:07Z"/>
            <performer>
               <display value="The Central European Lab"/>
            </performer>
            <valueQuantity>
               <value value="43.2"/>
               <unit value="fL"/>
               <system value="http://unitsofmeasure.org"/>
               <code value="fL"/>
            </valueQuantity>
            <specimen>
               <reference value="urn:uuid:cc72c124-c7bf-4c26-823d-681aa68ead21"/>
            </specimen>
            <referenceRange>
               <low>
                  <value value="39"/>
                  <system value="http://unitsofmeasure.org"/>
                  <code value="fL"/>
               </low>
            </referenceRange>
            <referenceRange>
               <high>
                  <value value="55"/>
                  <system value="http://unitsofmeasure.org"/>
                  <code value="fL"/>
               </high>
            </referenceRange>
         </Observation>
      </resource>
   </entry>
   <entry>
      <fullUrl value="urn:uuid:5379129a-71e5-4f4e-8ef9-ea6b7bffad4f"/>
      <resource>
         <Observation>
            <id value="5379129a-71e5-4f4e-8ef9-ea6b7bffad4f"/>
            <meta>
               <profile value="http://hl7.eu/fhir/laboratory/StructureDefinition/Observation-resultslab-eu-lab"/>
            </meta>
            <text>
               <status value="generated"/>
               <div xmlns="http://www.w3.org/1999/xhtml">
                  <table class="hl7__eu__lab__report">
                     <tr>
                        <th>Test</th>
                        <th>27-Dec-2020</th>
                        <th>Reference Range</th>
                        <th>Unit</th>
                     </tr>
                     <tr>
                        <td>Platelets [#/volume] in Blood by Automated count</td>
                        <td>214.2</td>
                        <td>150 - 379</td>
                        <td/>
                        <td>10*3/uL</td>
                     </tr>
                  </table>
               </div>
            </text>
            <status value="final"/>
            <category>
               <coding>
                  <system value="http://terminology.hl7.org/CodeSystem/observation-category"/>
                  <code value="laboratory"/>
               </coding>
            </category>
            <code>
               <coding>
                  <system value="http://loinc.org"/>
                  <code value="777-3"/>
                  <display value="Platelets [#/volume] in Blood by Automated count"/>
               </coding>
               <text value="Platelets [#/volume] in Blood by Automated count"/>
            </code>
            <subject>
               <reference value="urn:uuid:b97de48c-9768-43d0-90e1-3e35d5e01727"/>
               <display value="Russell Khan"/>
            </subject>
            <effectiveDateTime value="2020-12-27T13:31:07Z"/>
            <performer>
               <display value="The Central European Lab"/>
            </performer>
            <valueQuantity>
               <value value="214.2"/>
               <unit value="10*3/uL"/>
               <system value="http://unitsofmeasure.org"/>
               <code value="10*3/uL"/>
            </valueQuantity>
            <specimen>
               <reference value="urn:uuid:cc72c124-c7bf-4c26-823d-681aa68ead21"/>
            </specimen>
            <referenceRange>
               <low>
                  <value value="150"/>
                  <system value="http://unitsofmeasure.org"/>
                  <code value="10*3/uL"/>
               </low>
            </referenceRange>
            <referenceRange>
               <high>
                  <value value="379"/>
                  <system value="http://unitsofmeasure.org"/>
                  <code value="10*3/uL"/>
               </high>
            </referenceRange>
         </Observation>
      </resource>
   </entry>
   <entry>
      <fullUrl value="urn:uuid:8d891dc3-93a2-48bb-8245-7fd7fe8f5591"/>
      <resource>
         <Observation>
            <id value="8d891dc3-93a2-48bb-8245-7fd7fe8f5591"/>
            <meta>
               <profile value="http://hl7.eu/fhir/laboratory/StructureDefinition/Observation-resultslab-eu-lab"/>
            </meta>
            <text>
               <status value="generated"/>
               <div xmlns="http://www.w3.org/1999/xhtml">
                  <table class="hl7__eu__lab__report">
                     <tr>
                        <th>Test</th>
                        <th>27-Dec-2020</th>
                        <th>Reference Range</th>
                        <th>Unit</th>
                     </tr>
                     <tr>
                        <td>Platelet distribution width [Entitic volume] in Blood by Automated count</td>
                        <td>421.7</td>
                        <td>286 - 366</td>
                        <td>H</td>
                        <td>fL</td>
                     </tr>
                  </table>
               </div>
            </text>
            <status value="final"/>
            <category>
               <coding>
                  <system value="http://terminology.hl7.org/CodeSystem/observation-category"/>
                  <code value="laboratory"/>
               </coding>
            </category>
            <code>
               <coding>
                  <system value="http://loinc.org"/>
                  <code value="32207-3"/>
                  <display value="Platelet distribution width [Entitic volume] in Blood by Automated count"/>
               </coding>
               <text value="Platelet distribution width [Entitic volume] in Blood by Automated count"/>
            </code>
            <subject>
               <reference value="urn:uuid:b97de48c-9768-43d0-90e1-3e35d5e01727"/>
               <display value="Russell Khan"/>
            </subject>
            <effectiveDateTime value="2020-12-27T13:31:07Z"/>
            <performer>
               <display value="The Central European Lab"/>
            </performer>
            <valueQuantity>
               <value value="421.7"/>
               <unit value="fL"/>
               <system value="http://unitsofmeasure.org"/>
               <code value="fL"/>
            </valueQuantity>
            <interpretation>
               <coding>
                  <system value="http://terminology.hl7.org/CodeSystem/v3-ObservationInterpretation"/>
                  <code value="H"/>
                  <display value="High"/>
               </coding>
            </interpretation>
            <specimen>
               <reference value="urn:uuid:cc72c124-c7bf-4c26-823d-681aa68ead21"/>
            </specimen>
            <referenceRange>
               <low>
                  <value value="286"/>
                  <system value="http://unitsofmeasure.org"/>
                  <code value="fL"/>
               </low>
            </referenceRange>
            <referenceRange>
               <high>
                  <value value="366"/>
                  <system value="http://unitsofmeasure.org"/>
                  <code value="fL"/>
               </high>
            </referenceRange>
         </Observation>
      </resource>
   </entry>
   <entry>
      <fullUrl value="urn:uuid:d8a2c465-11ea-4f62-86f6-32e0a4de6bb7"/>
      <resource>
         <Observation>
            <id value="d8a2c465-11ea-4f62-86f6-32e0a4de6bb7"/>
            <meta>
               <profile value="http://hl7.eu/fhir/laboratory/StructureDefinition/Observation-resultslab-eu-lab"/>
            </meta>
            <text>
               <status value="generated"/>
               <div xmlns="http://www.w3.org/1999/xhtml">
                  <table class="hl7__eu__lab__report">
                     <tr>
                        <th>Test</th>
                        <th>27-Dec-2020</th>
                        <th>Reference Range</th>
                        <th>Unit</th>
                     </tr>
                     <tr>
                        <td>Platelet mean volume [Entitic volume] in Blood by Automated count</td>
                        <td>11.7</td>
                        <td>7.2 - 13.8</td>
                        <td/>
                        <td>fL</td>
                     </tr>
                  </table>
               </div>
            </text>
            <status value="final"/>
            <category>
               <coding>
                  <system value="http://terminology.hl7.org/CodeSystem/observation-category"/>
                  <code value="laboratory"/>
               </coding>
            </category>
            <code>
               <coding>
                  <system value="http://loinc.org"/>
                  <code value="32623-1"/>
                  <display value="Platelet mean volume [Entitic volume] in Blood by Automated count"/>
               </coding>
               <text value="Platelet mean volume [Entitic volume] in Blood by Automated count"/>
            </code>
            <subject>
               <reference value="urn:uuid:b97de48c-9768-43d0-90e1-3e35d5e01727"/>
               <display value="Russell Khan"/>
            </subject>
            <effectiveDateTime value="2020-12-27T13:31:07Z"/>
            <performer>
               <display value="The Central European Lab"/>
            </performer>
            <valueQuantity>
               <value value="11.7"/>
               <unit value="fL"/>
               <system value="http://unitsofmeasure.org"/>
               <code value="fL"/>
            </valueQuantity>
            <specimen>
               <reference value="urn:uuid:cc72c124-c7bf-4c26-823d-681aa68ead21"/>
            </specimen>
            <referenceRange>
               <low>
                  <value value="7.2"/>
                  <system value="http://unitsofmeasure.org"/>
                  <code value="fL"/>
               </low>
            </referenceRange>
            <referenceRange>
               <high>
                  <value value="13.8"/>
                  <system value="http://unitsofmeasure.org"/>
                  <code value="fL"/>
               </high>
            </referenceRange>
         </Observation>
      </resource>
   </entry>
   <entry>
      <fullUrl value="urn:uuid:a13c42fd-a187-47c6-b4b3-793a7ac3dedf"/>
      <resource>
         <Device>
            <id value="a13c42fd-a187-47c6-b4b3-793a7ac3dedf"/>
            <text>
               <status value="generated"/>
               <div xmlns="http://www.w3.org/1999/xhtml">SYNDERAI Synthetic Generator v5.0</div>
            </text>
            <status value="active&#34;"/>
            <distinctIdentifier value="synderai-generator-50"/>
            <manufacturer value="SYNDERAI Project"/>
            <deviceName>
               <name value="SYNDERAI Synthetic Generator"/>
               <type value="manufacturer-name"/>
            </deviceName>
            <version>
               <value value="5.0"/>
            </version>
         </Device>
      </resource>
   </entry>
   <entry>
      <fullUrl value="urn:uuid:505b8eb7-5e75-4f83-9cbc-5a0bdfe7db4e"/>
      <resource>
         <Provenance>
            <id value="505b8eb7-5e75-4f83-9cbc-5a0bdfe7db4e"/>
            <text>
               <status value="generated"/>
               <div xmlns="http://www.w3.org/1999/xhtml">Provenance for SYNDERAI Synthetic Example Data Resource</div>
            </text>
            <target>
               <reference value="Patient/b97de48c-9768-43d0-90e1-3e35d5e01727"/>
            </target>
            <target>
               <reference value="Bundle/60143a85-56dd-47e9-ac41-c8f855635992"/>
            </target>
            <target>
               <reference value="Composition/29f4b23c-2c92-42e3-8289-73903555a1c1"/>
            </target>
            <target>
               <reference value="PractitionerRole/9ae90a75-7738-4d0e-9675-61c656a603c8"/>
            </target>
            <target>
               <reference value="Practitioner/868dd765-3f40-408a-9c28-9f7978aeacbf"/>
            </target>
            <target>
               <reference value="PractitionerRole/c882f6bb-bacc-4bab-a84a-ed7ce81ebe07"/>
            </target>
            <target>
               <reference value="Organization/4eb210fc-b5be-4d3b-870c-378ad20914b8"/>
            </target>
            <recorded value="2020-12-27T14:31:07Z"/>
            <policy value="https://synderai.net/synderai-synthetic-data-policy"/>
            <reason>
               <text value="Interoperability Testing and Training (non-clinical use)"/>
            </reason>
            <activity>
               <text value="Synthetic Example Data Generation"/>
            </activity>
            <agent>
               <type>
                  <text value="author"/>
               </type>
               <who>
                  <reference value="Device/a13c42fd-a187-47c6-b4b3-793a7ac3dedf"/>
               </who>
            </agent>
         </Provenance>
      </resource>
   </entry>
   <entry>
      <fullUrl value="urn:uuid:9ae90a75-7738-4d0e-9675-61c656a603c8"/>
      <resource>
         <PractitionerRole>
            <id value="9ae90a75-7738-4d0e-9675-61c656a603c8"/>
            <meta>
               <profile value="http://hl7.eu/fhir/base/StructureDefinition/practitionerRole-eu"/>
            </meta>
            <text>
               <status value="generated"/>
               <div xmlns="http://www.w3.org/1999/xhtml">Laboratory Role Id: 9ae90a75-7738-4d0e-9675-61c656a603c8</div>
            </text>
            <practitioner>
               <reference value="urn:uuid:868dd765-3f40-408a-9c28-9f7978aeacbf"/>
            </practitioner>
         </PractitionerRole>
      </resource>
   </entry>
   <entry>
      <fullUrl value="urn:uuid:868dd765-3f40-408a-9c28-9f7978aeacbf"/>
      <resource>
         <Practitioner>
            <id value="868dd765-3f40-408a-9c28-9f7978aeacbf"/>
            <meta>
               <profile value="http://hl7.eu/fhir/base/StructureDefinition/practitioner-eu"/>
            </meta>
            <text>
               <status value="generated"/>
               <div xmlns="http://www.w3.org/1999/xhtml">Laboratory: Laboratoire Central Européenne, 1000 Brussels, Belgium</div>
            </text>
            <identifier>
               <system value="urn:oid:2.16.840.1.113883.2.51.999"/>
               <value value="ed05d2ad-2dc6-441e-8292-100476a3db99"/>
               <assigner>
                  <display value="HL7 Europe"/>
               </assigner>
            </identifier>
            <name>
               <family value="Ample"/>
               <given value="Ex"/>
               <prefix value="dr"/>
            </name>
            <address>
               <line value="Laboratoire Central Européenne"/>
               <line value="Boulevard du Jardin Botanique 32"/>
               <city value="Brussels"/>
               <postalCode value="1000"/>
               <country value="Belgium"/>
            </address>
         </Practitioner>
      </resource>
   </entry>
</Bundle>