{
  "resourceType": "Bundle",
  "id": "85aa00bb-9807-4cb0-a199-b1378237fbe2",
  "meta": {
    "profile": [
      "http://hl7.eu/fhir/laboratory/StructureDefinition/Bundle-eu-lab"
    ]
  },
  "identifier": {
    "assigner": {
      "display": "HL7 Europe"
    },
    "system": "urn:oid:2.16.840.1.113883.2.51.999",
    "value": "dbef1f58-1ecb-4d0d-a993-c283becf4b2b"
  },
  "entry": [
    {
      "fullUrl": "urn:uuid:6f05c5ec-14de-4d78-95ab-d4d45addd89f",
      "resource": {
        "resourceType": "Composition",
        "id": "6f05c5ec-14de-4d78-95ab-d4d45addd89f",
        "meta": {
          "profile": [
            "http://hl7.eu/fhir/laboratory/StructureDefinition/Composition-eu-lab"
          ]
        },
        "identifier": {
          "assigner": {
            "display": "HL7 Europe"
          },
          "system": "urn:oid:2.16.840.1.113883.2.51.999",
          "value": "335705ef-5f97-42e2-b140-47095cc0de2a"
        },
        "author": [
          {
            "reference": "urn:uuid:bd991a57-c3a5-427e-9e30-3d406db37c49"
          }
        ],
        "category": [
          {
            "coding": [
              {
                "code": "26436-6",
                "system": "http://loinc.org",
                "display": "Laboratory studies (set)"
              }
            ]
          }
        ],
        "type": {
          "coding": [
            {
              "code": "11502-2",
              "system": "http://loinc.org",
              "display": "Laboratory report"
            }
          ],
          "text": "Laboratory Report"
        },
        "section": [
          {
            "code": {
              "coding": [
                {
                  "code": "26436-6",
                  "system": "http://loinc.org",
                  "display": "Laboratory studies (set)"
                }
              ],
              "text": "Laboratory studies"
            },
            "section": [
              {
                "code": {
                  "coding": [
                    {
                      "code": "$18723-7",
                      "system": "http://loinc.org",
                      "display": "Hematology studies (set)"
                    }
                  ],
                  "text": "Hematology"
                },
                "entry": [
                  {
                    "reference": "urn:uuid:3dbe1e86-aa9f-4f0f-a680-ab165fe72cdb"
                  },
                  {
                    "reference": "urn:uuid:dfb812c7-6aa3-461c-b39c-eb490cf89dcb"
                  },
                  {
                    "reference": "urn:uuid:397c6ee7-c46d-4612-8060-58132edfa391"
                  },
                  {
                    "reference": "urn:uuid:b4355e0f-7a68-4e00-975d-7145b6299d6e"
                  },
                  {
                    "reference": "urn:uuid:ec777506-6a83-4349-a508-8d22108976d6"
                  },
                  {
                    "reference": "urn:uuid:01e40794-865a-4673-8e59-7d0de2befd83"
                  },
                  {
                    "reference": "urn:uuid:2d40572b-2eab-47be-9cd7-b39691c8ad84"
                  },
                  {
                    "reference": "urn:uuid:1776c9ce-bcae-414b-9a0c-0df5b273813f"
                  },
                  {
                    "reference": "urn:uuid:af532109-42f8-4991-8064-e385ebc3932f"
                  },
                  {
                    "reference": "urn:uuid:fa792d6a-0121-4931-9e8d-e15550167424"
                  },
                  {
                    "reference": "urn:uuid:7fbfaa2b-4fff-44e8-a33b-9e033de0ecd7"
                  }
                ],
                "text": {
                  "status": "generated",
                  "div": "<div xmlns=\"http://www.w3.org/1999/xhtml\"><h3>Hematology</h3><table class=\"hl7__eu__lab__report\"><thead><tr><th>Test</th><th>23-MAR-2016</th><th>Reference&#xA0;Range</th><th>Unit</th></tr></thead><tbody><tr><td>Leukocytes [#/volume] in Blood by Automated count</td><td>8.6</td><td>4 - 11</td><td>10*3/uL</td></tr><tr><td>Erythrocytes [#/volume] in Blood by Automated count</td><td>3.9</td><td>3.9 - 5.2</td><td>10*6/uL</td></tr><tr><td>Hemoglobin [Mass/volume] in Blood</td><td><strong>16.6 H</strong></td><td>12 - 15.5</td><td>g/dL</td></tr><tr><td>Hematocrit [Volume Fraction] of Blood by Automated count</td><td>44.1</td><td>38 - 54</td><td>%</td></tr><tr><td>MCV [Entitic volume] by Automated count</td><td>93.5</td><td>78 - 98</td><td>fL</td></tr><tr><td>MCH [Entitic mass] by Automated count</td><td>28.8</td><td>27 - 33</td><td>pg</td></tr><tr><td>MCHC [Mass/volume] by Automated count</td><td>34.7</td><td>31 - 35</td><td>g/dL</td></tr><tr><td>Erythrocyte distribution width [Entitic volume] by Automated count</td><td>44.0</td><td>36 - 56</td><td>fL</td></tr><tr><td>Platelets [#/volume] in Blood by Automated count</td><td>422.4</td><td>150 - 450</td><td>10*3/uL</td></tr><tr><td>Platelet distribution width [Entitic volume] in Blood by Automated count</td><td>297.6</td><td>15.5 - 450</td><td>fL</td></tr><tr><td>Platelet mean volume [Entitic volume] in Blood by Automated count</td><td>11.9</td><td>7.2 - 13.5</td><td>fL</td></tr></tbody></table></div>"
                },
                "title": "Hematology"
              },
              {
                "code": {
                  "coding": [
                    {
                      "code": "$18719-5",
                      "system": "http://loinc.org",
                      "display": "Chemistry studies (set)"
                    }
                  ],
                  "text": "Chemistry"
                },
                "entry": [
                  {
                    "reference": "urn:uuid:b303f0c5-8cc5-40b2-b491-6ff310172a3e"
                  },
                  {
                    "reference": "urn:uuid:d3d383df-d2e6-4112-bf1f-b6c172b1a4af"
                  },
                  {
                    "reference": "urn:uuid:ddca8c83-2856-4fc9-976f-1664c4427e7c"
                  },
                  {
                    "reference": "urn:uuid:606c1fe0-91e3-4c82-bcc7-8eb5d3c9c2b2"
                  },
                  {
                    "reference": "urn:uuid:c3f3a6ff-d0e9-4800-a4ac-e4bc4a78b95f"
                  },
                  {
                    "reference": "urn:uuid:5de6227d-51f5-4cf7-bc6d-a1e503e193bc"
                  },
                  {
                    "reference": "urn:uuid:817f071a-87b8-4351-84da-b2ed5471758f"
                  },
                  {
                    "reference": "urn:uuid:3091dd31-e912-425f-a541-51163f7c93f5"
                  },
                  {
                    "reference": "urn:uuid:272ef317-d426-44cd-ac4f-20d7e610eeae"
                  },
                  {
                    "reference": "urn:uuid:f5f2b36e-22b7-4b77-b708-c3d49315d8e2"
                  },
                  {
                    "reference": "urn:uuid:e1253941-9023-4f54-a0e3-fb2f869c17d6"
                  },
                  {
                    "reference": "urn:uuid:0956aa45-b615-4b99-8672-c7f11b95c8c3"
                  },
                  {
                    "reference": "urn:uuid:6ad310d3-98aa-4aa6-be6c-0e3401d35e08"
                  },
                  {
                    "reference": "urn:uuid:2a7b250b-e855-4727-931f-eb58588002b4"
                  },
                  {
                    "reference": "urn:uuid:5d6857b3-b72f-4677-8099-210356ffff41"
                  },
                  {
                    "reference": "urn:uuid:0b2dff3d-3ef7-4b82-b544-0ec6eb216166"
                  },
                  {
                    "reference": "urn:uuid:99b21e94-3dc9-496a-b1e1-e4d30323846e"
                  },
                  {
                    "reference": "urn:uuid:b450709c-8ecc-4581-a93c-8a9148d39523"
                  }
                ],
                "text": {
                  "status": "generated",
                  "div": "<div xmlns=\"http://www.w3.org/1999/xhtml\"><h3>Chemistry</h3><table class=\"hl7__eu__lab__report\"><thead><tr><th>Test</th><th>23-MAR-2016</th><th>Reference&#xA0;Range</th><th>Unit</th></tr></thead><tbody><tr><td>Glucose [Mass/volume] in Serum or Plasma</td><td>77.8</td><td>70 - 140</td><td>mg/dL</td></tr><tr><td>Urea nitrogen [Mass/volume] in Serum or Plasma</td><td>12.0</td><td>7 - 20</td><td>mg/dL</td></tr><tr><td>Creatinine [Mass/volume] in Serum or Plasma</td><td><strong>2.3 H</strong></td><td>0.6 - 1.3</td><td>mg/dL</td></tr><tr><td>Calcium [Mass/volume] in Serum or Plasma</td><td>9.1</td><td>8.6 - 10.4</td><td>mg/dL</td></tr><tr><td>Sodium [Moles/volume] in Serum or Plasma</td><td>137.7</td><td>135 - 145</td><td>mmol/L</td></tr><tr><td>Potassium [Moles/volume] in Serum or Plasma</td><td>4.2</td><td>3.5 - 5.1</td><td>mmol/L</td></tr><tr><td>Chloride [Moles/volume] in Serum or Plasma</td><td><strong>110.4 H</strong></td><td>98 - 108</td><td>mmol/L</td></tr><tr><td>Carbon dioxide, total [Moles/volume] in Serum or Plasma</td><td>27.5</td><td>22 - 32</td><td>mmol/L</td></tr><tr><td>Ketones [Presence] in Urine by Test strip</td><td>Urine ketone test = +++</td><td></td><td></td></tr><tr><td>Hemoglobin A1c/Hemoglobin.total in Blood</td><td><strong>3.0 L</strong></td><td>4.5 - 6.4</td><td>%</td></tr><tr><td>Glucose [Mass/volume] in Blood</td><td>77.8</td><td>70 - 140</td><td>mg/dL</td></tr><tr><td>Urea nitrogen [Mass/volume] in Blood</td><td>12.0</td><td>7 - 30</td><td>mg/dL</td></tr><tr><td>Creatinine [Mass/volume] in Blood</td><td><strong>6.0 H</strong></td><td>0.5 - 1.3</td><td>mg/dL</td></tr><tr><td>Calcium [Mass/volume] in Blood</td><td>9.1</td><td>8.6 - 10.2</td><td>mg/dL</td></tr><tr><td>Sodium [Moles/volume] in Blood</td><td>137.7</td><td>135 - 145</td><td>mmol/L</td></tr><tr><td>Potassium [Moles/volume] in Blood</td><td>4.2</td><td>3.5 - 5.1</td><td>mmol/L</td></tr><tr><td>Chloride [Moles/volume] in Blood</td><td>110.4</td><td>98 - 114</td><td>mmol/L</td></tr><tr><td>Carbon dioxide, total [Moles/volume] in Blood</td><td>27.5</td><td>22 - 32</td><td>mmol/L</td></tr></tbody></table></div>"
                },
                "title": "Chemistry"
              },
              {
                "code": {
                  "coding": [
                    {
                      "code": "$18729-4",
                      "system": "http://loinc.org",
                      "display": "Urinalysis studies (set)"
                    }
                  ],
                  "text": "Urinalysis"
                },
                "entry": [
                  {
                    "reference": "urn:uuid:5bca76a9-49a4-4a28-86a2-dd0b9979e1e5"
                  },
                  {
                    "reference": "urn:uuid:d09f7cd8-93f9-4ac0-973e-2fc9cf694ba9"
                  },
                  {
                    "reference": "urn:uuid:4207ec59-e413-4967-a87e-ead52f01620a"
                  },
                  {
                    "reference": "urn:uuid:0e5b9cc3-fc99-4060-8011-99cb10c13992"
                  },
                  {
                    "reference": "urn:uuid:1b4d7929-6535-4390-b876-5c2e0efa4b75"
                  },
                  {
                    "reference": "urn:uuid:4e10616b-52d2-4053-88c1-53a65c0df7a7"
                  },
                  {
                    "reference": "urn:uuid:6a3dc7e1-230c-411d-93e6-f9950079f8e2"
                  },
                  {
                    "reference": "urn:uuid:9c225b3e-a5e0-4980-86e6-551d8680f61b"
                  },
                  {
                    "reference": "urn:uuid:f1d81190-b969-4c2e-8d81-3f1e8f3032b3"
                  },
                  {
                    "reference": "urn:uuid:2ae4d8cf-4a66-42d2-a6f2-387f3e3f585e"
                  },
                  {
                    "reference": "urn:uuid:bf3bece4-67ee-4206-9a86-023bd389f44a"
                  },
                  {
                    "reference": "urn:uuid:4ebfd0d1-12ff-4e1d-a8a8-41288482aa4b"
                  }
                ],
                "text": {
                  "status": "generated",
                  "div": "<div xmlns=\"http://www.w3.org/1999/xhtml\"><h3>Urinalysis</h3><table class=\"hl7__eu__lab__report\"><thead><tr><th>Test</th><th>23-MAR-2016</th><th>Reference&#xA0;Range</th><th>Unit</th></tr></thead><tbody><tr><td>Glucose [Mass/volume] in Urine by Test strip</td><td><strong>1.6 H</strong></td><td>0.8 - 0</td><td>mg/dL</td></tr><tr><td>Glucose [Presence] in Urine by Test strip</td><td>++</td><td></td><td></td></tr><tr><td>Bilirubin.total [Mass/volume] in Urine by Test strip</td><td>0.9</td><td>0 - 1.5</td><td>mg/dL</td></tr><tr><td>Bilirubin.total [Presence] in Urine by Test strip</td><td>Finding of bilirubin in urine</td><td></td><td></td></tr><tr><td>Ketones [Mass/volume] in Urine by Test strip</td><td>1.0</td><td>0 - 8</td><td>mg/dL</td></tr><tr><td>Specific gravity of Urine by Test strip</td><td><strong>1.0 L</strong></td><td>1.01 - 1.03</td><td>{nominal}</td></tr><tr><td>pH of Urine by Test strip</td><td>5.1</td><td>4.6 - 7.5</td><td>pH</td></tr><tr><td>Protein [Mass/volume] in Urine by Test strip</td><td><strong>298.0 H</strong></td><td>0 - 14</td><td>mg/dL</td></tr><tr><td>Protein [Presence] in Urine by Test strip</td><td>Urine protein test = +++</td><td></td><td></td></tr><tr><td>Nitrite [Presence] in Urine by Test strip</td><td>Urine nitrite negative</td><td></td><td></td></tr><tr><td>Hemoglobin [Presence] in Urine by Test strip</td><td>Urine blood test = negative</td><td></td><td></td></tr><tr><td>Leukocyte esterase [Presence] in Urine by Test strip</td><td>Urine leukocyte test negative</td><td></td><td></td></tr></tbody></table></div>"
                },
                "title": "Urinalysis"
              },
              {
                "code": {
                  "coding": [
                    {
                      "code": "$LP7846-1",
                      "system": "http://loinc.org",
                      "display": "Specimen information"
                    }
                  ],
                  "text": "Specimen information"
                },
                "entry": [
                  {
                    "reference": "urn:uuid:efaed884-449e-498a-88cf-1e7e52e6370c"
                  },
                  {
                    "reference": "urn:uuid:0950e5f9-d2e6-41fc-98a5-342d6cfdf384"
                  },
                  {
                    "reference": "urn:uuid:8e17ae1e-e600-4dbb-8b92-409e1b2ed1d9"
                  },
                  {
                    "reference": "urn:uuid:5e12b8a4-5ee2-46c4-86a5-389c25245b95"
                  }
                ],
                "text": {
                  "status": "generated",
                  "div": "<div xmlns=\"http://www.w3.org/1999/xhtml\"><h3>Specimen information</h3><table class=\"hl7__eu__lab__report\"><thead><tr><th>Test</th><th>23-MAR-2016</th><th>Specimen</th><th></th></tr></thead><tbody><tr><td>Appearance of Urine</td><td>Cloudy urine</td><td>Urine</td><td></td></tr><tr><td>Odor of Urine</td><td>Urine smell ammoniacal</td><td>Urine</td><td></td></tr><tr><td>Clarity of Urine</td><td>Translucent</td><td>Urine</td><td></td></tr><tr><td>Color of Urine</td><td>Brown color</td><td>Urine</td><td></td></tr></tbody></table></div>"
                },
                "title": "Specimen information"
              }
            ],
            "title": "Laboratory Report"
          },
          {
            "text": {
              "status": "generated",
              "div": "<div xmlns=\"http://www.w3.org/1999/xhtml\"><h3>Annotation</h3><table class=\"hl7__eu__lab__report\"><tr><th>Conclusion and Recommendations based on this report and previous findings known to us</th></tr><tr><td>The patient shows markedly elevated creatinine in both serum and blood, indicating significant renal impairment. Urinalysis reveals proteinuria, glucosuria, ketonuria, low specific gravity, and abnormal urine appearance, suggesting nephrotic syndrome or advanced kidney disease. Hemoglobin is elevated, possibly due to hemoconcentration. HbA1c is low, ruling out chronic hyperglycemia. Immediate nephrology evaluation is recommended.</td></tr></table></div>"
            },
            "code": {
              "coding": [
                {
                  "system": "http://loinc.org",
                  "code": "48767-8",
                  "display": "Annotation comment"
                }
              ]
            },
            "title": "Annotation comment"
          }
        ],
        "status": "final",
        "subject": {
          "reference": "urn:uuid:9897707a-4e36-4013-8a23-e7db85c25bd7",
          "display": "Maria Nohlmans"
        },
        "date": "2016-03-23T12:02:39Z",
        "title": "Laboratory Report",
        "confidentiality": "N"
      }
    },
    {
      "fullUrl": "urn:uuid:15185439-700a-4093-87c9-27f20e635add",
      "resource": {
        "resourceType": "DiagnosticReport",
        "id": "15185439-700a-4093-87c9-27f20e635add",
        "meta": {
          "profile": [
            "http://hl7.eu/fhir/laboratory/StructureDefinition/DiagnosticReport-eu-lab"
          ]
        },
        "identifier": [
          {
            "assigner": {
              "display": "HL7 Europe"
            },
            "system": "urn:oid:2.16.840.1.113883.2.51.999",
            "value": "91bb89a8-9da7-4de7-af2c-5948cb9fac51"
          }
        ],
        "extension": [
          {
            "url": "http://hl7.org/fhir/5.0/StructureDefinition/extension-DiagnosticReport.composition",
            "valueReference": {
              "reference": "urn:uuid:335705ef-5f97-42e2-b140-47095cc0de2a"
            }
          }
        ],
        "category": [
          {
            "coding": [
              {
                "code": "26436-6",
                "system": "http://loinc.org",
                "display": "Laboratory studies (set)"
              }
            ]
          }
        ],
        "specimen": [
          {
            "reference": "urn:uuid:81b64189-deeb-450d-89e4-3909ecb93539"
          },
          {
            "reference": "urn:uuid:6e7db624-d29d-428f-b3dd-01d8d6ed753f"
          },
          {
            "reference": "urn:uuid:4c6c6198-93b0-4012-b99e-53e82558016b"
          },
          {
            "reference": "urn:uuid:4c6c6198-93b0-4012-b99e-53e82558016b"
          }
        ],
        "result": [
          {
            "reference": "urn:uuid:b303f0c5-8cc5-40b2-b491-6ff310172a3e"
          },
          {
            "reference": "urn:uuid:d3d383df-d2e6-4112-bf1f-b6c172b1a4af"
          },
          {
            "reference": "urn:uuid:ddca8c83-2856-4fc9-976f-1664c4427e7c"
          },
          {
            "reference": "urn:uuid:606c1fe0-91e3-4c82-bcc7-8eb5d3c9c2b2"
          },
          {
            "reference": "urn:uuid:c3f3a6ff-d0e9-4800-a4ac-e4bc4a78b95f"
          },
          {
            "reference": "urn:uuid:5de6227d-51f5-4cf7-bc6d-a1e503e193bc"
          },
          {
            "reference": "urn:uuid:817f071a-87b8-4351-84da-b2ed5471758f"
          },
          {
            "reference": "urn:uuid:3091dd31-e912-425f-a541-51163f7c93f5"
          },
          {
            "reference": "urn:uuid:efaed884-449e-498a-88cf-1e7e52e6370c"
          },
          {
            "reference": "urn:uuid:0950e5f9-d2e6-41fc-98a5-342d6cfdf384"
          },
          {
            "reference": "urn:uuid:8e17ae1e-e600-4dbb-8b92-409e1b2ed1d9"
          },
          {
            "reference": "urn:uuid:5e12b8a4-5ee2-46c4-86a5-389c25245b95"
          },
          {
            "reference": "urn:uuid:5bca76a9-49a4-4a28-86a2-dd0b9979e1e5"
          },
          {
            "reference": "urn:uuid:d09f7cd8-93f9-4ac0-973e-2fc9cf694ba9"
          },
          {
            "reference": "urn:uuid:4207ec59-e413-4967-a87e-ead52f01620a"
          },
          {
            "reference": "urn:uuid:0e5b9cc3-fc99-4060-8011-99cb10c13992"
          },
          {
            "reference": "urn:uuid:1b4d7929-6535-4390-b876-5c2e0efa4b75"
          },
          {
            "reference": "urn:uuid:272ef317-d426-44cd-ac4f-20d7e610eeae"
          },
          {
            "reference": "urn:uuid:4e10616b-52d2-4053-88c1-53a65c0df7a7"
          },
          {
            "reference": "urn:uuid:6a3dc7e1-230c-411d-93e6-f9950079f8e2"
          },
          {
            "reference": "urn:uuid:9c225b3e-a5e0-4980-86e6-551d8680f61b"
          },
          {
            "reference": "urn:uuid:f1d81190-b969-4c2e-8d81-3f1e8f3032b3"
          },
          {
            "reference": "urn:uuid:2ae4d8cf-4a66-42d2-a6f2-387f3e3f585e"
          },
          {
            "reference": "urn:uuid:bf3bece4-67ee-4206-9a86-023bd389f44a"
          },
          {
            "reference": "urn:uuid:4ebfd0d1-12ff-4e1d-a8a8-41288482aa4b"
          },
          {
            "reference": "urn:uuid:f5f2b36e-22b7-4b77-b708-c3d49315d8e2"
          },
          {
            "reference": "urn:uuid:e1253941-9023-4f54-a0e3-fb2f869c17d6"
          },
          {
            "reference": "urn:uuid:0956aa45-b615-4b99-8672-c7f11b95c8c3"
          },
          {
            "reference": "urn:uuid:6ad310d3-98aa-4aa6-be6c-0e3401d35e08"
          },
          {
            "reference": "urn:uuid:2a7b250b-e855-4727-931f-eb58588002b4"
          },
          {
            "reference": "urn:uuid:5d6857b3-b72f-4677-8099-210356ffff41"
          },
          {
            "reference": "urn:uuid:0b2dff3d-3ef7-4b82-b544-0ec6eb216166"
          },
          {
            "reference": "urn:uuid:99b21e94-3dc9-496a-b1e1-e4d30323846e"
          },
          {
            "reference": "urn:uuid:b450709c-8ecc-4581-a93c-8a9148d39523"
          },
          {
            "reference": "urn:uuid:3dbe1e86-aa9f-4f0f-a680-ab165fe72cdb"
          },
          {
            "reference": "urn:uuid:dfb812c7-6aa3-461c-b39c-eb490cf89dcb"
          },
          {
            "reference": "urn:uuid:397c6ee7-c46d-4612-8060-58132edfa391"
          },
          {
            "reference": "urn:uuid:b4355e0f-7a68-4e00-975d-7145b6299d6e"
          },
          {
            "reference": "urn:uuid:ec777506-6a83-4349-a508-8d22108976d6"
          },
          {
            "reference": "urn:uuid:01e40794-865a-4673-8e59-7d0de2befd83"
          },
          {
            "reference": "urn:uuid:2d40572b-2eab-47be-9cd7-b39691c8ad84"
          },
          {
            "reference": "urn:uuid:1776c9ce-bcae-414b-9a0c-0df5b273813f"
          },
          {
            "reference": "urn:uuid:af532109-42f8-4991-8064-e385ebc3932f"
          },
          {
            "reference": "urn:uuid:fa792d6a-0121-4931-9e8d-e15550167424"
          },
          {
            "reference": "urn:uuid:7fbfaa2b-4fff-44e8-a33b-9e033de0ecd7"
          }
        ],
        "status": "registered",
        "code": {
          "coding": [
            {
              "code": "11502-2",
              "system": "http://loinc.org",
              "display": "Laboratory report"
            }
          ]
        },
        "subject": {
          "reference": "urn:uuid:9897707a-4e36-4013-8a23-e7db85c25bd7",
          "display": "Maria Nohlmans"
        }
      }
    },
    {
      "fullUrl": "urn:uuid:9897707a-4e36-4013-8a23-e7db85c25bd7",
      "resource": {
        "resourceType": "Patient",
        "id": "9897707a-4e36-4013-8a23-e7db85c25bd7",
        "meta": {
          "security": [
            {
              "system": "http://terminology.hl7.org/CodeSystem/v3-ActReason",
              "code": "HTEST"
            },
            {
              "system": "http://terminology.hl7.org/CodeSystem/v3-ActReason",
              "code": "TRAIN"
            }
          ],
          "tag": [
            {
              "system": "https://synderai.net/fhir/CodeSystem/tags",
              "code": "synthetic",
              "display": "SYNDERAI Synthetic data"
            }
          ],
          "profile": [
            "http://hl7.eu/fhir/base/StructureDefinition/patient-eu-core"
          ]
        },
        "identifier": [
          {
            "type": {
              "coding": [
                {
                  "code": "PT",
                  "system": "http://terminology.hl7.org/CodeSystem/v2-0203"
                }
              ]
            },
            "system": "http://ec.europa.eu/identifier/eci",
            "value": "6886-506417-1"
          },
          {
            "type": {
              "coding": [
                {
                  "code": "MR",
                  "system": "http://terminology.hl7.org/CodeSystem/v2-0203"
                }
              ]
            },
            "system": "http://local.setting.eu/identifier",
            "value": "2cb21ed6-b617-b1f3-2290-589a710de5ee"
          }
        ],
        "name": [
          {
            "family": "Nohlmans"
          },
          {
            "given": [
              "Maria"
            ]
          },
          {
            "text": "Maria Nohlmans"
          }
        ],
        "address": [
          {
            "line": [
              "Alfons-Wulff-Weg 1"
            ],
            "use": "home",
            "type": "physical",
            "postalCode": "25813",
            "city": "Husum",
            "country": "Germany"
          }
        ],
        "telecom": [
          {
            "system": "phone",
            "value": "+49(0)1911 105501"
          }
        ],
        "extension": [
          {
            "url": "http://hl7.org/fhir/StructureDefinition/patient-nationality",
            "valueCodeableConcept": {
              "coding": [
                {
                  "code": "DE",
                  "system": "http://hl7.org/fhir/ValueSet/country"
                }
              ]
            }
          }
        ],
        "text": {
          "status": "generated",
          "div": "<div xmlns=\"http://www.w3.org/1999/xhtml\"><table class=\"hl7__ips\"><tr><td>Maria Nohlmans</td><td>female</td><td>11-Jun-1947</td></tr></table></div>"
        },
        "gender": "female",
        "birthDate": "1947-06-11"
      }
    },
    {
      "fullUrl": "urn:uuid:b5138daa-0610-4fe1-967f-8af8c01add52",
      "resource": {
        "resourceType": "ServiceRequest",
        "id": "b5138daa-0610-4fe1-967f-8af8c01add52",
        "meta": {
          "profile": [
            "http://hl7.eu/fhir/laboratory/StructureDefinition/ServiceRequest-eu-lab"
          ]
        },
        "identifier": [
          {
            "system": "http://example.org",
            "value": "ee430801-b329-4600-9f98-ae24a4622bd5"
          }
        ],
        "specimen": [
          {
            "reference": "urn:uuid:81b64189-deeb-450d-89e4-3909ecb93539"
          },
          {
            "reference": "urn:uuid:6e7db624-d29d-428f-b3dd-01d8d6ed753f"
          },
          {
            "reference": "urn:uuid:4c6c6198-93b0-4012-b99e-53e82558016b"
          }
        ],
        "reasonCode": [
          {
            "coding": [
              {
                "code": "401314000",
                "system": "http://snomed.info/sct",
                "display": "Acute non-ST segment elevation myocardial infarction"
              }
            ]
          },
          {
            "coding": [
              {
                "code": "157141000119108",
                "system": "http://snomed.info/sct",
                "display": "Proteinuria due to type 2 diabetes mellitus"
              }
            ]
          },
          {
            "coding": [
              {
                "code": "237602007",
                "system": "http://snomed.info/sct",
                "display": "Metabolic syndrome X"
              }
            ]
          },
          {
            "coding": [
              {
                "code": "90781000119102",
                "system": "http://snomed.info/sct",
                "display": "Microalbuminuria due to type 2 diabetes mellitus"
              }
            ]
          },
          {
            "coding": [
              {
                "code": "127013003",
                "system": "http://snomed.info/sct",
                "display": "Disorder of kidney due to diabetes mellitus"
              }
            ]
          },
          {
            "coding": [
              {
                "code": "59621000",
                "system": "http://snomed.info/sct",
                "display": "Essential hypertension"
              }
            ]
          },
          {
            "coding": [
              {
                "code": "271737000",
                "system": "http://snomed.info/sct",
                "display": "Anemia"
              }
            ]
          },
          {
            "coding": [
              {
                "code": "15777000",
                "system": "http://snomed.info/sct",
                "display": "Prediabetes"
              }
            ]
          }
        ],
        "status": "active",
        "intent": "order",
        "code": {
          "coding": [
            {
              "code": "108252007",
              "system": "http://snomed.info/sct",
              "display": "Laboratory procedure"
            }
          ]
        },
        "subject": {
          "reference": "urn:uuid:9897707a-4e36-4013-8a23-e7db85c25bd7",
          "display": "Maria Nohlmans"
        },
        "requester": {
          "reference": "urn:uuid:35c95872-e903-46d4-9653-5e4447c45066"
        }
      }
    },
    {
      "fullUrl": "urn:uuid:35c95872-e903-46d4-9653-5e4447c45066",
      "resource": {
        "resourceType": "PractitionerRole",
        "id": "35c95872-e903-46d4-9653-5e4447c45066",
        "meta": {
          "profile": [
            "http://hl7.eu/fhir/base/StructureDefinition/practitionerRole-eu"
          ]
        },
        "text": {
          "status": "generated",
          "div": "<div xmlns=\"http://www.w3.org/1999/xhtml\">Provider Role Id: 35c95872-e903-46d4-9653-5e4447c45066</div>"
        },
        "organization": {
          "reference": "urn:uuid:0834a100-6b88-4a40-b68c-b9406abb98ba"
        }
      }
    },
    {
      "fullUrl": "urn:uuid:0834a100-6b88-4a40-b68c-b9406abb98ba",
      "resource": {
        "resourceType": "Organization",
        "id": "0834a100-6b88-4a40-b68c-b9406abb98ba",
        "meta": {
          "profile": [
            "http://hl7.eu/fhir/base/StructureDefinition/organization-eu"
          ]
        },
        "identifier": [
          {
            "assigner": {
              "display": "HL7 Europe"
            },
            "system": "urn:oid:2.16.840.1.113883.2.51.999",
            "value": "59b1aef2-fc59-4138-8b42-edec61ba7868"
          }
        ],
        "address": [
          {
            "line": [
              "Brinckmannstraße 35"
            ],
            "city": "Husum",
            "postalCode": "25813",
            "country": "Germany"
          }
        ],
        "text": {
          "status": "generated",
          "div": "<div xmlns=\"http://www.w3.org/1999/xhtml\">Provider Organization: Dr. Wolfram Hussels Kieferorthopäde</div>"
        },
        "name": "Dr. Wolfram Hussels Kieferorthopäde"
      }
    },
    {
      "fullUrl": "urn:uuid:81b64189-deeb-450d-89e4-3909ecb93539",
      "resource": {
        "resourceType": "Specimen",
        "id": "81b64189-deeb-450d-89e4-3909ecb93539",
        "meta": {
          "profile": [
            "http://hl7.eu/fhir/laboratory/StructureDefinition/Specimen-eu-lab"
          ]
        },
        "collection": {
          "collectedDateTime": "2016-03-23"
        },
        "text": {
          "status": "generated",
          "div": "<div xmlns=\"http://www.w3.org/1999/xhtml\"><table class=\"hl7__eu__lab__report\"><tr><th>Specimen</th><th>Collection Date</th></tr><tr><td>Acellular blood (serum or plasma) specimen</td><td><span class=\"nb\">23-Mar-2016</span></td></tr></table></div>"
        },
        "type": {
          "coding": [
            {
              "code": "122592007",
              "system": "http://snomed.info/sct",
              "display": "Acellular blood (serum or plasma) specimen"
            }
          ]
        }
      }
    },
    {
      "fullUrl": "urn:uuid:6e7db624-d29d-428f-b3dd-01d8d6ed753f",
      "resource": {
        "resourceType": "Specimen",
        "id": "6e7db624-d29d-428f-b3dd-01d8d6ed753f",
        "meta": {
          "profile": [
            "http://hl7.eu/fhir/laboratory/StructureDefinition/Specimen-eu-lab"
          ]
        },
        "collection": {
          "collectedDateTime": "2016-03-23"
        },
        "text": {
          "status": "generated",
          "div": "<div xmlns=\"http://www.w3.org/1999/xhtml\"><table class=\"hl7__eu__lab__report\"><tr><th>Specimen</th><th>Collection Date</th></tr><tr><td>Urine specimen</td><td><span class=\"nb\">23-Mar-2016</span></td></tr></table></div>"
        },
        "type": {
          "coding": [
            {
              "code": "122575003",
              "system": "http://snomed.info/sct",
              "display": "Urine specimen"
            }
          ]
        }
      }
    },
    {
      "fullUrl": "urn:uuid:4c6c6198-93b0-4012-b99e-53e82558016b",
      "resource": {
        "resourceType": "Specimen",
        "id": "4c6c6198-93b0-4012-b99e-53e82558016b",
        "meta": {
          "profile": [
            "http://hl7.eu/fhir/laboratory/StructureDefinition/Specimen-eu-lab"
          ]
        },
        "collection": {
          "collectedDateTime": "2016-03-23"
        },
        "text": {
          "status": "generated",
          "div": "<div xmlns=\"http://www.w3.org/1999/xhtml\"><table class=\"hl7__eu__lab__report\"><tr><th>Specimen</th><th>Collection Date</th></tr><tr><td>Whole blood specimen (specimen)</td><td><span class=\"nb\">23-Mar-2016</span></td></tr></table></div>"
        },
        "type": {
          "coding": [
            {
              "code": "258580003",
              "system": "http://snomed.info/sct",
              "display": "Whole blood specimen (specimen)"
            }
          ]
        }
      }
    },
    {
      "fullUrl": "urn:uuid:4c6c6198-93b0-4012-b99e-53e82558016b",
      "resource": {
        "resourceType": "Specimen",
        "id": "4c6c6198-93b0-4012-b99e-53e82558016b",
        "meta": {
          "profile": [
            "http://hl7.eu/fhir/laboratory/StructureDefinition/Specimen-eu-lab"
          ]
        },
        "collection": {
          "collectedDateTime": "2016-03-23"
        },
        "text": {
          "status": "generated",
          "div": "<div xmlns=\"http://www.w3.org/1999/xhtml\"><table class=\"hl7__eu__lab__report\"><tr><th>Specimen</th><th>Collection Date</th></tr><tr><td>Whole blood specimen (specimen)</td><td><span class=\"nb\">23-Mar-2016</span></td></tr></table></div>"
        },
        "type": {
          "coding": [
            {
              "code": "258580003",
              "system": "http://snomed.info/sct",
              "display": "Whole blood specimen (specimen)"
            }
          ]
        }
      }
    },
    {
      "fullUrl": "urn:uuid:b303f0c5-8cc5-40b2-b491-6ff310172a3e",
      "resource": {
        "resourceType": "Observation",
        "id": "b303f0c5-8cc5-40b2-b491-6ff310172a3e",
        "meta": {
          "profile": [
            "http://hl7.eu/fhir/laboratory/StructureDefinition/Observation-resultslab-eu-lab"
          ]
        },
        "performer": [
          {
            "display": "The Central European Lab"
          }
        ],
        "category": [
          {
            "coding": [
              {
                "system": "http://terminology.hl7.org/CodeSystem/observation-category",
                "code": "laboratory"
              }
            ]
          }
        ],
        "code": {
          "coding": [
            {
              "code": "2345-7",
              "system": "http://loinc.org",
              "display": "Glucose [Mass/volume] in Serum or Plasma"
            }
          ],
          "text": "Glucose [Mass/volume] in Serum or Plasma"
        },
        "valueQuantity": {
          "system": "http://unitsofmeasure.org",
          "value": 77.8,
          "unit": "mg/dL",
          "code": "mg/dL"
        },
        "referenceRange": [
          {
            "low": {
              "value": 70,
              "code": "mg/dL",
              "system": "http://unitsofmeasure.org"
            }
          },
          {
            "high": {
              "value": 140,
              "code": "mg/dL",
              "system": "http://unitsofmeasure.org"
            }
          }
        ],
        "text": {
          "status": "generated",
          "div": "<div xmlns=\"http://www.w3.org/1999/xhtml\"><table class=\"hl7__eu__lab__report\"><tr><th>Test</th><th>23-Mar-2016</th><th>Reference&#xA0;Range</th><th>Unit</th></tr><tr><td>Glucose [Mass/volume] in Serum or Plasma</td><td>77.8</td><td>70 - 140</td><td></td><td>mg/dL</td></tr></table></div>"
        },
        "status": "final",
        "subject": {
          "reference": "urn:uuid:9897707a-4e36-4013-8a23-e7db85c25bd7",
          "display": "Maria Nohlmans"
        },
        "effectiveDateTime": "2016-03-23T11:02:39Z",
        "specimen": {
          "reference": "urn:uuid:81b64189-deeb-450d-89e4-3909ecb93539"
        }
      }
    },
    {
      "fullUrl": "urn:uuid:d3d383df-d2e6-4112-bf1f-b6c172b1a4af",
      "resource": {
        "resourceType": "Observation",
        "id": "d3d383df-d2e6-4112-bf1f-b6c172b1a4af",
        "meta": {
          "profile": [
            "http://hl7.eu/fhir/laboratory/StructureDefinition/Observation-resultslab-eu-lab"
          ]
        },
        "performer": [
          {
            "display": "The Central European Lab"
          }
        ],
        "category": [
          {
            "coding": [
              {
                "system": "http://terminology.hl7.org/CodeSystem/observation-category",
                "code": "laboratory"
              }
            ]
          }
        ],
        "code": {
          "coding": [
            {
              "code": "3094-0",
              "system": "http://loinc.org",
              "display": "Urea nitrogen [Mass/volume] in Serum or Plasma"
            }
          ],
          "text": "Urea nitrogen [Mass/volume] in Serum or Plasma"
        },
        "valueQuantity": {
          "system": "http://unitsofmeasure.org",
          "value": 12,
          "unit": "mg/dL",
          "code": "mg/dL"
        },
        "referenceRange": [
          {
            "low": {
              "value": 7,
              "code": "mg/dL",
              "system": "http://unitsofmeasure.org"
            }
          },
          {
            "high": {
              "value": 20,
              "code": "mg/dL",
              "system": "http://unitsofmeasure.org"
            }
          }
        ],
        "text": {
          "status": "generated",
          "div": "<div xmlns=\"http://www.w3.org/1999/xhtml\"><table class=\"hl7__eu__lab__report\"><tr><th>Test</th><th>23-Mar-2016</th><th>Reference&#xA0;Range</th><th>Unit</th></tr><tr><td>Urea nitrogen [Mass/volume] in Serum or Plasma</td><td>12.0</td><td>7 - 20</td><td></td><td>mg/dL</td></tr></table></div>"
        },
        "status": "final",
        "subject": {
          "reference": "urn:uuid:9897707a-4e36-4013-8a23-e7db85c25bd7",
          "display": "Maria Nohlmans"
        },
        "effectiveDateTime": "2016-03-23T11:02:39Z",
        "specimen": {
          "reference": "urn:uuid:81b64189-deeb-450d-89e4-3909ecb93539"
        }
      }
    },
    {
      "fullUrl": "urn:uuid:ddca8c83-2856-4fc9-976f-1664c4427e7c",
      "resource": {
        "resourceType": "Observation",
        "id": "ddca8c83-2856-4fc9-976f-1664c4427e7c",
        "meta": {
          "profile": [
            "http://hl7.eu/fhir/laboratory/StructureDefinition/Observation-resultslab-eu-lab"
          ]
        },
        "performer": [
          {
            "display": "The Central European Lab"
          }
        ],
        "category": [
          {
            "coding": [
              {
                "system": "http://terminology.hl7.org/CodeSystem/observation-category",
                "code": "laboratory"
              }
            ]
          }
        ],
        "code": {
          "coding": [
            {
              "code": "2160-0",
              "system": "http://loinc.org",
              "display": "Creatinine [Mass/volume] in Serum or Plasma"
            }
          ],
          "text": "Creatinine [Mass/volume] in Serum or Plasma"
        },
        "valueQuantity": {
          "system": "http://unitsofmeasure.org",
          "value": 2.3,
          "unit": "mg/dL",
          "code": "mg/dL"
        },
        "referenceRange": [
          {
            "low": {
              "value": 0.6,
              "code": "mg/dL",
              "system": "http://unitsofmeasure.org"
            }
          },
          {
            "high": {
              "value": 1.3,
              "code": "mg/dL",
              "system": "http://unitsofmeasure.org"
            }
          }
        ],
        "interpretation": [
          {
            "coding": [
              {
                "code": "H",
                "system": "http://terminology.hl7.org/CodeSystem/v3-ObservationInterpretation",
                "display": "High"
              }
            ]
          }
        ],
        "text": {
          "status": "generated",
          "div": "<div xmlns=\"http://www.w3.org/1999/xhtml\"><table class=\"hl7__eu__lab__report\"><tr><th>Test</th><th>23-Mar-2016</th><th>Reference&#xA0;Range</th><th>Unit</th></tr><tr><td>Creatinine [Mass/volume] in Serum or Plasma</td><td>2.3</td><td>0.6 - 1.3</td><td>H</td><td>mg/dL</td></tr></table></div>"
        },
        "status": "final",
        "subject": {
          "reference": "urn:uuid:9897707a-4e36-4013-8a23-e7db85c25bd7",
          "display": "Maria Nohlmans"
        },
        "effectiveDateTime": "2016-03-23T11:02:39Z",
        "specimen": {
          "reference": "urn:uuid:81b64189-deeb-450d-89e4-3909ecb93539"
        }
      }
    },
    {
      "fullUrl": "urn:uuid:606c1fe0-91e3-4c82-bcc7-8eb5d3c9c2b2",
      "resource": {
        "resourceType": "Observation",
        "id": "606c1fe0-91e3-4c82-bcc7-8eb5d3c9c2b2",
        "meta": {
          "profile": [
            "http://hl7.eu/fhir/laboratory/StructureDefinition/Observation-resultslab-eu-lab"
          ]
        },
        "performer": [
          {
            "display": "The Central European Lab"
          }
        ],
        "category": [
          {
            "coding": [
              {
                "system": "http://terminology.hl7.org/CodeSystem/observation-category",
                "code": "laboratory"
              }
            ]
          }
        ],
        "code": {
          "coding": [
            {
              "code": "17861-6",
              "system": "http://loinc.org",
              "display": "Calcium [Mass/volume] in Serum or Plasma"
            }
          ],
          "text": "Calcium [Mass/volume] in Serum or Plasma"
        },
        "valueQuantity": {
          "system": "http://unitsofmeasure.org",
          "value": 9.1,
          "unit": "mg/dL",
          "code": "mg/dL"
        },
        "referenceRange": [
          {
            "low": {
              "value": 8.6,
              "code": "mg/dL",
              "system": "http://unitsofmeasure.org"
            }
          },
          {
            "high": {
              "value": 10.4,
              "code": "mg/dL",
              "system": "http://unitsofmeasure.org"
            }
          }
        ],
        "text": {
          "status": "generated",
          "div": "<div xmlns=\"http://www.w3.org/1999/xhtml\"><table class=\"hl7__eu__lab__report\"><tr><th>Test</th><th>23-Mar-2016</th><th>Reference&#xA0;Range</th><th>Unit</th></tr><tr><td>Calcium [Mass/volume] in Serum or Plasma</td><td>9.1</td><td>8.6 - 10.4</td><td></td><td>mg/dL</td></tr></table></div>"
        },
        "status": "final",
        "subject": {
          "reference": "urn:uuid:9897707a-4e36-4013-8a23-e7db85c25bd7",
          "display": "Maria Nohlmans"
        },
        "effectiveDateTime": "2016-03-23T11:02:39Z",
        "specimen": {
          "reference": "urn:uuid:81b64189-deeb-450d-89e4-3909ecb93539"
        }
      }
    },
    {
      "fullUrl": "urn:uuid:c3f3a6ff-d0e9-4800-a4ac-e4bc4a78b95f",
      "resource": {
        "resourceType": "Observation",
        "id": "c3f3a6ff-d0e9-4800-a4ac-e4bc4a78b95f",
        "meta": {
          "profile": [
            "http://hl7.eu/fhir/laboratory/StructureDefinition/Observation-resultslab-eu-lab"
          ]
        },
        "performer": [
          {
            "display": "The Central European Lab"
          }
        ],
        "category": [
          {
            "coding": [
              {
                "system": "http://terminology.hl7.org/CodeSystem/observation-category",
                "code": "laboratory"
              }
            ]
          }
        ],
        "code": {
          "coding": [
            {
              "code": "2951-2",
              "system": "http://loinc.org",
              "display": "Sodium [Moles/volume] in Serum or Plasma"
            }
          ],
          "text": "Sodium [Moles/volume] in Serum or Plasma"
        },
        "valueQuantity": {
          "system": "http://unitsofmeasure.org",
          "value": 137.7,
          "unit": "mmol/L",
          "code": "mmol/L"
        },
        "referenceRange": [
          {
            "low": {
              "value": 135,
              "code": "mmol/L",
              "system": "http://unitsofmeasure.org"
            }
          },
          {
            "high": {
              "value": 145,
              "code": "mmol/L",
              "system": "http://unitsofmeasure.org"
            }
          }
        ],
        "text": {
          "status": "generated",
          "div": "<div xmlns=\"http://www.w3.org/1999/xhtml\"><table class=\"hl7__eu__lab__report\"><tr><th>Test</th><th>23-Mar-2016</th><th>Reference&#xA0;Range</th><th>Unit</th></tr><tr><td>Sodium [Moles/volume] in Serum or Plasma</td><td>137.7</td><td>135 - 145</td><td></td><td>mmol/L</td></tr></table></div>"
        },
        "status": "final",
        "subject": {
          "reference": "urn:uuid:9897707a-4e36-4013-8a23-e7db85c25bd7",
          "display": "Maria Nohlmans"
        },
        "effectiveDateTime": "2016-03-23T11:02:39Z",
        "specimen": {
          "reference": "urn:uuid:81b64189-deeb-450d-89e4-3909ecb93539"
        }
      }
    },
    {
      "fullUrl": "urn:uuid:5de6227d-51f5-4cf7-bc6d-a1e503e193bc",
      "resource": {
        "resourceType": "Observation",
        "id": "5de6227d-51f5-4cf7-bc6d-a1e503e193bc",
        "meta": {
          "profile": [
            "http://hl7.eu/fhir/laboratory/StructureDefinition/Observation-resultslab-eu-lab"
          ]
        },
        "performer": [
          {
            "display": "The Central European Lab"
          }
        ],
        "category": [
          {
            "coding": [
              {
                "system": "http://terminology.hl7.org/CodeSystem/observation-category",
                "code": "laboratory"
              }
            ]
          }
        ],
        "code": {
          "coding": [
            {
              "code": "2823-3",
              "system": "http://loinc.org",
              "display": "Potassium [Moles/volume] in Serum or Plasma"
            }
          ],
          "text": "Potassium [Moles/volume] in Serum or Plasma"
        },
        "valueQuantity": {
          "system": "http://unitsofmeasure.org",
          "value": 4.2,
          "unit": "mmol/L",
          "code": "mmol/L"
        },
        "referenceRange": [
          {
            "low": {
              "value": 3.5,
              "code": "mmol/L",
              "system": "http://unitsofmeasure.org"
            }
          },
          {
            "high": {
              "value": 5.1,
              "code": "mmol/L",
              "system": "http://unitsofmeasure.org"
            }
          }
        ],
        "text": {
          "status": "generated",
          "div": "<div xmlns=\"http://www.w3.org/1999/xhtml\"><table class=\"hl7__eu__lab__report\"><tr><th>Test</th><th>23-Mar-2016</th><th>Reference&#xA0;Range</th><th>Unit</th></tr><tr><td>Potassium [Moles/volume] in Serum or Plasma</td><td>4.2</td><td>3.5 - 5.1</td><td></td><td>mmol/L</td></tr></table></div>"
        },
        "status": "final",
        "subject": {
          "reference": "urn:uuid:9897707a-4e36-4013-8a23-e7db85c25bd7",
          "display": "Maria Nohlmans"
        },
        "effectiveDateTime": "2016-03-23T11:02:39Z",
        "specimen": {
          "reference": "urn:uuid:81b64189-deeb-450d-89e4-3909ecb93539"
        }
      }
    },
    {
      "fullUrl": "urn:uuid:817f071a-87b8-4351-84da-b2ed5471758f",
      "resource": {
        "resourceType": "Observation",
        "id": "817f071a-87b8-4351-84da-b2ed5471758f",
        "meta": {
          "profile": [
            "http://hl7.eu/fhir/laboratory/StructureDefinition/Observation-resultslab-eu-lab"
          ]
        },
        "performer": [
          {
            "display": "The Central European Lab"
          }
        ],
        "category": [
          {
            "coding": [
              {
                "system": "http://terminology.hl7.org/CodeSystem/observation-category",
                "code": "laboratory"
              }
            ]
          }
        ],
        "code": {
          "coding": [
            {
              "code": "2075-0",
              "system": "http://loinc.org",
              "display": "Chloride [Moles/volume] in Serum or Plasma"
            }
          ],
          "text": "Chloride [Moles/volume] in Serum or Plasma"
        },
        "valueQuantity": {
          "system": "http://unitsofmeasure.org",
          "value": 110.4,
          "unit": "mmol/L",
          "code": "mmol/L"
        },
        "referenceRange": [
          {
            "low": {
              "value": 98,
              "code": "mmol/L",
              "system": "http://unitsofmeasure.org"
            }
          },
          {
            "high": {
              "value": 108,
              "code": "mmol/L",
              "system": "http://unitsofmeasure.org"
            }
          }
        ],
        "interpretation": [
          {
            "coding": [
              {
                "code": "H",
                "system": "http://terminology.hl7.org/CodeSystem/v3-ObservationInterpretation",
                "display": "High"
              }
            ]
          }
        ],
        "text": {
          "status": "generated",
          "div": "<div xmlns=\"http://www.w3.org/1999/xhtml\"><table class=\"hl7__eu__lab__report\"><tr><th>Test</th><th>23-Mar-2016</th><th>Reference&#xA0;Range</th><th>Unit</th></tr><tr><td>Chloride [Moles/volume] in Serum or Plasma</td><td>110.4</td><td>98 - 108</td><td>H</td><td>mmol/L</td></tr></table></div>"
        },
        "status": "final",
        "subject": {
          "reference": "urn:uuid:9897707a-4e36-4013-8a23-e7db85c25bd7",
          "display": "Maria Nohlmans"
        },
        "effectiveDateTime": "2016-03-23T11:02:39Z",
        "specimen": {
          "reference": "urn:uuid:81b64189-deeb-450d-89e4-3909ecb93539"
        }
      }
    },
    {
      "fullUrl": "urn:uuid:3091dd31-e912-425f-a541-51163f7c93f5",
      "resource": {
        "resourceType": "Observation",
        "id": "3091dd31-e912-425f-a541-51163f7c93f5",
        "meta": {
          "profile": [
            "http://hl7.eu/fhir/laboratory/StructureDefinition/Observation-resultslab-eu-lab"
          ]
        },
        "performer": [
          {
            "display": "The Central European Lab"
          }
        ],
        "category": [
          {
            "coding": [
              {
                "system": "http://terminology.hl7.org/CodeSystem/observation-category",
                "code": "laboratory"
              }
            ]
          }
        ],
        "code": {
          "coding": [
            {
              "code": "2028-9",
              "system": "http://loinc.org",
              "display": "Carbon dioxide, total [Moles/volume] in Serum or Plasma"
            }
          ],
          "text": "Carbon dioxide, total [Moles/volume] in Serum or Plasma"
        },
        "valueQuantity": {
          "system": "http://unitsofmeasure.org",
          "value": 27.5,
          "unit": "mmol/L",
          "code": "mmol/L"
        },
        "referenceRange": [
          {
            "low": {
              "value": 22,
              "code": "mmol/L",
              "system": "http://unitsofmeasure.org"
            }
          },
          {
            "high": {
              "value": 32,
              "code": "mmol/L",
              "system": "http://unitsofmeasure.org"
            }
          }
        ],
        "text": {
          "status": "generated",
          "div": "<div xmlns=\"http://www.w3.org/1999/xhtml\"><table class=\"hl7__eu__lab__report\"><tr><th>Test</th><th>23-Mar-2016</th><th>Reference&#xA0;Range</th><th>Unit</th></tr><tr><td>Carbon dioxide, total [Moles/volume] in Serum or Plasma</td><td>27.5</td><td>22 - 32</td><td></td><td>mmol/L</td></tr></table></div>"
        },
        "status": "final",
        "subject": {
          "reference": "urn:uuid:9897707a-4e36-4013-8a23-e7db85c25bd7",
          "display": "Maria Nohlmans"
        },
        "effectiveDateTime": "2016-03-23T11:02:39Z",
        "specimen": {
          "reference": "urn:uuid:81b64189-deeb-450d-89e4-3909ecb93539"
        }
      }
    },
    {
      "fullUrl": "urn:uuid:efaed884-449e-498a-88cf-1e7e52e6370c",
      "resource": {
        "resourceType": "Observation",
        "id": "efaed884-449e-498a-88cf-1e7e52e6370c",
        "meta": {
          "profile": [
            "http://hl7.eu/fhir/laboratory/StructureDefinition/Observation-resultslab-eu-lab"
          ]
        },
        "performer": [
          {
            "display": "The Central European Lab"
          }
        ],
        "category": [
          {
            "coding": [
              {
                "system": "http://terminology.hl7.org/CodeSystem/observation-category",
                "code": "laboratory"
              }
            ]
          }
        ],
        "code": {
          "coding": [
            {
              "code": "5767-9",
              "system": "http://loinc.org",
              "display": "Appearance of Urine"
            }
          ],
          "text": "Appearance of Urine"
        },
        "text": {
          "status": "generated",
          "div": "<div xmlns=\"http://www.w3.org/1999/xhtml\"><table class=\"hl7__eu__lab__report\"><tr><th>Test</th><th>23-Mar-2016</th><th>Reference&#xA0;Range</th><th>Unit</th></tr><tr><td>Appearance of Urine</td></tr></table></div>"
        },
        "status": "final",
        "subject": {
          "reference": "urn:uuid:9897707a-4e36-4013-8a23-e7db85c25bd7",
          "display": "Maria Nohlmans"
        },
        "effectiveDateTime": "2016-03-23T11:02:39Z",
        "specimen": {
          "reference": "urn:uuid:6e7db624-d29d-428f-b3dd-01d8d6ed753f"
        }
      }
    },
    {
      "fullUrl": "urn:uuid:0950e5f9-d2e6-41fc-98a5-342d6cfdf384",
      "resource": {
        "resourceType": "Observation",
        "id": "0950e5f9-d2e6-41fc-98a5-342d6cfdf384",
        "meta": {
          "profile": [
            "http://hl7.eu/fhir/laboratory/StructureDefinition/Observation-resultslab-eu-lab"
          ]
        },
        "performer": [
          {
            "display": "The Central European Lab"
          }
        ],
        "category": [
          {
            "coding": [
              {
                "system": "http://terminology.hl7.org/CodeSystem/observation-category",
                "code": "laboratory"
              }
            ]
          }
        ],
        "code": {
          "coding": [
            {
              "code": "34533-0",
              "system": "http://loinc.org",
              "display": "Odor of Urine"
            }
          ],
          "text": "Odor of Urine"
        },
        "text": {
          "status": "generated",
          "div": "<div xmlns=\"http://www.w3.org/1999/xhtml\"><table class=\"hl7__eu__lab__report\"><tr><th>Test</th><th>23-Mar-2016</th><th>Reference&#xA0;Range</th><th>Unit</th></tr><tr><td>Odor of Urine</td></tr></table></div>"
        },
        "status": "final",
        "subject": {
          "reference": "urn:uuid:9897707a-4e36-4013-8a23-e7db85c25bd7",
          "display": "Maria Nohlmans"
        },
        "effectiveDateTime": "2016-03-23T11:02:39Z",
        "specimen": {
          "reference": "urn:uuid:6e7db624-d29d-428f-b3dd-01d8d6ed753f"
        }
      }
    },
    {
      "fullUrl": "urn:uuid:8e17ae1e-e600-4dbb-8b92-409e1b2ed1d9",
      "resource": {
        "resourceType": "Observation",
        "id": "8e17ae1e-e600-4dbb-8b92-409e1b2ed1d9",
        "meta": {
          "profile": [
            "http://hl7.eu/fhir/laboratory/StructureDefinition/Observation-resultslab-eu-lab"
          ]
        },
        "performer": [
          {
            "display": "The Central European Lab"
          }
        ],
        "category": [
          {
            "coding": [
              {
                "system": "http://terminology.hl7.org/CodeSystem/observation-category",
                "code": "laboratory"
              }
            ]
          }
        ],
        "code": {
          "coding": [
            {
              "code": "32167-9",
              "system": "http://loinc.org",
              "display": "Clarity of Urine"
            }
          ],
          "text": "Clarity of Urine"
        },
        "text": {
          "status": "generated",
          "div": "<div xmlns=\"http://www.w3.org/1999/xhtml\"><table class=\"hl7__eu__lab__report\"><tr><th>Test</th><th>23-Mar-2016</th><th>Reference&#xA0;Range</th><th>Unit</th></tr><tr><td>Clarity of Urine</td></tr></table></div>"
        },
        "status": "final",
        "subject": {
          "reference": "urn:uuid:9897707a-4e36-4013-8a23-e7db85c25bd7",
          "display": "Maria Nohlmans"
        },
        "effectiveDateTime": "2016-03-23T11:02:39Z",
        "specimen": {
          "reference": "urn:uuid:6e7db624-d29d-428f-b3dd-01d8d6ed753f"
        }
      }
    },
    {
      "fullUrl": "urn:uuid:5e12b8a4-5ee2-46c4-86a5-389c25245b95",
      "resource": {
        "resourceType": "Observation",
        "id": "5e12b8a4-5ee2-46c4-86a5-389c25245b95",
        "meta": {
          "profile": [
            "http://hl7.eu/fhir/laboratory/StructureDefinition/Observation-resultslab-eu-lab"
          ]
        },
        "performer": [
          {
            "display": "The Central European Lab"
          }
        ],
        "category": [
          {
            "coding": [
              {
                "system": "http://terminology.hl7.org/CodeSystem/observation-category",
                "code": "laboratory"
              }
            ]
          }
        ],
        "code": {
          "coding": [
            {
              "code": "5778-6",
              "system": "http://loinc.org",
              "display": "Color of Urine"
            }
          ],
          "text": "Color of Urine"
        },
        "text": {
          "status": "generated",
          "div": "<div xmlns=\"http://www.w3.org/1999/xhtml\"><table class=\"hl7__eu__lab__report\"><tr><th>Test</th><th>23-Mar-2016</th><th>Reference&#xA0;Range</th><th>Unit</th></tr><tr><td>Color of Urine</td></tr></table></div>"
        },
        "status": "final",
        "subject": {
          "reference": "urn:uuid:9897707a-4e36-4013-8a23-e7db85c25bd7",
          "display": "Maria Nohlmans"
        },
        "effectiveDateTime": "2016-03-23T11:02:39Z",
        "specimen": {
          "reference": "urn:uuid:6e7db624-d29d-428f-b3dd-01d8d6ed753f"
        }
      }
    },
    {
      "fullUrl": "urn:uuid:5bca76a9-49a4-4a28-86a2-dd0b9979e1e5",
      "resource": {
        "resourceType": "Observation",
        "id": "5bca76a9-49a4-4a28-86a2-dd0b9979e1e5",
        "meta": {
          "profile": [
            "http://hl7.eu/fhir/laboratory/StructureDefinition/Observation-resultslab-eu-lab"
          ]
        },
        "performer": [
          {
            "display": "The Central European Lab"
          }
        ],
        "category": [
          {
            "coding": [
              {
                "system": "http://terminology.hl7.org/CodeSystem/observation-category",
                "code": "laboratory"
              }
            ]
          }
        ],
        "code": {
          "coding": [
            {
              "code": "5792-7",
              "system": "http://loinc.org",
              "display": "Glucose [Mass/volume] in Urine by Test strip"
            }
          ],
          "text": "Glucose [Mass/volume] in Urine by Test strip"
        },
        "valueQuantity": {
          "system": "http://unitsofmeasure.org",
          "value": 1.6,
          "unit": "mg/dL",
          "code": "mg/dL"
        },
        "referenceRange": [
          {
            "low": {
              "value": 0.8,
              "code": "mg/dL",
              "system": "http://unitsofmeasure.org"
            }
          },
          {
            "high": {
              "value": 0,
              "code": "mg/dL",
              "system": "http://unitsofmeasure.org"
            }
          }
        ],
        "interpretation": [
          {
            "coding": [
              {
                "code": "H",
                "system": "http://terminology.hl7.org/CodeSystem/v3-ObservationInterpretation",
                "display": "High"
              }
            ]
          }
        ],
        "text": {
          "status": "generated",
          "div": "<div xmlns=\"http://www.w3.org/1999/xhtml\"><table class=\"hl7__eu__lab__report\"><tr><th>Test</th><th>23-Mar-2016</th><th>Reference&#xA0;Range</th><th>Unit</th></tr><tr><td>Glucose [Mass/volume] in Urine by Test strip</td><td>1.6</td><td>0.8 - 0</td><td>H</td><td>mg/dL</td></tr></table></div>"
        },
        "status": "final",
        "subject": {
          "reference": "urn:uuid:9897707a-4e36-4013-8a23-e7db85c25bd7",
          "display": "Maria Nohlmans"
        },
        "effectiveDateTime": "2016-03-23T11:02:39Z",
        "specimen": {
          "reference": "urn:uuid:6e7db624-d29d-428f-b3dd-01d8d6ed753f"
        }
      }
    },
    {
      "fullUrl": "urn:uuid:d09f7cd8-93f9-4ac0-973e-2fc9cf694ba9",
      "resource": {
        "resourceType": "Observation",
        "id": "d09f7cd8-93f9-4ac0-973e-2fc9cf694ba9",
        "meta": {
          "profile": [
            "http://hl7.eu/fhir/laboratory/StructureDefinition/Observation-resultslab-eu-lab"
          ]
        },
        "performer": [
          {
            "display": "The Central European Lab"
          }
        ],
        "category": [
          {
            "coding": [
              {
                "system": "http://terminology.hl7.org/CodeSystem/observation-category",
                "code": "laboratory"
              }
            ]
          }
        ],
        "code": {
          "coding": [
            {
              "code": "25428-4",
              "system": "http://loinc.org",
              "display": "Glucose [Presence] in Urine by Test strip"
            }
          ],
          "text": "Glucose [Presence] in Urine by Test strip"
        },
        "text": {
          "status": "generated",
          "div": "<div xmlns=\"http://www.w3.org/1999/xhtml\"><table class=\"hl7__eu__lab__report\"><tr><th>Test</th><th>23-Mar-2016</th><th>Reference&#xA0;Range</th><th>Unit</th></tr><tr><td>Glucose [Presence] in Urine by Test strip</td></tr></table></div>"
        },
        "status": "final",
        "subject": {
          "reference": "urn:uuid:9897707a-4e36-4013-8a23-e7db85c25bd7",
          "display": "Maria Nohlmans"
        },
        "effectiveDateTime": "2016-03-23T11:02:39Z",
        "specimen": {
          "reference": "urn:uuid:6e7db624-d29d-428f-b3dd-01d8d6ed753f"
        }
      }
    },
    {
      "fullUrl": "urn:uuid:4207ec59-e413-4967-a87e-ead52f01620a",
      "resource": {
        "resourceType": "Observation",
        "id": "4207ec59-e413-4967-a87e-ead52f01620a",
        "meta": {
          "profile": [
            "http://hl7.eu/fhir/laboratory/StructureDefinition/Observation-resultslab-eu-lab"
          ]
        },
        "performer": [
          {
            "display": "The Central European Lab"
          }
        ],
        "category": [
          {
            "coding": [
              {
                "system": "http://terminology.hl7.org/CodeSystem/observation-category",
                "code": "laboratory"
              }
            ]
          }
        ],
        "code": {
          "coding": [
            {
              "code": "20505-4",
              "system": "http://loinc.org",
              "display": "Bilirubin.total [Mass/volume] in Urine by Test strip"
            }
          ],
          "text": "Bilirubin.total [Mass/volume] in Urine by Test strip"
        },
        "valueQuantity": {
          "system": "http://unitsofmeasure.org",
          "value": 0.9,
          "unit": "mg/dL",
          "code": "mg/dL"
        },
        "referenceRange": [
          {
            "low": {
              "value": 0,
              "code": "mg/dL",
              "system": "http://unitsofmeasure.org"
            }
          },
          {
            "high": {
              "value": 1.5,
              "code": "mg/dL",
              "system": "http://unitsofmeasure.org"
            }
          }
        ],
        "text": {
          "status": "generated",
          "div": "<div xmlns=\"http://www.w3.org/1999/xhtml\"><table class=\"hl7__eu__lab__report\"><tr><th>Test</th><th>23-Mar-2016</th><th>Reference&#xA0;Range</th><th>Unit</th></tr><tr><td>Bilirubin.total [Mass/volume] in Urine by Test strip</td><td>0.9</td><td>0 - 1.5</td><td></td><td>mg/dL</td></tr></table></div>"
        },
        "status": "final",
        "subject": {
          "reference": "urn:uuid:9897707a-4e36-4013-8a23-e7db85c25bd7",
          "display": "Maria Nohlmans"
        },
        "effectiveDateTime": "2016-03-23T11:02:39Z",
        "specimen": {
          "reference": "urn:uuid:6e7db624-d29d-428f-b3dd-01d8d6ed753f"
        }
      }
    },
    {
      "fullUrl": "urn:uuid:0e5b9cc3-fc99-4060-8011-99cb10c13992",
      "resource": {
        "resourceType": "Observation",
        "id": "0e5b9cc3-fc99-4060-8011-99cb10c13992",
        "meta": {
          "profile": [
            "http://hl7.eu/fhir/laboratory/StructureDefinition/Observation-resultslab-eu-lab"
          ]
        },
        "performer": [
          {
            "display": "The Central European Lab"
          }
        ],
        "category": [
          {
            "coding": [
              {
                "system": "http://terminology.hl7.org/CodeSystem/observation-category",
                "code": "laboratory"
              }
            ]
          }
        ],
        "code": {
          "coding": [
            {
              "code": "5770-3",
              "system": "http://loinc.org",
              "display": "Bilirubin.total [Presence] in Urine by Test strip"
            }
          ],
          "text": "Bilirubin.total [Presence] in Urine by Test strip"
        },
        "text": {
          "status": "generated",
          "div": "<div xmlns=\"http://www.w3.org/1999/xhtml\"><table class=\"hl7__eu__lab__report\"><tr><th>Test</th><th>23-Mar-2016</th><th>Reference&#xA0;Range</th><th>Unit</th></tr><tr><td>Bilirubin.total [Presence] in Urine by Test strip</td></tr></table></div>"
        },
        "status": "final",
        "subject": {
          "reference": "urn:uuid:9897707a-4e36-4013-8a23-e7db85c25bd7",
          "display": "Maria Nohlmans"
        },
        "effectiveDateTime": "2016-03-23T11:02:39Z",
        "specimen": {
          "reference": "urn:uuid:6e7db624-d29d-428f-b3dd-01d8d6ed753f"
        }
      }
    },
    {
      "fullUrl": "urn:uuid:1b4d7929-6535-4390-b876-5c2e0efa4b75",
      "resource": {
        "resourceType": "Observation",
        "id": "1b4d7929-6535-4390-b876-5c2e0efa4b75",
        "meta": {
          "profile": [
            "http://hl7.eu/fhir/laboratory/StructureDefinition/Observation-resultslab-eu-lab"
          ]
        },
        "performer": [
          {
            "display": "The Central European Lab"
          }
        ],
        "category": [
          {
            "coding": [
              {
                "system": "http://terminology.hl7.org/CodeSystem/observation-category",
                "code": "laboratory"
              }
            ]
          }
        ],
        "code": {
          "coding": [
            {
              "code": "5797-6",
              "system": "http://loinc.org",
              "display": "Ketones [Mass/volume] in Urine by Test strip"
            }
          ],
          "text": "Ketones [Mass/volume] in Urine by Test strip"
        },
        "valueQuantity": {
          "system": "http://unitsofmeasure.org",
          "value": 1,
          "unit": "mg/dL",
          "code": "mg/dL"
        },
        "referenceRange": [
          {
            "low": {
              "value": 0,
              "code": "mg/dL",
              "system": "http://unitsofmeasure.org"
            }
          },
          {
            "high": {
              "value": 8,
              "code": "mg/dL",
              "system": "http://unitsofmeasure.org"
            }
          }
        ],
        "text": {
          "status": "generated",
          "div": "<div xmlns=\"http://www.w3.org/1999/xhtml\"><table class=\"hl7__eu__lab__report\"><tr><th>Test</th><th>23-Mar-2016</th><th>Reference&#xA0;Range</th><th>Unit</th></tr><tr><td>Ketones [Mass/volume] in Urine by Test strip</td><td>1.0</td><td>0 - 8</td><td></td><td>mg/dL</td></tr></table></div>"
        },
        "status": "final",
        "subject": {
          "reference": "urn:uuid:9897707a-4e36-4013-8a23-e7db85c25bd7",
          "display": "Maria Nohlmans"
        },
        "effectiveDateTime": "2016-03-23T11:02:39Z",
        "specimen": {
          "reference": "urn:uuid:6e7db624-d29d-428f-b3dd-01d8d6ed753f"
        }
      }
    },
    {
      "fullUrl": "urn:uuid:272ef317-d426-44cd-ac4f-20d7e610eeae",
      "resource": {
        "resourceType": "Observation",
        "id": "272ef317-d426-44cd-ac4f-20d7e610eeae",
        "meta": {
          "profile": [
            "http://hl7.eu/fhir/laboratory/StructureDefinition/Observation-resultslab-eu-lab"
          ]
        },
        "performer": [
          {
            "display": "The Central European Lab"
          }
        ],
        "category": [
          {
            "coding": [
              {
                "system": "http://terminology.hl7.org/CodeSystem/observation-category",
                "code": "laboratory"
              }
            ]
          }
        ],
        "code": {
          "coding": [
            {
              "code": "2514-8",
              "system": "http://loinc.org",
              "display": "Ketones [Presence] in Urine by Test strip"
            }
          ],
          "text": "Ketones [Presence] in Urine by Test strip"
        },
        "text": {
          "status": "generated",
          "div": "<div xmlns=\"http://www.w3.org/1999/xhtml\"><table class=\"hl7__eu__lab__report\"><tr><th>Test</th><th>23-Mar-2016</th><th>Reference&#xA0;Range</th><th>Unit</th></tr><tr><td>Ketones [Presence] in Urine by Test strip</td></tr></table></div>"
        },
        "status": "final",
        "subject": {
          "reference": "urn:uuid:9897707a-4e36-4013-8a23-e7db85c25bd7",
          "display": "Maria Nohlmans"
        },
        "effectiveDateTime": "2016-03-23T11:02:39Z",
        "specimen": {
          "reference": "urn:uuid:6e7db624-d29d-428f-b3dd-01d8d6ed753f"
        }
      }
    },
    {
      "fullUrl": "urn:uuid:4e10616b-52d2-4053-88c1-53a65c0df7a7",
      "resource": {
        "resourceType": "Observation",
        "id": "4e10616b-52d2-4053-88c1-53a65c0df7a7",
        "meta": {
          "profile": [
            "http://hl7.eu/fhir/laboratory/StructureDefinition/Observation-resultslab-eu-lab"
          ]
        },
        "performer": [
          {
            "display": "The Central European Lab"
          }
        ],
        "category": [
          {
            "coding": [
              {
                "system": "http://terminology.hl7.org/CodeSystem/observation-category",
                "code": "laboratory"
              }
            ]
          }
        ],
        "code": {
          "coding": [
            {
              "code": "5811-5",
              "system": "http://loinc.org",
              "display": "Specific gravity of Urine by Test strip"
            }
          ],
          "text": "Specific gravity of Urine by Test strip"
        },
        "valueQuantity": {
          "system": "http://unitsofmeasure.org",
          "value": 1,
          "unit": "{nominal}",
          "code": "{nominal}"
        },
        "referenceRange": [
          {
            "low": {
              "value": 1.01,
              "code": "g/mL",
              "system": "http://unitsofmeasure.org"
            }
          },
          {
            "high": {
              "value": 1.03,
              "code": "g/mL",
              "system": "http://unitsofmeasure.org"
            }
          }
        ],
        "interpretation": [
          {
            "coding": [
              {
                "code": "L",
                "system": "http://terminology.hl7.org/CodeSystem/v3-ObservationInterpretation",
                "display": "Low"
              }
            ]
          }
        ],
        "text": {
          "status": "generated",
          "div": "<div xmlns=\"http://www.w3.org/1999/xhtml\"><table class=\"hl7__eu__lab__report\"><tr><th>Test</th><th>23-Mar-2016</th><th>Reference&#xA0;Range</th><th>Unit</th></tr><tr><td>Specific gravity of Urine by Test strip</td><td>1.0</td><td>1.01 - 1.03</td><td>L</td><td>{nominal}</td></tr></table></div>"
        },
        "status": "final",
        "subject": {
          "reference": "urn:uuid:9897707a-4e36-4013-8a23-e7db85c25bd7",
          "display": "Maria Nohlmans"
        },
        "effectiveDateTime": "2016-03-23T11:02:39Z",
        "specimen": {
          "reference": "urn:uuid:6e7db624-d29d-428f-b3dd-01d8d6ed753f"
        }
      }
    },
    {
      "fullUrl": "urn:uuid:6a3dc7e1-230c-411d-93e6-f9950079f8e2",
      "resource": {
        "resourceType": "Observation",
        "id": "6a3dc7e1-230c-411d-93e6-f9950079f8e2",
        "meta": {
          "profile": [
            "http://hl7.eu/fhir/laboratory/StructureDefinition/Observation-resultslab-eu-lab"
          ]
        },
        "performer": [
          {
            "display": "The Central European Lab"
          }
        ],
        "category": [
          {
            "coding": [
              {
                "system": "http://terminology.hl7.org/CodeSystem/observation-category",
                "code": "laboratory"
              }
            ]
          }
        ],
        "code": {
          "coding": [
            {
              "code": "5803-2",
              "system": "http://loinc.org",
              "display": "pH of Urine by Test strip"
            }
          ],
          "text": "pH of Urine by Test strip"
        },
        "valueQuantity": {
          "system": "http://unitsofmeasure.org",
          "value": 5.1,
          "unit": "pH",
          "code": "pH"
        },
        "referenceRange": [
          {
            "low": {
              "value": 4.6,
              "code": "pH",
              "system": "http://unitsofmeasure.org"
            }
          },
          {
            "high": {
              "value": 7.5,
              "code": "pH",
              "system": "http://unitsofmeasure.org"
            }
          }
        ],
        "text": {
          "status": "generated",
          "div": "<div xmlns=\"http://www.w3.org/1999/xhtml\"><table class=\"hl7__eu__lab__report\"><tr><th>Test</th><th>23-Mar-2016</th><th>Reference&#xA0;Range</th><th>Unit</th></tr><tr><td>pH of Urine by Test strip</td><td>5.1</td><td>4.6 - 7.5</td><td></td><td>pH</td></tr></table></div>"
        },
        "status": "final",
        "subject": {
          "reference": "urn:uuid:9897707a-4e36-4013-8a23-e7db85c25bd7",
          "display": "Maria Nohlmans"
        },
        "effectiveDateTime": "2016-03-23T11:02:39Z",
        "specimen": {
          "reference": "urn:uuid:6e7db624-d29d-428f-b3dd-01d8d6ed753f"
        }
      }
    },
    {
      "fullUrl": "urn:uuid:9c225b3e-a5e0-4980-86e6-551d8680f61b",
      "resource": {
        "resourceType": "Observation",
        "id": "9c225b3e-a5e0-4980-86e6-551d8680f61b",
        "meta": {
          "profile": [
            "http://hl7.eu/fhir/laboratory/StructureDefinition/Observation-resultslab-eu-lab"
          ]
        },
        "performer": [
          {
            "display": "The Central European Lab"
          }
        ],
        "category": [
          {
            "coding": [
              {
                "system": "http://terminology.hl7.org/CodeSystem/observation-category",
                "code": "laboratory"
              }
            ]
          }
        ],
        "code": {
          "coding": [
            {
              "code": "5804-0",
              "system": "http://loinc.org",
              "display": "Protein [Mass/volume] in Urine by Test strip"
            }
          ],
          "text": "Protein [Mass/volume] in Urine by Test strip"
        },
        "valueQuantity": {
          "system": "http://unitsofmeasure.org",
          "value": 298,
          "unit": "mg/dL",
          "code": "mg/dL"
        },
        "referenceRange": [
          {
            "low": {
              "value": 0,
              "code": "mg/dL",
              "system": "http://unitsofmeasure.org"
            }
          },
          {
            "high": {
              "value": 14,
              "code": "mg/dL",
              "system": "http://unitsofmeasure.org"
            }
          }
        ],
        "interpretation": [
          {
            "coding": [
              {
                "code": "H",
                "system": "http://terminology.hl7.org/CodeSystem/v3-ObservationInterpretation",
                "display": "High"
              }
            ]
          }
        ],
        "text": {
          "status": "generated",
          "div": "<div xmlns=\"http://www.w3.org/1999/xhtml\"><table class=\"hl7__eu__lab__report\"><tr><th>Test</th><th>23-Mar-2016</th><th>Reference&#xA0;Range</th><th>Unit</th></tr><tr><td>Protein [Mass/volume] in Urine by Test strip</td><td>298.0</td><td>0 - 14</td><td>H</td><td>mg/dL</td></tr></table></div>"
        },
        "status": "final",
        "subject": {
          "reference": "urn:uuid:9897707a-4e36-4013-8a23-e7db85c25bd7",
          "display": "Maria Nohlmans"
        },
        "effectiveDateTime": "2016-03-23T11:02:39Z",
        "specimen": {
          "reference": "urn:uuid:6e7db624-d29d-428f-b3dd-01d8d6ed753f"
        }
      }
    },
    {
      "fullUrl": "urn:uuid:f1d81190-b969-4c2e-8d81-3f1e8f3032b3",
      "resource": {
        "resourceType": "Observation",
        "id": "f1d81190-b969-4c2e-8d81-3f1e8f3032b3",
        "meta": {
          "profile": [
            "http://hl7.eu/fhir/laboratory/StructureDefinition/Observation-resultslab-eu-lab"
          ]
        },
        "performer": [
          {
            "display": "The Central European Lab"
          }
        ],
        "category": [
          {
            "coding": [
              {
                "system": "http://terminology.hl7.org/CodeSystem/observation-category",
                "code": "laboratory"
              }
            ]
          }
        ],
        "code": {
          "coding": [
            {
              "code": "20454-5",
              "system": "http://loinc.org",
              "display": "Protein [Presence] in Urine by Test strip"
            }
          ],
          "text": "Protein [Presence] in Urine by Test strip"
        },
        "text": {
          "status": "generated",
          "div": "<div xmlns=\"http://www.w3.org/1999/xhtml\"><table class=\"hl7__eu__lab__report\"><tr><th>Test</th><th>23-Mar-2016</th><th>Reference&#xA0;Range</th><th>Unit</th></tr><tr><td>Protein [Presence] in Urine by Test strip</td></tr></table></div>"
        },
        "status": "final",
        "subject": {
          "reference": "urn:uuid:9897707a-4e36-4013-8a23-e7db85c25bd7",
          "display": "Maria Nohlmans"
        },
        "effectiveDateTime": "2016-03-23T11:02:39Z",
        "specimen": {
          "reference": "urn:uuid:6e7db624-d29d-428f-b3dd-01d8d6ed753f"
        }
      }
    },
    {
      "fullUrl": "urn:uuid:2ae4d8cf-4a66-42d2-a6f2-387f3e3f585e",
      "resource": {
        "resourceType": "Observation",
        "id": "2ae4d8cf-4a66-42d2-a6f2-387f3e3f585e",
        "meta": {
          "profile": [
            "http://hl7.eu/fhir/laboratory/StructureDefinition/Observation-resultslab-eu-lab"
          ]
        },
        "performer": [
          {
            "display": "The Central European Lab"
          }
        ],
        "category": [
          {
            "coding": [
              {
                "system": "http://terminology.hl7.org/CodeSystem/observation-category",
                "code": "laboratory"
              }
            ]
          }
        ],
        "code": {
          "coding": [
            {
              "code": "5802-4",
              "system": "http://loinc.org",
              "display": "Nitrite [Presence] in Urine by Test strip"
            }
          ],
          "text": "Nitrite [Presence] in Urine by Test strip"
        },
        "text": {
          "status": "generated",
          "div": "<div xmlns=\"http://www.w3.org/1999/xhtml\"><table class=\"hl7__eu__lab__report\"><tr><th>Test</th><th>23-Mar-2016</th><th>Reference&#xA0;Range</th><th>Unit</th></tr><tr><td>Nitrite [Presence] in Urine by Test strip</td></tr></table></div>"
        },
        "status": "final",
        "subject": {
          "reference": "urn:uuid:9897707a-4e36-4013-8a23-e7db85c25bd7",
          "display": "Maria Nohlmans"
        },
        "effectiveDateTime": "2016-03-23T11:02:39Z",
        "specimen": {
          "reference": "urn:uuid:6e7db624-d29d-428f-b3dd-01d8d6ed753f"
        }
      }
    },
    {
      "fullUrl": "urn:uuid:bf3bece4-67ee-4206-9a86-023bd389f44a",
      "resource": {
        "resourceType": "Observation",
        "id": "bf3bece4-67ee-4206-9a86-023bd389f44a",
        "meta": {
          "profile": [
            "http://hl7.eu/fhir/laboratory/StructureDefinition/Observation-resultslab-eu-lab"
          ]
        },
        "performer": [
          {
            "display": "The Central European Lab"
          }
        ],
        "category": [
          {
            "coding": [
              {
                "system": "http://terminology.hl7.org/CodeSystem/observation-category",
                "code": "laboratory"
              }
            ]
          }
        ],
        "code": {
          "coding": [
            {
              "code": "5794-3",
              "system": "http://loinc.org",
              "display": "Hemoglobin [Presence] in Urine by Test strip"
            }
          ],
          "text": "Hemoglobin [Presence] in Urine by Test strip"
        },
        "text": {
          "status": "generated",
          "div": "<div xmlns=\"http://www.w3.org/1999/xhtml\"><table class=\"hl7__eu__lab__report\"><tr><th>Test</th><th>23-Mar-2016</th><th>Reference&#xA0;Range</th><th>Unit</th></tr><tr><td>Hemoglobin [Presence] in Urine by Test strip</td></tr></table></div>"
        },
        "status": "final",
        "subject": {
          "reference": "urn:uuid:9897707a-4e36-4013-8a23-e7db85c25bd7",
          "display": "Maria Nohlmans"
        },
        "effectiveDateTime": "2016-03-23T11:02:39Z",
        "specimen": {
          "reference": "urn:uuid:6e7db624-d29d-428f-b3dd-01d8d6ed753f"
        }
      }
    },
    {
      "fullUrl": "urn:uuid:4ebfd0d1-12ff-4e1d-a8a8-41288482aa4b",
      "resource": {
        "resourceType": "Observation",
        "id": "4ebfd0d1-12ff-4e1d-a8a8-41288482aa4b",
        "meta": {
          "profile": [
            "http://hl7.eu/fhir/laboratory/StructureDefinition/Observation-resultslab-eu-lab"
          ]
        },
        "performer": [
          {
            "display": "The Central European Lab"
          }
        ],
        "category": [
          {
            "coding": [
              {
                "system": "http://terminology.hl7.org/CodeSystem/observation-category",
                "code": "laboratory"
              }
            ]
          }
        ],
        "code": {
          "coding": [
            {
              "code": "5799-2",
              "system": "http://loinc.org",
              "display": "Leukocyte esterase [Presence] in Urine by Test strip"
            }
          ],
          "text": "Leukocyte esterase [Presence] in Urine by Test strip"
        },
        "text": {
          "status": "generated",
          "div": "<div xmlns=\"http://www.w3.org/1999/xhtml\"><table class=\"hl7__eu__lab__report\"><tr><th>Test</th><th>23-Mar-2016</th><th>Reference&#xA0;Range</th><th>Unit</th></tr><tr><td>Leukocyte esterase [Presence] in Urine by Test strip</td></tr></table></div>"
        },
        "status": "final",
        "subject": {
          "reference": "urn:uuid:9897707a-4e36-4013-8a23-e7db85c25bd7",
          "display": "Maria Nohlmans"
        },
        "effectiveDateTime": "2016-03-23T11:02:39Z",
        "specimen": {
          "reference": "urn:uuid:6e7db624-d29d-428f-b3dd-01d8d6ed753f"
        }
      }
    },
    {
      "fullUrl": "urn:uuid:f5f2b36e-22b7-4b77-b708-c3d49315d8e2",
      "resource": {
        "resourceType": "Observation",
        "id": "f5f2b36e-22b7-4b77-b708-c3d49315d8e2",
        "meta": {
          "profile": [
            "http://hl7.eu/fhir/laboratory/StructureDefinition/Observation-resultslab-eu-lab"
          ]
        },
        "performer": [
          {
            "display": "The Central European Lab"
          }
        ],
        "category": [
          {
            "coding": [
              {
                "system": "http://terminology.hl7.org/CodeSystem/observation-category",
                "code": "laboratory"
              }
            ]
          }
        ],
        "code": {
          "coding": [
            {
              "code": "4548-4",
              "system": "http://loinc.org",
              "display": "Hemoglobin A1c/Hemoglobin.total in Blood"
            }
          ],
          "text": "Hemoglobin A1c/Hemoglobin.total in Blood"
        },
        "valueQuantity": {
          "system": "http://unitsofmeasure.org",
          "value": 3,
          "unit": "%",
          "code": "%"
        },
        "referenceRange": [
          {
            "low": {
              "value": 4.5,
              "code": "%",
              "system": "http://unitsofmeasure.org"
            }
          },
          {
            "high": {
              "value": 6.4,
              "code": "%",
              "system": "http://unitsofmeasure.org"
            }
          }
        ],
        "interpretation": [
          {
            "coding": [
              {
                "code": "L",
                "system": "http://terminology.hl7.org/CodeSystem/v3-ObservationInterpretation",
                "display": "Low"
              }
            ]
          }
        ],
        "text": {
          "status": "generated",
          "div": "<div xmlns=\"http://www.w3.org/1999/xhtml\"><table class=\"hl7__eu__lab__report\"><tr><th>Test</th><th>23-Mar-2016</th><th>Reference&#xA0;Range</th><th>Unit</th></tr><tr><td>Hemoglobin A1c/Hemoglobin.total in Blood</td><td>3.0</td><td>4.5 - 6.4</td><td>L</td><td>%</td></tr></table></div>"
        },
        "status": "final",
        "subject": {
          "reference": "urn:uuid:9897707a-4e36-4013-8a23-e7db85c25bd7",
          "display": "Maria Nohlmans"
        },
        "effectiveDateTime": "2016-03-23T11:02:39Z",
        "specimen": {
          "reference": "urn:uuid:4c6c6198-93b0-4012-b99e-53e82558016b"
        }
      }
    },
    {
      "fullUrl": "urn:uuid:e1253941-9023-4f54-a0e3-fb2f869c17d6",
      "resource": {
        "resourceType": "Observation",
        "id": "e1253941-9023-4f54-a0e3-fb2f869c17d6",
        "meta": {
          "profile": [
            "http://hl7.eu/fhir/laboratory/StructureDefinition/Observation-resultslab-eu-lab"
          ]
        },
        "performer": [
          {
            "display": "The Central European Lab"
          }
        ],
        "category": [
          {
            "coding": [
              {
                "system": "http://terminology.hl7.org/CodeSystem/observation-category",
                "code": "laboratory"
              }
            ]
          }
        ],
        "code": {
          "coding": [
            {
              "code": "2339-0",
              "system": "http://loinc.org",
              "display": "Glucose [Mass/volume] in Blood"
            }
          ],
          "text": "Glucose [Mass/volume] in Blood"
        },
        "valueQuantity": {
          "system": "http://unitsofmeasure.org",
          "value": 77.8,
          "unit": "mg/dL",
          "code": "mg/dL"
        },
        "referenceRange": [
          {
            "low": {
              "value": 70,
              "code": "mg/dL",
              "system": "http://unitsofmeasure.org"
            }
          },
          {
            "high": {
              "value": 140,
              "code": "mg/dL",
              "system": "http://unitsofmeasure.org"
            }
          }
        ],
        "text": {
          "status": "generated",
          "div": "<div xmlns=\"http://www.w3.org/1999/xhtml\"><table class=\"hl7__eu__lab__report\"><tr><th>Test</th><th>23-Mar-2016</th><th>Reference&#xA0;Range</th><th>Unit</th></tr><tr><td>Glucose [Mass/volume] in Blood</td><td>77.8</td><td>70 - 140</td><td></td><td>mg/dL</td></tr></table></div>"
        },
        "status": "final",
        "subject": {
          "reference": "urn:uuid:9897707a-4e36-4013-8a23-e7db85c25bd7",
          "display": "Maria Nohlmans"
        },
        "effectiveDateTime": "2016-03-23T11:02:39Z",
        "specimen": {
          "reference": "urn:uuid:4c6c6198-93b0-4012-b99e-53e82558016b"
        }
      }
    },
    {
      "fullUrl": "urn:uuid:0956aa45-b615-4b99-8672-c7f11b95c8c3",
      "resource": {
        "resourceType": "Observation",
        "id": "0956aa45-b615-4b99-8672-c7f11b95c8c3",
        "meta": {
          "profile": [
            "http://hl7.eu/fhir/laboratory/StructureDefinition/Observation-resultslab-eu-lab"
          ]
        },
        "performer": [
          {
            "display": "The Central European Lab"
          }
        ],
        "category": [
          {
            "coding": [
              {
                "system": "http://terminology.hl7.org/CodeSystem/observation-category",
                "code": "laboratory"
              }
            ]
          }
        ],
        "code": {
          "coding": [
            {
              "code": "6299-2",
              "system": "http://loinc.org",
              "display": "Urea nitrogen [Mass/volume] in Blood"
            }
          ],
          "text": "Urea nitrogen [Mass/volume] in Blood"
        },
        "valueQuantity": {
          "system": "http://unitsofmeasure.org",
          "value": 12,
          "unit": "mg/dL",
          "code": "mg/dL"
        },
        "referenceRange": [
          {
            "low": {
              "value": 7,
              "code": "mg/dL",
              "system": "http://unitsofmeasure.org"
            }
          },
          {
            "high": {
              "value": 30,
              "code": "mg/dL",
              "system": "http://unitsofmeasure.org"
            }
          }
        ],
        "text": {
          "status": "generated",
          "div": "<div xmlns=\"http://www.w3.org/1999/xhtml\"><table class=\"hl7__eu__lab__report\"><tr><th>Test</th><th>23-Mar-2016</th><th>Reference&#xA0;Range</th><th>Unit</th></tr><tr><td>Urea nitrogen [Mass/volume] in Blood</td><td>12.0</td><td>7 - 30</td><td></td><td>mg/dL</td></tr></table></div>"
        },
        "status": "final",
        "subject": {
          "reference": "urn:uuid:9897707a-4e36-4013-8a23-e7db85c25bd7",
          "display": "Maria Nohlmans"
        },
        "effectiveDateTime": "2016-03-23T11:02:39Z",
        "specimen": {
          "reference": "urn:uuid:4c6c6198-93b0-4012-b99e-53e82558016b"
        }
      }
    },
    {
      "fullUrl": "urn:uuid:6ad310d3-98aa-4aa6-be6c-0e3401d35e08",
      "resource": {
        "resourceType": "Observation",
        "id": "6ad310d3-98aa-4aa6-be6c-0e3401d35e08",
        "meta": {
          "profile": [
            "http://hl7.eu/fhir/laboratory/StructureDefinition/Observation-resultslab-eu-lab"
          ]
        },
        "performer": [
          {
            "display": "The Central European Lab"
          }
        ],
        "category": [
          {
            "coding": [
              {
                "system": "http://terminology.hl7.org/CodeSystem/observation-category",
                "code": "laboratory"
              }
            ]
          }
        ],
        "code": {
          "coding": [
            {
              "code": "38483-4",
              "system": "http://loinc.org",
              "display": "Creatinine [Mass/volume] in Blood"
            }
          ],
          "text": "Creatinine [Mass/volume] in Blood"
        },
        "valueQuantity": {
          "system": "http://unitsofmeasure.org",
          "value": 6,
          "unit": "mg/dL",
          "code": "mg/dL"
        },
        "referenceRange": [
          {
            "low": {
              "value": 0.5,
              "code": "mg/dL",
              "system": "http://unitsofmeasure.org"
            }
          },
          {
            "high": {
              "value": 1.3,
              "code": "mg/dL",
              "system": "http://unitsofmeasure.org"
            }
          }
        ],
        "interpretation": [
          {
            "coding": [
              {
                "code": "H",
                "system": "http://terminology.hl7.org/CodeSystem/v3-ObservationInterpretation",
                "display": "High"
              }
            ]
          }
        ],
        "text": {
          "status": "generated",
          "div": "<div xmlns=\"http://www.w3.org/1999/xhtml\"><table class=\"hl7__eu__lab__report\"><tr><th>Test</th><th>23-Mar-2016</th><th>Reference&#xA0;Range</th><th>Unit</th></tr><tr><td>Creatinine [Mass/volume] in Blood</td><td>6.0</td><td>0.5 - 1.3</td><td>H</td><td>mg/dL</td></tr></table></div>"
        },
        "status": "final",
        "subject": {
          "reference": "urn:uuid:9897707a-4e36-4013-8a23-e7db85c25bd7",
          "display": "Maria Nohlmans"
        },
        "effectiveDateTime": "2016-03-23T11:02:39Z",
        "specimen": {
          "reference": "urn:uuid:4c6c6198-93b0-4012-b99e-53e82558016b"
        }
      }
    },
    {
      "fullUrl": "urn:uuid:2a7b250b-e855-4727-931f-eb58588002b4",
      "resource": {
        "resourceType": "Observation",
        "id": "2a7b250b-e855-4727-931f-eb58588002b4",
        "meta": {
          "profile": [
            "http://hl7.eu/fhir/laboratory/StructureDefinition/Observation-resultslab-eu-lab"
          ]
        },
        "performer": [
          {
            "display": "The Central European Lab"
          }
        ],
        "category": [
          {
            "coding": [
              {
                "system": "http://terminology.hl7.org/CodeSystem/observation-category",
                "code": "laboratory"
              }
            ]
          }
        ],
        "code": {
          "coding": [
            {
              "code": "49765-1",
              "system": "http://loinc.org",
              "display": "Calcium [Mass/volume] in Blood"
            }
          ],
          "text": "Calcium [Mass/volume] in Blood"
        },
        "valueQuantity": {
          "system": "http://unitsofmeasure.org",
          "value": 9.1,
          "unit": "mg/dL",
          "code": "mg/dL"
        },
        "referenceRange": [
          {
            "low": {
              "value": 8.6,
              "code": "mg/dL",
              "system": "http://unitsofmeasure.org"
            }
          },
          {
            "high": {
              "value": 10.2,
              "code": "mg/dL",
              "system": "http://unitsofmeasure.org"
            }
          }
        ],
        "text": {
          "status": "generated",
          "div": "<div xmlns=\"http://www.w3.org/1999/xhtml\"><table class=\"hl7__eu__lab__report\"><tr><th>Test</th><th>23-Mar-2016</th><th>Reference&#xA0;Range</th><th>Unit</th></tr><tr><td>Calcium [Mass/volume] in Blood</td><td>9.1</td><td>8.6 - 10.2</td><td></td><td>mg/dL</td></tr></table></div>"
        },
        "status": "final",
        "subject": {
          "reference": "urn:uuid:9897707a-4e36-4013-8a23-e7db85c25bd7",
          "display": "Maria Nohlmans"
        },
        "effectiveDateTime": "2016-03-23T11:02:39Z",
        "specimen": {
          "reference": "urn:uuid:4c6c6198-93b0-4012-b99e-53e82558016b"
        }
      }
    },
    {
      "fullUrl": "urn:uuid:5d6857b3-b72f-4677-8099-210356ffff41",
      "resource": {
        "resourceType": "Observation",
        "id": "5d6857b3-b72f-4677-8099-210356ffff41",
        "meta": {
          "profile": [
            "http://hl7.eu/fhir/laboratory/StructureDefinition/Observation-resultslab-eu-lab"
          ]
        },
        "performer": [
          {
            "display": "The Central European Lab"
          }
        ],
        "category": [
          {
            "coding": [
              {
                "system": "http://terminology.hl7.org/CodeSystem/observation-category",
                "code": "laboratory"
              }
            ]
          }
        ],
        "code": {
          "coding": [
            {
              "code": "2947-0",
              "system": "http://loinc.org",
              "display": "Sodium [Moles/volume] in Blood"
            }
          ],
          "text": "Sodium [Moles/volume] in Blood"
        },
        "valueQuantity": {
          "system": "http://unitsofmeasure.org",
          "value": 137.7,
          "unit": "mmol/L",
          "code": "mmol/L"
        },
        "referenceRange": [
          {
            "low": {
              "value": 135,
              "code": "mmol/L",
              "system": "http://unitsofmeasure.org"
            }
          },
          {
            "high": {
              "value": 145,
              "code": "mmol/L",
              "system": "http://unitsofmeasure.org"
            }
          }
        ],
        "text": {
          "status": "generated",
          "div": "<div xmlns=\"http://www.w3.org/1999/xhtml\"><table class=\"hl7__eu__lab__report\"><tr><th>Test</th><th>23-Mar-2016</th><th>Reference&#xA0;Range</th><th>Unit</th></tr><tr><td>Sodium [Moles/volume] in Blood</td><td>137.7</td><td>135 - 145</td><td></td><td>mmol/L</td></tr></table></div>"
        },
        "status": "final",
        "subject": {
          "reference": "urn:uuid:9897707a-4e36-4013-8a23-e7db85c25bd7",
          "display": "Maria Nohlmans"
        },
        "effectiveDateTime": "2016-03-23T11:02:39Z",
        "specimen": {
          "reference": "urn:uuid:4c6c6198-93b0-4012-b99e-53e82558016b"
        }
      }
    },
    {
      "fullUrl": "urn:uuid:0b2dff3d-3ef7-4b82-b544-0ec6eb216166",
      "resource": {
        "resourceType": "Observation",
        "id": "0b2dff3d-3ef7-4b82-b544-0ec6eb216166",
        "meta": {
          "profile": [
            "http://hl7.eu/fhir/laboratory/StructureDefinition/Observation-resultslab-eu-lab"
          ]
        },
        "performer": [
          {
            "display": "The Central European Lab"
          }
        ],
        "category": [
          {
            "coding": [
              {
                "system": "http://terminology.hl7.org/CodeSystem/observation-category",
                "code": "laboratory"
              }
            ]
          }
        ],
        "code": {
          "coding": [
            {
              "code": "6298-4",
              "system": "http://loinc.org",
              "display": "Potassium [Moles/volume] in Blood"
            }
          ],
          "text": "Potassium [Moles/volume] in Blood"
        },
        "valueQuantity": {
          "system": "http://unitsofmeasure.org",
          "value": 4.2,
          "unit": "mmol/L",
          "code": "mmol/L"
        },
        "referenceRange": [
          {
            "low": {
              "value": 3.5,
              "code": "mmol/L",
              "system": "http://unitsofmeasure.org"
            }
          },
          {
            "high": {
              "value": 5.1,
              "code": "mmol/L",
              "system": "http://unitsofmeasure.org"
            }
          }
        ],
        "text": {
          "status": "generated",
          "div": "<div xmlns=\"http://www.w3.org/1999/xhtml\"><table class=\"hl7__eu__lab__report\"><tr><th>Test</th><th>23-Mar-2016</th><th>Reference&#xA0;Range</th><th>Unit</th></tr><tr><td>Potassium [Moles/volume] in Blood</td><td>4.2</td><td>3.5 - 5.1</td><td></td><td>mmol/L</td></tr></table></div>"
        },
        "status": "final",
        "subject": {
          "reference": "urn:uuid:9897707a-4e36-4013-8a23-e7db85c25bd7",
          "display": "Maria Nohlmans"
        },
        "effectiveDateTime": "2016-03-23T11:02:39Z",
        "specimen": {
          "reference": "urn:uuid:4c6c6198-93b0-4012-b99e-53e82558016b"
        }
      }
    },
    {
      "fullUrl": "urn:uuid:99b21e94-3dc9-496a-b1e1-e4d30323846e",
      "resource": {
        "resourceType": "Observation",
        "id": "99b21e94-3dc9-496a-b1e1-e4d30323846e",
        "meta": {
          "profile": [
            "http://hl7.eu/fhir/laboratory/StructureDefinition/Observation-resultslab-eu-lab"
          ]
        },
        "performer": [
          {
            "display": "The Central European Lab"
          }
        ],
        "category": [
          {
            "coding": [
              {
                "system": "http://terminology.hl7.org/CodeSystem/observation-category",
                "code": "laboratory"
              }
            ]
          }
        ],
        "code": {
          "coding": [
            {
              "code": "2069-3",
              "system": "http://loinc.org",
              "display": "Chloride [Moles/volume] in Blood"
            }
          ],
          "text": "Chloride [Moles/volume] in Blood"
        },
        "valueQuantity": {
          "system": "http://unitsofmeasure.org",
          "value": 110.4,
          "unit": "mmol/L",
          "code": "mmol/L"
        },
        "referenceRange": [
          {
            "low": {
              "value": 98,
              "code": "mmol/L",
              "system": "http://unitsofmeasure.org"
            }
          },
          {
            "high": {
              "value": 114,
              "code": "mmol/L",
              "system": "http://unitsofmeasure.org"
            }
          }
        ],
        "text": {
          "status": "generated",
          "div": "<div xmlns=\"http://www.w3.org/1999/xhtml\"><table class=\"hl7__eu__lab__report\"><tr><th>Test</th><th>23-Mar-2016</th><th>Reference&#xA0;Range</th><th>Unit</th></tr><tr><td>Chloride [Moles/volume] in Blood</td><td>110.4</td><td>98 - 114</td><td></td><td>mmol/L</td></tr></table></div>"
        },
        "status": "final",
        "subject": {
          "reference": "urn:uuid:9897707a-4e36-4013-8a23-e7db85c25bd7",
          "display": "Maria Nohlmans"
        },
        "effectiveDateTime": "2016-03-23T11:02:39Z",
        "specimen": {
          "reference": "urn:uuid:4c6c6198-93b0-4012-b99e-53e82558016b"
        }
      }
    },
    {
      "fullUrl": "urn:uuid:b450709c-8ecc-4581-a93c-8a9148d39523",
      "resource": {
        "resourceType": "Observation",
        "id": "b450709c-8ecc-4581-a93c-8a9148d39523",
        "meta": {
          "profile": [
            "http://hl7.eu/fhir/laboratory/StructureDefinition/Observation-resultslab-eu-lab"
          ]
        },
        "performer": [
          {
            "display": "The Central European Lab"
          }
        ],
        "category": [
          {
            "coding": [
              {
                "system": "http://terminology.hl7.org/CodeSystem/observation-category",
                "code": "laboratory"
              }
            ]
          }
        ],
        "code": {
          "coding": [
            {
              "code": "20565-8",
              "system": "http://loinc.org",
              "display": "Carbon dioxide, total [Moles/volume] in Blood"
            }
          ],
          "text": "Carbon dioxide, total [Moles/volume] in Blood"
        },
        "valueQuantity": {
          "system": "http://unitsofmeasure.org",
          "value": 27.5,
          "unit": "mmol/L",
          "code": "mmol/L"
        },
        "referenceRange": [
          {
            "low": {
              "value": 22,
              "code": "mmol/L",
              "system": "http://unitsofmeasure.org"
            }
          },
          {
            "high": {
              "value": 32,
              "code": "mmol/L",
              "system": "http://unitsofmeasure.org"
            }
          }
        ],
        "text": {
          "status": "generated",
          "div": "<div xmlns=\"http://www.w3.org/1999/xhtml\"><table class=\"hl7__eu__lab__report\"><tr><th>Test</th><th>23-Mar-2016</th><th>Reference&#xA0;Range</th><th>Unit</th></tr><tr><td>Carbon dioxide, total [Moles/volume] in Blood</td><td>27.5</td><td>22 - 32</td><td></td><td>mmol/L</td></tr></table></div>"
        },
        "status": "final",
        "subject": {
          "reference": "urn:uuid:9897707a-4e36-4013-8a23-e7db85c25bd7",
          "display": "Maria Nohlmans"
        },
        "effectiveDateTime": "2016-03-23T11:02:39Z",
        "specimen": {
          "reference": "urn:uuid:4c6c6198-93b0-4012-b99e-53e82558016b"
        }
      }
    },
    {
      "fullUrl": "urn:uuid:3dbe1e86-aa9f-4f0f-a680-ab165fe72cdb",
      "resource": {
        "resourceType": "Observation",
        "id": "3dbe1e86-aa9f-4f0f-a680-ab165fe72cdb",
        "meta": {
          "profile": [
            "http://hl7.eu/fhir/laboratory/StructureDefinition/Observation-resultslab-eu-lab"
          ]
        },
        "performer": [
          {
            "display": "The Central European Lab"
          }
        ],
        "category": [
          {
            "coding": [
              {
                "system": "http://terminology.hl7.org/CodeSystem/observation-category",
                "code": "laboratory"
              }
            ]
          }
        ],
        "code": {
          "coding": [
            {
              "code": "6690-2",
              "system": "http://loinc.org",
              "display": "Leukocytes [#/volume] in Blood by Automated count"
            }
          ],
          "text": "Leukocytes [#/volume] in Blood by Automated count"
        },
        "valueQuantity": {
          "system": "http://unitsofmeasure.org",
          "value": 8.6,
          "unit": "10*3/uL",
          "code": "10*3/uL"
        },
        "referenceRange": [
          {
            "low": {
              "value": 4,
              "code": "10*3/uL",
              "system": "http://unitsofmeasure.org"
            }
          },
          {
            "high": {
              "value": 11,
              "code": "10*3/uL",
              "system": "http://unitsofmeasure.org"
            }
          }
        ],
        "text": {
          "status": "generated",
          "div": "<div xmlns=\"http://www.w3.org/1999/xhtml\"><table class=\"hl7__eu__lab__report\"><tr><th>Test</th><th>23-Mar-2016</th><th>Reference&#xA0;Range</th><th>Unit</th></tr><tr><td>Leukocytes [#/volume] in Blood by Automated count</td><td>8.6</td><td>4 - 11</td><td></td><td>10*3/uL</td></tr></table></div>"
        },
        "status": "final",
        "subject": {
          "reference": "urn:uuid:9897707a-4e36-4013-8a23-e7db85c25bd7",
          "display": "Maria Nohlmans"
        },
        "effectiveDateTime": "2016-03-23T11:02:39Z",
        "specimen": {
          "reference": "urn:uuid:4c6c6198-93b0-4012-b99e-53e82558016b"
        }
      }
    },
    {
      "fullUrl": "urn:uuid:dfb812c7-6aa3-461c-b39c-eb490cf89dcb",
      "resource": {
        "resourceType": "Observation",
        "id": "dfb812c7-6aa3-461c-b39c-eb490cf89dcb",
        "meta": {
          "profile": [
            "http://hl7.eu/fhir/laboratory/StructureDefinition/Observation-resultslab-eu-lab"
          ]
        },
        "performer": [
          {
            "display": "The Central European Lab"
          }
        ],
        "category": [
          {
            "coding": [
              {
                "system": "http://terminology.hl7.org/CodeSystem/observation-category",
                "code": "laboratory"
              }
            ]
          }
        ],
        "code": {
          "coding": [
            {
              "code": "789-8",
              "system": "http://loinc.org",
              "display": "Erythrocytes [#/volume] in Blood by Automated count"
            }
          ],
          "text": "Erythrocytes [#/volume] in Blood by Automated count"
        },
        "valueQuantity": {
          "system": "http://unitsofmeasure.org",
          "value": 3.9,
          "unit": "10*6/uL",
          "code": "10*6/uL"
        },
        "referenceRange": [
          {
            "low": {
              "value": 3.9,
              "code": "10*6/uL",
              "system": "http://unitsofmeasure.org"
            }
          },
          {
            "high": {
              "value": 5.2,
              "code": "10*6/uL",
              "system": "http://unitsofmeasure.org"
            }
          }
        ],
        "text": {
          "status": "generated",
          "div": "<div xmlns=\"http://www.w3.org/1999/xhtml\"><table class=\"hl7__eu__lab__report\"><tr><th>Test</th><th>23-Mar-2016</th><th>Reference&#xA0;Range</th><th>Unit</th></tr><tr><td>Erythrocytes [#/volume] in Blood by Automated count</td><td>3.9</td><td>3.9 - 5.2</td><td></td><td>10*6/uL</td></tr></table></div>"
        },
        "status": "final",
        "subject": {
          "reference": "urn:uuid:9897707a-4e36-4013-8a23-e7db85c25bd7",
          "display": "Maria Nohlmans"
        },
        "effectiveDateTime": "2016-03-23T11:02:39Z",
        "specimen": {
          "reference": "urn:uuid:4c6c6198-93b0-4012-b99e-53e82558016b"
        }
      }
    },
    {
      "fullUrl": "urn:uuid:397c6ee7-c46d-4612-8060-58132edfa391",
      "resource": {
        "resourceType": "Observation",
        "id": "397c6ee7-c46d-4612-8060-58132edfa391",
        "meta": {
          "profile": [
            "http://hl7.eu/fhir/laboratory/StructureDefinition/Observation-resultslab-eu-lab"
          ]
        },
        "performer": [
          {
            "display": "The Central European Lab"
          }
        ],
        "category": [
          {
            "coding": [
              {
                "system": "http://terminology.hl7.org/CodeSystem/observation-category",
                "code": "laboratory"
              }
            ]
          }
        ],
        "code": {
          "coding": [
            {
              "code": "718-7",
              "system": "http://loinc.org",
              "display": "Hemoglobin [Mass/volume] in Blood"
            }
          ],
          "text": "Hemoglobin [Mass/volume] in Blood"
        },
        "valueQuantity": {
          "system": "http://unitsofmeasure.org",
          "value": 16.6,
          "unit": "g/dL",
          "code": "g/dL"
        },
        "referenceRange": [
          {
            "low": {
              "value": 12,
              "code": "g/dL",
              "system": "http://unitsofmeasure.org"
            }
          },
          {
            "high": {
              "value": 15.5,
              "code": "g/dL",
              "system": "http://unitsofmeasure.org"
            }
          }
        ],
        "interpretation": [
          {
            "coding": [
              {
                "code": "H",
                "system": "http://terminology.hl7.org/CodeSystem/v3-ObservationInterpretation",
                "display": "High"
              }
            ]
          }
        ],
        "text": {
          "status": "generated",
          "div": "<div xmlns=\"http://www.w3.org/1999/xhtml\"><table class=\"hl7__eu__lab__report\"><tr><th>Test</th><th>23-Mar-2016</th><th>Reference&#xA0;Range</th><th>Unit</th></tr><tr><td>Hemoglobin [Mass/volume] in Blood</td><td>16.6</td><td>12 - 15.5</td><td>H</td><td>g/dL</td></tr></table></div>"
        },
        "status": "final",
        "subject": {
          "reference": "urn:uuid:9897707a-4e36-4013-8a23-e7db85c25bd7",
          "display": "Maria Nohlmans"
        },
        "effectiveDateTime": "2016-03-23T11:02:39Z",
        "specimen": {
          "reference": "urn:uuid:4c6c6198-93b0-4012-b99e-53e82558016b"
        }
      }
    },
    {
      "fullUrl": "urn:uuid:b4355e0f-7a68-4e00-975d-7145b6299d6e",
      "resource": {
        "resourceType": "Observation",
        "id": "b4355e0f-7a68-4e00-975d-7145b6299d6e",
        "meta": {
          "profile": [
            "http://hl7.eu/fhir/laboratory/StructureDefinition/Observation-resultslab-eu-lab"
          ]
        },
        "performer": [
          {
            "display": "The Central European Lab"
          }
        ],
        "category": [
          {
            "coding": [
              {
                "system": "http://terminology.hl7.org/CodeSystem/observation-category",
                "code": "laboratory"
              }
            ]
          }
        ],
        "code": {
          "coding": [
            {
              "code": "4544-3",
              "system": "http://loinc.org",
              "display": "Hematocrit [Volume Fraction] of Blood by Automated count"
            }
          ],
          "text": "Hematocrit [Volume Fraction] of Blood by Automated count"
        },
        "valueQuantity": {
          "system": "http://unitsofmeasure.org",
          "value": 44.1,
          "unit": "%",
          "code": "%"
        },
        "referenceRange": [
          {
            "low": {
              "value": 38,
              "code": "%",
              "system": "http://unitsofmeasure.org"
            }
          },
          {
            "high": {
              "value": 54,
              "code": "%",
              "system": "http://unitsofmeasure.org"
            }
          }
        ],
        "text": {
          "status": "generated",
          "div": "<div xmlns=\"http://www.w3.org/1999/xhtml\"><table class=\"hl7__eu__lab__report\"><tr><th>Test</th><th>23-Mar-2016</th><th>Reference&#xA0;Range</th><th>Unit</th></tr><tr><td>Hematocrit [Volume Fraction] of Blood by Automated count</td><td>44.1</td><td>38 - 54</td><td></td><td>%</td></tr></table></div>"
        },
        "status": "final",
        "subject": {
          "reference": "urn:uuid:9897707a-4e36-4013-8a23-e7db85c25bd7",
          "display": "Maria Nohlmans"
        },
        "effectiveDateTime": "2016-03-23T11:02:39Z",
        "specimen": {
          "reference": "urn:uuid:4c6c6198-93b0-4012-b99e-53e82558016b"
        }
      }
    },
    {
      "fullUrl": "urn:uuid:ec777506-6a83-4349-a508-8d22108976d6",
      "resource": {
        "resourceType": "Observation",
        "id": "ec777506-6a83-4349-a508-8d22108976d6",
        "meta": {
          "profile": [
            "http://hl7.eu/fhir/laboratory/StructureDefinition/Observation-resultslab-eu-lab"
          ]
        },
        "performer": [
          {
            "display": "The Central European Lab"
          }
        ],
        "category": [
          {
            "coding": [
              {
                "system": "http://terminology.hl7.org/CodeSystem/observation-category",
                "code": "laboratory"
              }
            ]
          }
        ],
        "code": {
          "coding": [
            {
              "code": "787-2",
              "system": "http://loinc.org",
              "display": "MCV [Entitic volume] by Automated count"
            }
          ],
          "text": "MCV [Entitic volume] by Automated count"
        },
        "valueQuantity": {
          "system": "http://unitsofmeasure.org",
          "value": 93.5,
          "unit": "fL",
          "code": "fL"
        },
        "referenceRange": [
          {
            "low": {
              "value": 78,
              "code": "fL",
              "system": "http://unitsofmeasure.org"
            }
          },
          {
            "high": {
              "value": 98,
              "code": "fL",
              "system": "http://unitsofmeasure.org"
            }
          }
        ],
        "text": {
          "status": "generated",
          "div": "<div xmlns=\"http://www.w3.org/1999/xhtml\"><table class=\"hl7__eu__lab__report\"><tr><th>Test</th><th>23-Mar-2016</th><th>Reference&#xA0;Range</th><th>Unit</th></tr><tr><td>MCV [Entitic volume] by Automated count</td><td>93.5</td><td>78 - 98</td><td></td><td>fL</td></tr></table></div>"
        },
        "status": "final",
        "subject": {
          "reference": "urn:uuid:9897707a-4e36-4013-8a23-e7db85c25bd7",
          "display": "Maria Nohlmans"
        },
        "effectiveDateTime": "2016-03-23T11:02:39Z",
        "specimen": {
          "reference": "urn:uuid:4c6c6198-93b0-4012-b99e-53e82558016b"
        }
      }
    },
    {
      "fullUrl": "urn:uuid:01e40794-865a-4673-8e59-7d0de2befd83",
      "resource": {
        "resourceType": "Observation",
        "id": "01e40794-865a-4673-8e59-7d0de2befd83",
        "meta": {
          "profile": [
            "http://hl7.eu/fhir/laboratory/StructureDefinition/Observation-resultslab-eu-lab"
          ]
        },
        "performer": [
          {
            "display": "The Central European Lab"
          }
        ],
        "category": [
          {
            "coding": [
              {
                "system": "http://terminology.hl7.org/CodeSystem/observation-category",
                "code": "laboratory"
              }
            ]
          }
        ],
        "code": {
          "coding": [
            {
              "code": "785-6",
              "system": "http://loinc.org",
              "display": "MCH [Entitic mass] by Automated count"
            }
          ],
          "text": "MCH [Entitic mass] by Automated count"
        },
        "valueQuantity": {
          "system": "http://unitsofmeasure.org",
          "value": 28.8,
          "unit": "pg",
          "code": "pg"
        },
        "referenceRange": [
          {
            "low": {
              "value": 27,
              "code": "pg",
              "system": "http://unitsofmeasure.org"
            }
          },
          {
            "high": {
              "value": 33,
              "code": "pg",
              "system": "http://unitsofmeasure.org"
            }
          }
        ],
        "text": {
          "status": "generated",
          "div": "<div xmlns=\"http://www.w3.org/1999/xhtml\"><table class=\"hl7__eu__lab__report\"><tr><th>Test</th><th>23-Mar-2016</th><th>Reference&#xA0;Range</th><th>Unit</th></tr><tr><td>MCH [Entitic mass] by Automated count</td><td>28.8</td><td>27 - 33</td><td></td><td>pg</td></tr></table></div>"
        },
        "status": "final",
        "subject": {
          "reference": "urn:uuid:9897707a-4e36-4013-8a23-e7db85c25bd7",
          "display": "Maria Nohlmans"
        },
        "effectiveDateTime": "2016-03-23T11:02:39Z",
        "specimen": {
          "reference": "urn:uuid:4c6c6198-93b0-4012-b99e-53e82558016b"
        }
      }
    },
    {
      "fullUrl": "urn:uuid:2d40572b-2eab-47be-9cd7-b39691c8ad84",
      "resource": {
        "resourceType": "Observation",
        "id": "2d40572b-2eab-47be-9cd7-b39691c8ad84",
        "meta": {
          "profile": [
            "http://hl7.eu/fhir/laboratory/StructureDefinition/Observation-resultslab-eu-lab"
          ]
        },
        "performer": [
          {
            "display": "The Central European Lab"
          }
        ],
        "category": [
          {
            "coding": [
              {
                "system": "http://terminology.hl7.org/CodeSystem/observation-category",
                "code": "laboratory"
              }
            ]
          }
        ],
        "code": {
          "coding": [
            {
              "code": "786-4",
              "system": "http://loinc.org",
              "display": "MCHC [Mass/volume] by Automated count"
            }
          ],
          "text": "MCHC [Mass/volume] by Automated count"
        },
        "valueQuantity": {
          "system": "http://unitsofmeasure.org",
          "value": 34.7,
          "unit": "g/dL",
          "code": "g/dL"
        },
        "referenceRange": [
          {
            "low": {
              "value": 31,
              "code": "g/dL",
              "system": "http://unitsofmeasure.org"
            }
          },
          {
            "high": {
              "value": 35,
              "code": "g/dL",
              "system": "http://unitsofmeasure.org"
            }
          }
        ],
        "text": {
          "status": "generated",
          "div": "<div xmlns=\"http://www.w3.org/1999/xhtml\"><table class=\"hl7__eu__lab__report\"><tr><th>Test</th><th>23-Mar-2016</th><th>Reference&#xA0;Range</th><th>Unit</th></tr><tr><td>MCHC [Mass/volume] by Automated count</td><td>34.7</td><td>31 - 35</td><td></td><td>g/dL</td></tr></table></div>"
        },
        "status": "final",
        "subject": {
          "reference": "urn:uuid:9897707a-4e36-4013-8a23-e7db85c25bd7",
          "display": "Maria Nohlmans"
        },
        "effectiveDateTime": "2016-03-23T11:02:39Z",
        "specimen": {
          "reference": "urn:uuid:4c6c6198-93b0-4012-b99e-53e82558016b"
        }
      }
    },
    {
      "fullUrl": "urn:uuid:1776c9ce-bcae-414b-9a0c-0df5b273813f",
      "resource": {
        "resourceType": "Observation",
        "id": "1776c9ce-bcae-414b-9a0c-0df5b273813f",
        "meta": {
          "profile": [
            "http://hl7.eu/fhir/laboratory/StructureDefinition/Observation-resultslab-eu-lab"
          ]
        },
        "performer": [
          {
            "display": "The Central European Lab"
          }
        ],
        "category": [
          {
            "coding": [
              {
                "system": "http://terminology.hl7.org/CodeSystem/observation-category",
                "code": "laboratory"
              }
            ]
          }
        ],
        "code": {
          "coding": [
            {
              "code": "21000-5",
              "system": "http://loinc.org",
              "display": "Erythrocyte distribution width [Entitic volume] by Automated count"
            }
          ],
          "text": "Erythrocyte distribution width [Entitic volume] by Automated count"
        },
        "valueQuantity": {
          "system": "http://unitsofmeasure.org",
          "value": 44,
          "unit": "fL",
          "code": "fL"
        },
        "referenceRange": [
          {
            "low": {
              "value": 36,
              "code": "fL",
              "system": "http://unitsofmeasure.org"
            }
          },
          {
            "high": {
              "value": 56,
              "code": "fL",
              "system": "http://unitsofmeasure.org"
            }
          }
        ],
        "text": {
          "status": "generated",
          "div": "<div xmlns=\"http://www.w3.org/1999/xhtml\"><table class=\"hl7__eu__lab__report\"><tr><th>Test</th><th>23-Mar-2016</th><th>Reference&#xA0;Range</th><th>Unit</th></tr><tr><td>Erythrocyte distribution width [Entitic volume] by Automated count</td><td>44.0</td><td>36 - 56</td><td></td><td>fL</td></tr></table></div>"
        },
        "status": "final",
        "subject": {
          "reference": "urn:uuid:9897707a-4e36-4013-8a23-e7db85c25bd7",
          "display": "Maria Nohlmans"
        },
        "effectiveDateTime": "2016-03-23T11:02:39Z",
        "specimen": {
          "reference": "urn:uuid:4c6c6198-93b0-4012-b99e-53e82558016b"
        }
      }
    },
    {
      "fullUrl": "urn:uuid:af532109-42f8-4991-8064-e385ebc3932f",
      "resource": {
        "resourceType": "Observation",
        "id": "af532109-42f8-4991-8064-e385ebc3932f",
        "meta": {
          "profile": [
            "http://hl7.eu/fhir/laboratory/StructureDefinition/Observation-resultslab-eu-lab"
          ]
        },
        "performer": [
          {
            "display": "The Central European Lab"
          }
        ],
        "category": [
          {
            "coding": [
              {
                "system": "http://terminology.hl7.org/CodeSystem/observation-category",
                "code": "laboratory"
              }
            ]
          }
        ],
        "code": {
          "coding": [
            {
              "code": "777-3",
              "system": "http://loinc.org",
              "display": "Platelets [#/volume] in Blood by Automated count"
            }
          ],
          "text": "Platelets [#/volume] in Blood by Automated count"
        },
        "valueQuantity": {
          "system": "http://unitsofmeasure.org",
          "value": 422.4,
          "unit": "10*3/uL",
          "code": "10*3/uL"
        },
        "referenceRange": [
          {
            "low": {
              "value": 150,
              "code": "10*3/uL",
              "system": "http://unitsofmeasure.org"
            }
          },
          {
            "high": {
              "value": 450,
              "code": "10*3/uL",
              "system": "http://unitsofmeasure.org"
            }
          }
        ],
        "text": {
          "status": "generated",
          "div": "<div xmlns=\"http://www.w3.org/1999/xhtml\"><table class=\"hl7__eu__lab__report\"><tr><th>Test</th><th>23-Mar-2016</th><th>Reference&#xA0;Range</th><th>Unit</th></tr><tr><td>Platelets [#/volume] in Blood by Automated count</td><td>422.4</td><td>150 - 450</td><td></td><td>10*3/uL</td></tr></table></div>"
        },
        "status": "final",
        "subject": {
          "reference": "urn:uuid:9897707a-4e36-4013-8a23-e7db85c25bd7",
          "display": "Maria Nohlmans"
        },
        "effectiveDateTime": "2016-03-23T11:02:39Z",
        "specimen": {
          "reference": "urn:uuid:4c6c6198-93b0-4012-b99e-53e82558016b"
        }
      }
    },
    {
      "fullUrl": "urn:uuid:fa792d6a-0121-4931-9e8d-e15550167424",
      "resource": {
        "resourceType": "Observation",
        "id": "fa792d6a-0121-4931-9e8d-e15550167424",
        "meta": {
          "profile": [
            "http://hl7.eu/fhir/laboratory/StructureDefinition/Observation-resultslab-eu-lab"
          ]
        },
        "performer": [
          {
            "display": "The Central European Lab"
          }
        ],
        "category": [
          {
            "coding": [
              {
                "system": "http://terminology.hl7.org/CodeSystem/observation-category",
                "code": "laboratory"
              }
            ]
          }
        ],
        "code": {
          "coding": [
            {
              "code": "32207-3",
              "system": "http://loinc.org",
              "display": "Platelet distribution width [Entitic volume] in Blood by Automated count"
            }
          ],
          "text": "Platelet distribution width [Entitic volume] in Blood by Automated count"
        },
        "valueQuantity": {
          "system": "http://unitsofmeasure.org",
          "value": 297.6,
          "unit": "fL",
          "code": "fL"
        },
        "referenceRange": [
          {
            "low": {
              "value": 15.5,
              "code": "fL",
              "system": "http://unitsofmeasure.org"
            }
          },
          {
            "high": {
              "value": 450,
              "code": "fL",
              "system": "http://unitsofmeasure.org"
            }
          }
        ],
        "text": {
          "status": "generated",
          "div": "<div xmlns=\"http://www.w3.org/1999/xhtml\"><table class=\"hl7__eu__lab__report\"><tr><th>Test</th><th>23-Mar-2016</th><th>Reference&#xA0;Range</th><th>Unit</th></tr><tr><td>Platelet distribution width [Entitic volume] in Blood by Automated count</td><td>297.6</td><td>15.5 - 450</td><td></td><td>fL</td></tr></table></div>"
        },
        "status": "final",
        "subject": {
          "reference": "urn:uuid:9897707a-4e36-4013-8a23-e7db85c25bd7",
          "display": "Maria Nohlmans"
        },
        "effectiveDateTime": "2016-03-23T11:02:39Z",
        "specimen": {
          "reference": "urn:uuid:4c6c6198-93b0-4012-b99e-53e82558016b"
        }
      }
    },
    {
      "fullUrl": "urn:uuid:7fbfaa2b-4fff-44e8-a33b-9e033de0ecd7",
      "resource": {
        "resourceType": "Observation",
        "id": "7fbfaa2b-4fff-44e8-a33b-9e033de0ecd7",
        "meta": {
          "profile": [
            "http://hl7.eu/fhir/laboratory/StructureDefinition/Observation-resultslab-eu-lab"
          ]
        },
        "performer": [
          {
            "display": "The Central European Lab"
          }
        ],
        "category": [
          {
            "coding": [
              {
                "system": "http://terminology.hl7.org/CodeSystem/observation-category",
                "code": "laboratory"
              }
            ]
          }
        ],
        "code": {
          "coding": [
            {
              "code": "32623-1",
              "system": "http://loinc.org",
              "display": "Platelet mean volume [Entitic volume] in Blood by Automated count"
            }
          ],
          "text": "Platelet mean volume [Entitic volume] in Blood by Automated count"
        },
        "valueQuantity": {
          "system": "http://unitsofmeasure.org",
          "value": 11.9,
          "unit": "fL",
          "code": "fL"
        },
        "referenceRange": [
          {
            "low": {
              "value": 7.2,
              "code": "fL",
              "system": "http://unitsofmeasure.org"
            }
          },
          {
            "high": {
              "value": 13.5,
              "code": "fL",
              "system": "http://unitsofmeasure.org"
            }
          }
        ],
        "text": {
          "status": "generated",
          "div": "<div xmlns=\"http://www.w3.org/1999/xhtml\"><table class=\"hl7__eu__lab__report\"><tr><th>Test</th><th>23-Mar-2016</th><th>Reference&#xA0;Range</th><th>Unit</th></tr><tr><td>Platelet mean volume [Entitic volume] in Blood by Automated count</td><td>11.9</td><td>7.2 - 13.5</td><td></td><td>fL</td></tr></table></div>"
        },
        "status": "final",
        "subject": {
          "reference": "urn:uuid:9897707a-4e36-4013-8a23-e7db85c25bd7",
          "display": "Maria Nohlmans"
        },
        "effectiveDateTime": "2016-03-23T11:02:39Z",
        "specimen": {
          "reference": "urn:uuid:4c6c6198-93b0-4012-b99e-53e82558016b"
        }
      }
    },
    {
      "fullUrl": "urn:uuid:4219b247-332c-4cbc-a6da-09a54160ac59",
      "resource": {
        "resourceType": "Device",
        "id": "4219b247-332c-4cbc-a6da-09a54160ac59",
        "deviceName": [
          {
            "name": "SYNDERAI Synthetic Generator",
            "type": "manufacturer-name"
          }
        ],
        "version": [
          {
            "value": "5.0"
          }
        ],
        "text": {
          "status": "generated",
          "div": "<div xmlns=\"http://www.w3.org/1999/xhtml\">SYNDERAI Synthetic Generator v5.0</div>"
        },
        "status": "active\"",
        "distinctIdentifier": "synderai-generator-50",
        "manufacturer": "SYNDERAI Project"
      }
    },
    {
      "fullUrl": "urn:uuid:db52760c-02df-41fe-b45e-393418782ea3",
      "resource": {
        "resourceType": "Provenance",
        "id": "db52760c-02df-41fe-b45e-393418782ea3",
        "target": [
          {
            "reference": "Patient/9897707a-4e36-4013-8a23-e7db85c25bd7"
          },
          {
            "reference": "Bundle/85aa00bb-9807-4cb0-a199-b1378237fbe2"
          },
          {
            "reference": "Composition/6f05c5ec-14de-4d78-95ab-d4d45addd89f"
          },
          {
            "reference": "PractitionerRole/bd991a57-c3a5-427e-9e30-3d406db37c49"
          },
          {
            "reference": "Practitioner/d5ec683e-05af-48c3-a0b0-c2bf02f379c7"
          },
          {
            "reference": "PractitionerRole/35c95872-e903-46d4-9653-5e4447c45066"
          },
          {
            "reference": "Organization/0834a100-6b88-4a40-b68c-b9406abb98ba"
          }
        ],
        "activity": {
          "text": "Synthetic Example Data Generation"
        },
        "policy": [
          "https://synderai.net/synderai-synthetic-data-policy"
        ],
        "agent": [
          {
            "type": {
              "text": "author"
            },
            "who": {
              "reference": "Device/4219b247-332c-4cbc-a6da-09a54160ac59"
            }
          }
        ],
        "reason": [
          {
            "text": "Interoperability Testing and Training (non-clinical use)"
          }
        ],
        "text": {
          "status": "generated",
          "div": "<div xmlns=\"http://www.w3.org/1999/xhtml\">Provenance for SYNDERAI Synthetic Example Data Resource</div>"
        },
        "recorded": "2016-03-23T12:02:39Z"
      }
    },
    {
      "fullUrl": "urn:uuid:bd991a57-c3a5-427e-9e30-3d406db37c49",
      "resource": {
        "resourceType": "PractitionerRole",
        "id": "bd991a57-c3a5-427e-9e30-3d406db37c49",
        "meta": {
          "profile": [
            "http://hl7.eu/fhir/base/StructureDefinition/practitionerRole-eu"
          ]
        },
        "text": {
          "status": "generated",
          "div": "<div xmlns=\"http://www.w3.org/1999/xhtml\">Laboratory Role Id: bd991a57-c3a5-427e-9e30-3d406db37c49</div>"
        },
        "practitioner": {
          "reference": "urn:uuid:d5ec683e-05af-48c3-a0b0-c2bf02f379c7"
        }
      }
    },
    {
      "fullUrl": "urn:uuid:d5ec683e-05af-48c3-a0b0-c2bf02f379c7",
      "resource": {
        "resourceType": "Practitioner",
        "id": "d5ec683e-05af-48c3-a0b0-c2bf02f379c7",
        "meta": {
          "profile": [
            "http://hl7.eu/fhir/base/StructureDefinition/practitioner-eu"
          ]
        },
        "identifier": [
          {
            "assigner": {
              "display": "HL7 Europe"
            },
            "system": "urn:oid:2.16.840.1.113883.2.51.999",
            "value": "3d0c8253-781f-46c4-b7ea-0d603deb8a4d"
          }
        ],
        "name": [
          {
            "prefix": [
              "dr"
            ],
            "given": [
              "Ex"
            ],
            "family": "Ample"
          }
        ],
        "address": [
          {
            "line": [
              "Laboratoire Central Européenne",
              "Boulevard du Jardin Botanique 32"
            ],
            "postalCode": "1000",
            "city": "Brussels",
            "country": "Belgium"
          }
        ],
        "text": {
          "status": "generated",
          "div": "<div xmlns=\"http://www.w3.org/1999/xhtml\">Laboratory: Laboratoire Central Européenne, 1000 Brussels, Belgium</div>"
        }
      }
    }
  ],
  "type": "document",
  "timestamp": "2016-03-23T12:02:39Z"
}
