{
  "resourceType": "Bundle",
  "id": "fb2b67aa-9c41-49ff-8d48-ddcf477c7eb6",
  "meta": {
    "profile": [
      "http://hl7.eu/fhir/laboratory/StructureDefinition/Bundle-eu-lab"
    ]
  },
  "identifier": {
    "assigner": {
      "display": "HL7 Europe"
    },
    "system": "urn:oid:2.16.840.1.113883.2.51.999",
    "value": "982afd45-5a26-4e90-ab91-bcc1c096f26b"
  },
  "entry": [
    {
      "fullUrl": "urn:uuid:9f7d7307-2302-49e9-8a60-d8371a993b16",
      "resource": {
        "resourceType": "Composition",
        "id": "9f7d7307-2302-49e9-8a60-d8371a993b16",
        "meta": {
          "profile": [
            "http://hl7.eu/fhir/laboratory/StructureDefinition/Composition-eu-lab"
          ]
        },
        "identifier": {
          "assigner": {
            "display": "HL7 Europe"
          },
          "system": "urn:oid:2.16.840.1.113883.2.51.999",
          "value": "17615968-2161-47f1-a054-6f4787356603"
        },
        "author": [
          {
            "reference": "urn:uuid:4806403a-efbe-47b5-ad41-24c6c4b622fa"
          }
        ],
        "category": [
          {
            "coding": [
              {
                "code": "26436-6",
                "system": "http://loinc.org",
                "display": "Laboratory studies (set)"
              }
            ]
          }
        ],
        "type": {
          "coding": [
            {
              "code": "11502-2",
              "system": "http://loinc.org",
              "display": "Laboratory report"
            }
          ],
          "text": "Laboratory Report"
        },
        "section": [
          {
            "code": {
              "coding": [
                {
                  "code": "26436-6",
                  "system": "http://loinc.org",
                  "display": "Laboratory studies (set)"
                }
              ],
              "text": "Laboratory studies"
            },
            "section": [
              {
                "code": {
                  "coding": [
                    {
                      "code": "$18719-5",
                      "system": "http://loinc.org",
                      "display": "Chemistry studies (set)"
                    }
                  ],
                  "text": "Chemistry"
                },
                "entry": [
                  {
                    "reference": "urn:uuid:0e882fd3-9b07-4fb3-ae4b-00c1ffa74ceb"
                  },
                  {
                    "reference": "urn:uuid:e751eb71-f2aa-48a0-bbaa-2da33da6dcb3"
                  },
                  {
                    "reference": "urn:uuid:cffd7a19-fd4d-4414-8025-8335314681d9"
                  },
                  {
                    "reference": "urn:uuid:8191c045-9407-4a9b-934f-cd4fb4e78409"
                  },
                  {
                    "reference": "urn:uuid:ab0a8bb0-ed3a-4e43-90e5-6fec6e2091f5"
                  },
                  {
                    "reference": "urn:uuid:a63160ae-3d64-4436-a36e-dfa526c44bc6"
                  },
                  {
                    "reference": "urn:uuid:20484535-93a4-448f-929f-cbba00d01db3"
                  },
                  {
                    "reference": "urn:uuid:563ec513-cabe-44c3-8be8-ef162b0f571b"
                  },
                  {
                    "reference": "urn:uuid:84516fe2-999b-45e7-9848-6d35a74b4ed6"
                  },
                  {
                    "reference": "urn:uuid:44e09720-f292-41d1-bf67-3ff5760dcffd"
                  },
                  {
                    "reference": "urn:uuid:59c2e51b-9654-4196-ae46-f7eee0ce57e2"
                  },
                  {
                    "reference": "urn:uuid:c3b4081a-8e49-44c1-b25f-8bb5677d04da"
                  },
                  {
                    "reference": "urn:uuid:7960a41c-eb22-4e09-9a73-257392b247fa"
                  },
                  {
                    "reference": "urn:uuid:73e715c7-eaff-4ffa-832c-fd9c5f68f7f0"
                  },
                  {
                    "reference": "urn:uuid:d8019dea-4af3-42de-a1af-f8b5417075b7"
                  },
                  {
                    "reference": "urn:uuid:021817d0-67d0-4ee4-80fa-2231df753768"
                  },
                  {
                    "reference": "urn:uuid:a70750bf-a34d-4c00-b485-f963d027c03b"
                  },
                  {
                    "reference": "urn:uuid:09a886ea-1f3a-4aa5-86e6-2e7afa742992"
                  }
                ],
                "text": {
                  "status": "generated",
                  "div": "<div xmlns=\"http://www.w3.org/1999/xhtml\"><h3>Chemistry</h3><table class=\"hl7__eu__lab__report\"><thead><tr><th>Test</th><th>08-MAR-2017</th><th>Reference&#xA0;Range</th><th>Unit</th></tr></thead><tbody><tr><td>Glucose [Mass/volume] in Serum or Plasma</td><td>72.5</td><td>70 - 140</td><td>mg/dL</td></tr><tr><td>Urea nitrogen [Mass/volume] in Serum or Plasma</td><td>9.8</td><td>7 - 20</td><td>mg/dL</td></tr><tr><td>Creatinine [Mass/volume] in Serum or Plasma</td><td><strong>2.3 H</strong></td><td>0.6 - 1.3</td><td>mg/dL</td></tr><tr><td>Calcium [Mass/volume] in Serum or Plasma</td><td>9.0</td><td>8.6 - 10.4</td><td>mg/dL</td></tr><tr><td>Sodium [Moles/volume] in Serum or Plasma</td><td>139.5</td><td>135 - 145</td><td>mmol/L</td></tr><tr><td>Potassium [Moles/volume] in Serum or Plasma</td><td>4.0</td><td>3.5 - 5.1</td><td>mmol/L</td></tr><tr><td>Chloride [Moles/volume] in Serum or Plasma</td><td>107.4</td><td>98 - 108</td><td>mmol/L</td></tr><tr><td>Carbon dioxide, total [Moles/volume] in Serum or Plasma</td><td>23.5</td><td>22 - 32</td><td>mmol/L</td></tr><tr><td>Ketones [Presence] in Urine by Test strip</td><td>Urine ketone test = +++</td><td></td><td></td></tr><tr><td>Hemoglobin A1c/Hemoglobin.total in Blood</td><td><strong>3.1 L</strong></td><td>4.5 - 6.4</td><td>%</td></tr><tr><td>Glucose [Mass/volume] in Blood</td><td>72.5</td><td>70 - 140</td><td>mg/dL</td></tr><tr><td>Urea nitrogen [Mass/volume] in Blood</td><td>9.8</td><td>7 - 30</td><td>mg/dL</td></tr><tr><td>Creatinine [Mass/volume] in Blood</td><td><strong>4.7 H</strong></td><td>0.5 - 1.3</td><td>mg/dL</td></tr><tr><td>Calcium [Mass/volume] in Blood</td><td>9.0</td><td>8.6 - 10.2</td><td>mg/dL</td></tr><tr><td>Sodium [Moles/volume] in Blood</td><td>139.5</td><td>135 - 145</td><td>mmol/L</td></tr><tr><td>Potassium [Moles/volume] in Blood</td><td>4.0</td><td>3.5 - 5.1</td><td>mmol/L</td></tr><tr><td>Chloride [Moles/volume] in Blood</td><td>107.4</td><td>98 - 114</td><td>mmol/L</td></tr><tr><td>Carbon dioxide, total [Moles/volume] in Blood</td><td>23.5</td><td>22 - 32</td><td>mmol/L</td></tr></tbody></table></div>"
                },
                "title": "Chemistry"
              },
              {
                "code": {
                  "coding": [
                    {
                      "code": "$18729-4",
                      "system": "http://loinc.org",
                      "display": "Urinalysis studies (set)"
                    }
                  ],
                  "text": "Urinalysis"
                },
                "entry": [
                  {
                    "reference": "urn:uuid:17a32937-9510-4349-9cb3-5bfaca351c95"
                  },
                  {
                    "reference": "urn:uuid:d52dc770-9649-46c0-8472-b3e7d43d72f2"
                  },
                  {
                    "reference": "urn:uuid:ae9a0922-164d-414e-abd7-ac9f7fa03ea4"
                  },
                  {
                    "reference": "urn:uuid:a54b0b3b-21b4-423f-a688-03a545dae5cc"
                  },
                  {
                    "reference": "urn:uuid:bd7433fd-83a0-40a3-9a0f-fce337122ca1"
                  },
                  {
                    "reference": "urn:uuid:e06060f8-94dc-4fa3-a149-38bc1b48e0c3"
                  },
                  {
                    "reference": "urn:uuid:526fa1f0-3819-42f1-9fda-04e3d11909dd"
                  },
                  {
                    "reference": "urn:uuid:0b65d2bd-90ad-4348-a3ec-b31434df8961"
                  },
                  {
                    "reference": "urn:uuid:71c59dc1-31f5-4d8a-bf51-d0540884b09d"
                  },
                  {
                    "reference": "urn:uuid:651c35e3-6f51-4ea1-9da5-823647659300"
                  },
                  {
                    "reference": "urn:uuid:e585608b-05d8-470e-a2d2-4889d111b6d8"
                  },
                  {
                    "reference": "urn:uuid:3281d238-4e67-47ab-b24c-3fdbe9f6a7b3"
                  }
                ],
                "text": {
                  "status": "generated",
                  "div": "<div xmlns=\"http://www.w3.org/1999/xhtml\"><h3>Urinalysis</h3><table class=\"hl7__eu__lab__report\"><thead><tr><th>Test</th><th>08-MAR-2017</th><th>Reference&#xA0;Range</th><th>Unit</th></tr></thead><tbody><tr><td>Glucose [Mass/volume] in Urine by Test strip</td><td><strong>0.7 L</strong></td><td>0.8 - 0</td><td>mg/dL</td></tr><tr><td>Glucose [Presence] in Urine by Test strip</td><td>++</td><td></td><td></td></tr><tr><td>Bilirubin.total [Mass/volume] in Urine by Test strip</td><td>0.5</td><td>0 - 1.5</td><td>mg/dL</td></tr><tr><td>Bilirubin.total [Presence] in Urine by Test strip</td><td>Finding of bilirubin in urine</td><td></td><td></td></tr><tr><td>Ketones [Mass/volume] in Urine by Test strip</td><td><strong>19.5 H</strong></td><td>0 - 8</td><td>mg/dL</td></tr><tr><td>Specific gravity of Urine by Test strip</td><td><strong>1.0 L</strong></td><td>1.01 - 1.03</td><td>{nominal}</td></tr><tr><td>pH of Urine by Test strip</td><td>6.6</td><td>4.6 - 7.5</td><td>pH</td></tr><tr><td>Protein [Mass/volume] in Urine by Test strip</td><td><strong>383.2 H</strong></td><td>0 - 14</td><td>mg/dL</td></tr><tr><td>Protein [Presence] in Urine by Test strip</td><td>Urine protein test = +++</td><td></td><td></td></tr><tr><td>Nitrite [Presence] in Urine by Test strip</td><td>Urine nitrite negative</td><td></td><td></td></tr><tr><td>Hemoglobin [Presence] in Urine by Test strip</td><td>Urine blood test = negative</td><td></td><td></td></tr><tr><td>Leukocyte esterase [Presence] in Urine by Test strip</td><td>Urine leukocyte test negative</td><td></td><td></td></tr></tbody></table></div>"
                },
                "title": "Urinalysis"
              },
              {
                "code": {
                  "coding": [
                    {
                      "code": "$LP7846-1",
                      "system": "http://loinc.org",
                      "display": "Specimen information"
                    }
                  ],
                  "text": "Specimen information"
                },
                "entry": [
                  {
                    "reference": "urn:uuid:b2ff8032-9011-405e-b99c-d306beb78aa1"
                  },
                  {
                    "reference": "urn:uuid:e94b76d2-2e1f-4a28-a075-913f56bc3278"
                  },
                  {
                    "reference": "urn:uuid:3a909875-9e71-4f09-b167-ef8e371b4e5a"
                  },
                  {
                    "reference": "urn:uuid:85cc45e9-ff2e-4a07-8c89-b1349c3d1e90"
                  }
                ],
                "text": {
                  "status": "generated",
                  "div": "<div xmlns=\"http://www.w3.org/1999/xhtml\"><h3>Specimen information</h3><table class=\"hl7__eu__lab__report\"><thead><tr><th>Test</th><th>08-MAR-2017</th><th>Specimen</th><th></th></tr></thead><tbody><tr><td>Appearance of Urine</td><td>Cloudy urine</td><td>Urine</td><td></td></tr><tr><td>Odor of Urine</td><td>Urine smell ammoniacal</td><td>Urine</td><td></td></tr><tr><td>Clarity of Urine</td><td>Translucent</td><td>Urine</td><td></td></tr><tr><td>Color of Urine</td><td>Brown color</td><td>Urine</td><td></td></tr></tbody></table></div>"
                },
                "title": "Specimen information"
              }
            ],
            "title": "Laboratory Report"
          },
          {
            "text": {
              "status": "generated",
              "div": "<div xmlns=\"http://www.w3.org/1999/xhtml\"><h3>Annotation</h3><table class=\"hl7__eu__lab__report\"><tr><th>Conclusion and Recommendations based on this report and previous findings known to us</th></tr><tr><td>The patient shows markedly elevated creatinine, significant proteinuria, and high urinary ketones, suggesting acute or chronic renal dysfunction with possible nephrotic-range proteinuria and ketosis. Urine is brown, cloudy, and has low specific gravity, indicating possible renal concentrating defect. Blood glucose and HbA1c are low, arguing against diabetes. No evidence of urinary infection. Recommend urgent nephrology evaluation for renal impairment and further assessment of proteinuria and ketonuria.</td></tr></table></div>"
            },
            "code": {
              "coding": [
                {
                  "system": "http://loinc.org",
                  "code": "48767-8",
                  "display": "Annotation comment"
                }
              ]
            },
            "title": "Annotation comment"
          }
        ],
        "status": "final",
        "subject": {
          "reference": "urn:uuid:dfb58571-1ad1-4868-ab6f-515b0e35e690",
          "display": "Maria Nohlmans"
        },
        "date": "2017-03-08T12:02:39Z",
        "title": "Laboratory Report",
        "confidentiality": "N"
      }
    },
    {
      "fullUrl": "urn:uuid:ff1477a7-d37d-4021-8dd8-ff398d1f72dd",
      "resource": {
        "resourceType": "DiagnosticReport",
        "id": "ff1477a7-d37d-4021-8dd8-ff398d1f72dd",
        "meta": {
          "profile": [
            "http://hl7.eu/fhir/laboratory/StructureDefinition/DiagnosticReport-eu-lab"
          ]
        },
        "identifier": [
          {
            "assigner": {
              "display": "HL7 Europe"
            },
            "system": "urn:oid:2.16.840.1.113883.2.51.999",
            "value": "fd94094b-27b1-4eed-a204-43b2891a7caa"
          }
        ],
        "extension": [
          {
            "url": "http://hl7.org/fhir/5.0/StructureDefinition/extension-DiagnosticReport.composition",
            "valueReference": {
              "reference": "urn:uuid:17615968-2161-47f1-a054-6f4787356603"
            }
          }
        ],
        "category": [
          {
            "coding": [
              {
                "code": "26436-6",
                "system": "http://loinc.org",
                "display": "Laboratory studies (set)"
              }
            ]
          }
        ],
        "specimen": [
          {
            "reference": "urn:uuid:44b65db7-15fc-40fc-92db-1418a61603cd"
          },
          {
            "reference": "urn:uuid:654d29aa-0f6e-4a9f-843d-37e5b8d922ae"
          },
          {
            "reference": "urn:uuid:a82cb54f-93f0-493c-b184-54888539ae64"
          }
        ],
        "result": [
          {
            "reference": "urn:uuid:0e882fd3-9b07-4fb3-ae4b-00c1ffa74ceb"
          },
          {
            "reference": "urn:uuid:e751eb71-f2aa-48a0-bbaa-2da33da6dcb3"
          },
          {
            "reference": "urn:uuid:cffd7a19-fd4d-4414-8025-8335314681d9"
          },
          {
            "reference": "urn:uuid:8191c045-9407-4a9b-934f-cd4fb4e78409"
          },
          {
            "reference": "urn:uuid:ab0a8bb0-ed3a-4e43-90e5-6fec6e2091f5"
          },
          {
            "reference": "urn:uuid:a63160ae-3d64-4436-a36e-dfa526c44bc6"
          },
          {
            "reference": "urn:uuid:20484535-93a4-448f-929f-cbba00d01db3"
          },
          {
            "reference": "urn:uuid:563ec513-cabe-44c3-8be8-ef162b0f571b"
          },
          {
            "reference": "urn:uuid:b2ff8032-9011-405e-b99c-d306beb78aa1"
          },
          {
            "reference": "urn:uuid:e94b76d2-2e1f-4a28-a075-913f56bc3278"
          },
          {
            "reference": "urn:uuid:3a909875-9e71-4f09-b167-ef8e371b4e5a"
          },
          {
            "reference": "urn:uuid:85cc45e9-ff2e-4a07-8c89-b1349c3d1e90"
          },
          {
            "reference": "urn:uuid:17a32937-9510-4349-9cb3-5bfaca351c95"
          },
          {
            "reference": "urn:uuid:d52dc770-9649-46c0-8472-b3e7d43d72f2"
          },
          {
            "reference": "urn:uuid:ae9a0922-164d-414e-abd7-ac9f7fa03ea4"
          },
          {
            "reference": "urn:uuid:a54b0b3b-21b4-423f-a688-03a545dae5cc"
          },
          {
            "reference": "urn:uuid:bd7433fd-83a0-40a3-9a0f-fce337122ca1"
          },
          {
            "reference": "urn:uuid:84516fe2-999b-45e7-9848-6d35a74b4ed6"
          },
          {
            "reference": "urn:uuid:e06060f8-94dc-4fa3-a149-38bc1b48e0c3"
          },
          {
            "reference": "urn:uuid:526fa1f0-3819-42f1-9fda-04e3d11909dd"
          },
          {
            "reference": "urn:uuid:0b65d2bd-90ad-4348-a3ec-b31434df8961"
          },
          {
            "reference": "urn:uuid:71c59dc1-31f5-4d8a-bf51-d0540884b09d"
          },
          {
            "reference": "urn:uuid:651c35e3-6f51-4ea1-9da5-823647659300"
          },
          {
            "reference": "urn:uuid:e585608b-05d8-470e-a2d2-4889d111b6d8"
          },
          {
            "reference": "urn:uuid:3281d238-4e67-47ab-b24c-3fdbe9f6a7b3"
          },
          {
            "reference": "urn:uuid:44e09720-f292-41d1-bf67-3ff5760dcffd"
          },
          {
            "reference": "urn:uuid:59c2e51b-9654-4196-ae46-f7eee0ce57e2"
          },
          {
            "reference": "urn:uuid:c3b4081a-8e49-44c1-b25f-8bb5677d04da"
          },
          {
            "reference": "urn:uuid:7960a41c-eb22-4e09-9a73-257392b247fa"
          },
          {
            "reference": "urn:uuid:73e715c7-eaff-4ffa-832c-fd9c5f68f7f0"
          },
          {
            "reference": "urn:uuid:d8019dea-4af3-42de-a1af-f8b5417075b7"
          },
          {
            "reference": "urn:uuid:021817d0-67d0-4ee4-80fa-2231df753768"
          },
          {
            "reference": "urn:uuid:a70750bf-a34d-4c00-b485-f963d027c03b"
          },
          {
            "reference": "urn:uuid:09a886ea-1f3a-4aa5-86e6-2e7afa742992"
          }
        ],
        "status": "registered",
        "code": {
          "coding": [
            {
              "code": "11502-2",
              "system": "http://loinc.org",
              "display": "Laboratory report"
            }
          ]
        },
        "subject": {
          "reference": "urn:uuid:dfb58571-1ad1-4868-ab6f-515b0e35e690",
          "display": "Maria Nohlmans"
        }
      }
    },
    {
      "fullUrl": "urn:uuid:dfb58571-1ad1-4868-ab6f-515b0e35e690",
      "resource": {
        "resourceType": "Patient",
        "id": "dfb58571-1ad1-4868-ab6f-515b0e35e690",
        "meta": {
          "security": [
            {
              "system": "http://terminology.hl7.org/CodeSystem/v3-ActReason",
              "code": "HTEST"
            },
            {
              "system": "http://terminology.hl7.org/CodeSystem/v3-ActReason",
              "code": "TRAIN"
            }
          ],
          "tag": [
            {
              "system": "https://synderai.net/fhir/CodeSystem/tags",
              "code": "synthetic",
              "display": "SYNDERAI Synthetic data"
            }
          ],
          "profile": [
            "http://hl7.eu/fhir/base/StructureDefinition/patient-eu-core"
          ]
        },
        "identifier": [
          {
            "type": {
              "coding": [
                {
                  "code": "PT",
                  "system": "http://terminology.hl7.org/CodeSystem/v2-0203"
                }
              ]
            },
            "system": "http://ec.europa.eu/identifier/eci",
            "value": "6886-506417-1"
          },
          {
            "type": {
              "coding": [
                {
                  "code": "MR",
                  "system": "http://terminology.hl7.org/CodeSystem/v2-0203"
                }
              ]
            },
            "system": "http://local.setting.eu/identifier",
            "value": "2cb21ed6-b617-b1f3-2290-589a710de5ee"
          }
        ],
        "name": [
          {
            "family": "Nohlmans"
          },
          {
            "given": [
              "Maria"
            ]
          },
          {
            "text": "Maria Nohlmans"
          }
        ],
        "address": [
          {
            "line": [
              "Alfons-Wulff-Weg 1"
            ],
            "use": "home",
            "type": "physical",
            "postalCode": "25813",
            "city": "Husum",
            "country": "Germany"
          }
        ],
        "telecom": [
          {
            "system": "phone",
            "value": "+49(0)1911 105501"
          }
        ],
        "extension": [
          {
            "url": "http://hl7.org/fhir/StructureDefinition/patient-nationality",
            "valueCodeableConcept": {
              "coding": [
                {
                  "code": "DE",
                  "system": "http://hl7.org/fhir/ValueSet/country"
                }
              ]
            }
          }
        ],
        "text": {
          "status": "generated",
          "div": "<div xmlns=\"http://www.w3.org/1999/xhtml\"><table class=\"hl7__ips\"><tr><td>Maria Nohlmans</td><td>female</td><td>11-Jun-1947</td></tr></table></div>"
        },
        "gender": "female",
        "birthDate": "1947-06-11"
      }
    },
    {
      "fullUrl": "urn:uuid:01b1d615-27a8-4cfa-85b3-83c08a5d1d87",
      "resource": {
        "resourceType": "ServiceRequest",
        "id": "01b1d615-27a8-4cfa-85b3-83c08a5d1d87",
        "meta": {
          "profile": [
            "http://hl7.eu/fhir/laboratory/StructureDefinition/ServiceRequest-eu-lab"
          ]
        },
        "identifier": [
          {
            "system": "http://example.org",
            "value": "0a4e9978-3cd5-4123-952e-a110d4da5d3e"
          }
        ],
        "specimen": [
          {
            "reference": "urn:uuid:44b65db7-15fc-40fc-92db-1418a61603cd"
          },
          {
            "reference": "urn:uuid:654d29aa-0f6e-4a9f-843d-37e5b8d922ae"
          },
          {
            "reference": "urn:uuid:a82cb54f-93f0-493c-b184-54888539ae64"
          }
        ],
        "reasonCode": [
          {
            "coding": [
              {
                "code": "401314000",
                "system": "http://snomed.info/sct",
                "display": "Acute non-ST segment elevation myocardial infarction"
              }
            ]
          },
          {
            "coding": [
              {
                "code": "157141000119108",
                "system": "http://snomed.info/sct",
                "display": "Proteinuria due to type 2 diabetes mellitus"
              }
            ]
          },
          {
            "coding": [
              {
                "code": "237602007",
                "system": "http://snomed.info/sct",
                "display": "Metabolic syndrome X"
              }
            ]
          },
          {
            "coding": [
              {
                "code": "90781000119102",
                "system": "http://snomed.info/sct",
                "display": "Microalbuminuria due to type 2 diabetes mellitus"
              }
            ]
          },
          {
            "coding": [
              {
                "code": "127013003",
                "system": "http://snomed.info/sct",
                "display": "Disorder of kidney due to diabetes mellitus"
              }
            ]
          },
          {
            "coding": [
              {
                "code": "59621000",
                "system": "http://snomed.info/sct",
                "display": "Essential hypertension"
              }
            ]
          },
          {
            "coding": [
              {
                "code": "271737000",
                "system": "http://snomed.info/sct",
                "display": "Anemia"
              }
            ]
          },
          {
            "coding": [
              {
                "code": "15777000",
                "system": "http://snomed.info/sct",
                "display": "Prediabetes"
              }
            ]
          }
        ],
        "status": "active",
        "intent": "order",
        "code": {
          "coding": [
            {
              "code": "108252007",
              "system": "http://snomed.info/sct",
              "display": "Laboratory procedure"
            }
          ]
        },
        "subject": {
          "reference": "urn:uuid:dfb58571-1ad1-4868-ab6f-515b0e35e690",
          "display": "Maria Nohlmans"
        },
        "requester": {
          "reference": "urn:uuid:0640bcab-8571-416f-bfcf-4f371c61e358"
        }
      }
    },
    {
      "fullUrl": "urn:uuid:0640bcab-8571-416f-bfcf-4f371c61e358",
      "resource": {
        "resourceType": "PractitionerRole",
        "id": "0640bcab-8571-416f-bfcf-4f371c61e358",
        "meta": {
          "profile": [
            "http://hl7.eu/fhir/base/StructureDefinition/practitionerRole-eu"
          ]
        },
        "text": {
          "status": "generated",
          "div": "<div xmlns=\"http://www.w3.org/1999/xhtml\">Provider Role Id: 0640bcab-8571-416f-bfcf-4f371c61e358</div>"
        },
        "organization": {
          "reference": "urn:uuid:e888b564-3156-4f84-a23d-1fe8a496a10c"
        }
      }
    },
    {
      "fullUrl": "urn:uuid:e888b564-3156-4f84-a23d-1fe8a496a10c",
      "resource": {
        "resourceType": "Organization",
        "id": "e888b564-3156-4f84-a23d-1fe8a496a10c",
        "meta": {
          "profile": [
            "http://hl7.eu/fhir/base/StructureDefinition/organization-eu"
          ]
        },
        "identifier": [
          {
            "assigner": {
              "display": "HL7 Europe"
            },
            "system": "urn:oid:2.16.840.1.113883.2.51.999",
            "value": "0aa234ca-182b-4bd0-a6cc-11034041c4d6"
          }
        ],
        "address": [
          {
            "line": [
              "Brinckmannstraße 35"
            ],
            "city": "Husum",
            "postalCode": "25813",
            "country": "Germany"
          }
        ],
        "text": {
          "status": "generated",
          "div": "<div xmlns=\"http://www.w3.org/1999/xhtml\">Provider Organization: Dr. Wolfram Hussels Kieferorthopäde</div>"
        },
        "name": "Dr. Wolfram Hussels Kieferorthopäde"
      }
    },
    {
      "fullUrl": "urn:uuid:44b65db7-15fc-40fc-92db-1418a61603cd",
      "resource": {
        "resourceType": "Specimen",
        "id": "44b65db7-15fc-40fc-92db-1418a61603cd",
        "meta": {
          "profile": [
            "http://hl7.eu/fhir/laboratory/StructureDefinition/Specimen-eu-lab"
          ]
        },
        "collection": {
          "collectedDateTime": "2017-03-08"
        },
        "text": {
          "status": "generated",
          "div": "<div xmlns=\"http://www.w3.org/1999/xhtml\"><table class=\"hl7__eu__lab__report\"><tr><th>Specimen</th><th>Collection Date</th></tr><tr><td>Acellular blood (serum or plasma) specimen</td><td><span class=\"nb\">08-Mar-2017</span></td></tr></table></div>"
        },
        "type": {
          "coding": [
            {
              "code": "122592007",
              "system": "http://snomed.info/sct",
              "display": "Acellular blood (serum or plasma) specimen"
            }
          ]
        }
      }
    },
    {
      "fullUrl": "urn:uuid:654d29aa-0f6e-4a9f-843d-37e5b8d922ae",
      "resource": {
        "resourceType": "Specimen",
        "id": "654d29aa-0f6e-4a9f-843d-37e5b8d922ae",
        "meta": {
          "profile": [
            "http://hl7.eu/fhir/laboratory/StructureDefinition/Specimen-eu-lab"
          ]
        },
        "collection": {
          "collectedDateTime": "2017-03-08"
        },
        "text": {
          "status": "generated",
          "div": "<div xmlns=\"http://www.w3.org/1999/xhtml\"><table class=\"hl7__eu__lab__report\"><tr><th>Specimen</th><th>Collection Date</th></tr><tr><td>Urine specimen</td><td><span class=\"nb\">08-Mar-2017</span></td></tr></table></div>"
        },
        "type": {
          "coding": [
            {
              "code": "122575003",
              "system": "http://snomed.info/sct",
              "display": "Urine specimen"
            }
          ]
        }
      }
    },
    {
      "fullUrl": "urn:uuid:a82cb54f-93f0-493c-b184-54888539ae64",
      "resource": {
        "resourceType": "Specimen",
        "id": "a82cb54f-93f0-493c-b184-54888539ae64",
        "meta": {
          "profile": [
            "http://hl7.eu/fhir/laboratory/StructureDefinition/Specimen-eu-lab"
          ]
        },
        "collection": {
          "collectedDateTime": "2017-03-08"
        },
        "text": {
          "status": "generated",
          "div": "<div xmlns=\"http://www.w3.org/1999/xhtml\"><table class=\"hl7__eu__lab__report\"><tr><th>Specimen</th><th>Collection Date</th></tr><tr><td>Whole blood specimen (specimen)</td><td><span class=\"nb\">08-Mar-2017</span></td></tr></table></div>"
        },
        "type": {
          "coding": [
            {
              "code": "258580003",
              "system": "http://snomed.info/sct",
              "display": "Whole blood specimen (specimen)"
            }
          ]
        }
      }
    },
    {
      "fullUrl": "urn:uuid:0e882fd3-9b07-4fb3-ae4b-00c1ffa74ceb",
      "resource": {
        "resourceType": "Observation",
        "id": "0e882fd3-9b07-4fb3-ae4b-00c1ffa74ceb",
        "meta": {
          "profile": [
            "http://hl7.eu/fhir/laboratory/StructureDefinition/Observation-resultslab-eu-lab"
          ]
        },
        "performer": [
          {
            "display": "The Central European Lab"
          }
        ],
        "category": [
          {
            "coding": [
              {
                "system": "http://terminology.hl7.org/CodeSystem/observation-category",
                "code": "laboratory"
              }
            ]
          }
        ],
        "code": {
          "coding": [
            {
              "code": "2345-7",
              "system": "http://loinc.org",
              "display": "Glucose [Mass/volume] in Serum or Plasma"
            }
          ],
          "text": "Glucose [Mass/volume] in Serum or Plasma"
        },
        "valueQuantity": {
          "system": "http://unitsofmeasure.org",
          "value": 72.5,
          "unit": "mg/dL",
          "code": "mg/dL"
        },
        "referenceRange": [
          {
            "low": {
              "value": 70,
              "code": "mg/dL",
              "system": "http://unitsofmeasure.org"
            }
          },
          {
            "high": {
              "value": 140,
              "code": "mg/dL",
              "system": "http://unitsofmeasure.org"
            }
          }
        ],
        "text": {
          "status": "generated",
          "div": "<div xmlns=\"http://www.w3.org/1999/xhtml\"><table class=\"hl7__eu__lab__report\"><tr><th>Test</th><th>08-Mar-2017</th><th>Reference&#xA0;Range</th><th>Unit</th></tr><tr><td>Glucose [Mass/volume] in Serum or Plasma</td><td>72.5</td><td>70 - 140</td><td></td><td>mg/dL</td></tr></table></div>"
        },
        "status": "final",
        "subject": {
          "reference": "urn:uuid:dfb58571-1ad1-4868-ab6f-515b0e35e690",
          "display": "Maria Nohlmans"
        },
        "effectiveDateTime": "2017-03-08T11:02:39Z",
        "specimen": {
          "reference": "urn:uuid:44b65db7-15fc-40fc-92db-1418a61603cd"
        }
      }
    },
    {
      "fullUrl": "urn:uuid:e751eb71-f2aa-48a0-bbaa-2da33da6dcb3",
      "resource": {
        "resourceType": "Observation",
        "id": "e751eb71-f2aa-48a0-bbaa-2da33da6dcb3",
        "meta": {
          "profile": [
            "http://hl7.eu/fhir/laboratory/StructureDefinition/Observation-resultslab-eu-lab"
          ]
        },
        "performer": [
          {
            "display": "The Central European Lab"
          }
        ],
        "category": [
          {
            "coding": [
              {
                "system": "http://terminology.hl7.org/CodeSystem/observation-category",
                "code": "laboratory"
              }
            ]
          }
        ],
        "code": {
          "coding": [
            {
              "code": "3094-0",
              "system": "http://loinc.org",
              "display": "Urea nitrogen [Mass/volume] in Serum or Plasma"
            }
          ],
          "text": "Urea nitrogen [Mass/volume] in Serum or Plasma"
        },
        "valueQuantity": {
          "system": "http://unitsofmeasure.org",
          "value": 9.8,
          "unit": "mg/dL",
          "code": "mg/dL"
        },
        "referenceRange": [
          {
            "low": {
              "value": 7,
              "code": "mg/dL",
              "system": "http://unitsofmeasure.org"
            }
          },
          {
            "high": {
              "value": 20,
              "code": "mg/dL",
              "system": "http://unitsofmeasure.org"
            }
          }
        ],
        "text": {
          "status": "generated",
          "div": "<div xmlns=\"http://www.w3.org/1999/xhtml\"><table class=\"hl7__eu__lab__report\"><tr><th>Test</th><th>08-Mar-2017</th><th>Reference&#xA0;Range</th><th>Unit</th></tr><tr><td>Urea nitrogen [Mass/volume] in Serum or Plasma</td><td>9.8</td><td>7 - 20</td><td></td><td>mg/dL</td></tr></table></div>"
        },
        "status": "final",
        "subject": {
          "reference": "urn:uuid:dfb58571-1ad1-4868-ab6f-515b0e35e690",
          "display": "Maria Nohlmans"
        },
        "effectiveDateTime": "2017-03-08T11:02:39Z",
        "specimen": {
          "reference": "urn:uuid:44b65db7-15fc-40fc-92db-1418a61603cd"
        }
      }
    },
    {
      "fullUrl": "urn:uuid:cffd7a19-fd4d-4414-8025-8335314681d9",
      "resource": {
        "resourceType": "Observation",
        "id": "cffd7a19-fd4d-4414-8025-8335314681d9",
        "meta": {
          "profile": [
            "http://hl7.eu/fhir/laboratory/StructureDefinition/Observation-resultslab-eu-lab"
          ]
        },
        "performer": [
          {
            "display": "The Central European Lab"
          }
        ],
        "category": [
          {
            "coding": [
              {
                "system": "http://terminology.hl7.org/CodeSystem/observation-category",
                "code": "laboratory"
              }
            ]
          }
        ],
        "code": {
          "coding": [
            {
              "code": "2160-0",
              "system": "http://loinc.org",
              "display": "Creatinine [Mass/volume] in Serum or Plasma"
            }
          ],
          "text": "Creatinine [Mass/volume] in Serum or Plasma"
        },
        "valueQuantity": {
          "system": "http://unitsofmeasure.org",
          "value": 2.3,
          "unit": "mg/dL",
          "code": "mg/dL"
        },
        "referenceRange": [
          {
            "low": {
              "value": 0.6,
              "code": "mg/dL",
              "system": "http://unitsofmeasure.org"
            }
          },
          {
            "high": {
              "value": 1.3,
              "code": "mg/dL",
              "system": "http://unitsofmeasure.org"
            }
          }
        ],
        "interpretation": [
          {
            "coding": [
              {
                "code": "H",
                "system": "http://terminology.hl7.org/CodeSystem/v3-ObservationInterpretation",
                "display": "High"
              }
            ]
          }
        ],
        "text": {
          "status": "generated",
          "div": "<div xmlns=\"http://www.w3.org/1999/xhtml\"><table class=\"hl7__eu__lab__report\"><tr><th>Test</th><th>08-Mar-2017</th><th>Reference&#xA0;Range</th><th>Unit</th></tr><tr><td>Creatinine [Mass/volume] in Serum or Plasma</td><td>2.3</td><td>0.6 - 1.3</td><td>H</td><td>mg/dL</td></tr></table></div>"
        },
        "status": "final",
        "subject": {
          "reference": "urn:uuid:dfb58571-1ad1-4868-ab6f-515b0e35e690",
          "display": "Maria Nohlmans"
        },
        "effectiveDateTime": "2017-03-08T11:02:39Z",
        "specimen": {
          "reference": "urn:uuid:44b65db7-15fc-40fc-92db-1418a61603cd"
        }
      }
    },
    {
      "fullUrl": "urn:uuid:8191c045-9407-4a9b-934f-cd4fb4e78409",
      "resource": {
        "resourceType": "Observation",
        "id": "8191c045-9407-4a9b-934f-cd4fb4e78409",
        "meta": {
          "profile": [
            "http://hl7.eu/fhir/laboratory/StructureDefinition/Observation-resultslab-eu-lab"
          ]
        },
        "performer": [
          {
            "display": "The Central European Lab"
          }
        ],
        "category": [
          {
            "coding": [
              {
                "system": "http://terminology.hl7.org/CodeSystem/observation-category",
                "code": "laboratory"
              }
            ]
          }
        ],
        "code": {
          "coding": [
            {
              "code": "17861-6",
              "system": "http://loinc.org",
              "display": "Calcium [Mass/volume] in Serum or Plasma"
            }
          ],
          "text": "Calcium [Mass/volume] in Serum or Plasma"
        },
        "valueQuantity": {
          "system": "http://unitsofmeasure.org",
          "value": 9,
          "unit": "mg/dL",
          "code": "mg/dL"
        },
        "referenceRange": [
          {
            "low": {
              "value": 8.6,
              "code": "mg/dL",
              "system": "http://unitsofmeasure.org"
            }
          },
          {
            "high": {
              "value": 10.4,
              "code": "mg/dL",
              "system": "http://unitsofmeasure.org"
            }
          }
        ],
        "text": {
          "status": "generated",
          "div": "<div xmlns=\"http://www.w3.org/1999/xhtml\"><table class=\"hl7__eu__lab__report\"><tr><th>Test</th><th>08-Mar-2017</th><th>Reference&#xA0;Range</th><th>Unit</th></tr><tr><td>Calcium [Mass/volume] in Serum or Plasma</td><td>9.0</td><td>8.6 - 10.4</td><td></td><td>mg/dL</td></tr></table></div>"
        },
        "status": "final",
        "subject": {
          "reference": "urn:uuid:dfb58571-1ad1-4868-ab6f-515b0e35e690",
          "display": "Maria Nohlmans"
        },
        "effectiveDateTime": "2017-03-08T11:02:39Z",
        "specimen": {
          "reference": "urn:uuid:44b65db7-15fc-40fc-92db-1418a61603cd"
        }
      }
    },
    {
      "fullUrl": "urn:uuid:ab0a8bb0-ed3a-4e43-90e5-6fec6e2091f5",
      "resource": {
        "resourceType": "Observation",
        "id": "ab0a8bb0-ed3a-4e43-90e5-6fec6e2091f5",
        "meta": {
          "profile": [
            "http://hl7.eu/fhir/laboratory/StructureDefinition/Observation-resultslab-eu-lab"
          ]
        },
        "performer": [
          {
            "display": "The Central European Lab"
          }
        ],
        "category": [
          {
            "coding": [
              {
                "system": "http://terminology.hl7.org/CodeSystem/observation-category",
                "code": "laboratory"
              }
            ]
          }
        ],
        "code": {
          "coding": [
            {
              "code": "2951-2",
              "system": "http://loinc.org",
              "display": "Sodium [Moles/volume] in Serum or Plasma"
            }
          ],
          "text": "Sodium [Moles/volume] in Serum or Plasma"
        },
        "valueQuantity": {
          "system": "http://unitsofmeasure.org",
          "value": 139.5,
          "unit": "mmol/L",
          "code": "mmol/L"
        },
        "referenceRange": [
          {
            "low": {
              "value": 135,
              "code": "mmol/L",
              "system": "http://unitsofmeasure.org"
            }
          },
          {
            "high": {
              "value": 145,
              "code": "mmol/L",
              "system": "http://unitsofmeasure.org"
            }
          }
        ],
        "text": {
          "status": "generated",
          "div": "<div xmlns=\"http://www.w3.org/1999/xhtml\"><table class=\"hl7__eu__lab__report\"><tr><th>Test</th><th>08-Mar-2017</th><th>Reference&#xA0;Range</th><th>Unit</th></tr><tr><td>Sodium [Moles/volume] in Serum or Plasma</td><td>139.5</td><td>135 - 145</td><td></td><td>mmol/L</td></tr></table></div>"
        },
        "status": "final",
        "subject": {
          "reference": "urn:uuid:dfb58571-1ad1-4868-ab6f-515b0e35e690",
          "display": "Maria Nohlmans"
        },
        "effectiveDateTime": "2017-03-08T11:02:39Z",
        "specimen": {
          "reference": "urn:uuid:44b65db7-15fc-40fc-92db-1418a61603cd"
        }
      }
    },
    {
      "fullUrl": "urn:uuid:a63160ae-3d64-4436-a36e-dfa526c44bc6",
      "resource": {
        "resourceType": "Observation",
        "id": "a63160ae-3d64-4436-a36e-dfa526c44bc6",
        "meta": {
          "profile": [
            "http://hl7.eu/fhir/laboratory/StructureDefinition/Observation-resultslab-eu-lab"
          ]
        },
        "performer": [
          {
            "display": "The Central European Lab"
          }
        ],
        "category": [
          {
            "coding": [
              {
                "system": "http://terminology.hl7.org/CodeSystem/observation-category",
                "code": "laboratory"
              }
            ]
          }
        ],
        "code": {
          "coding": [
            {
              "code": "2823-3",
              "system": "http://loinc.org",
              "display": "Potassium [Moles/volume] in Serum or Plasma"
            }
          ],
          "text": "Potassium [Moles/volume] in Serum or Plasma"
        },
        "valueQuantity": {
          "system": "http://unitsofmeasure.org",
          "value": 4,
          "unit": "mmol/L",
          "code": "mmol/L"
        },
        "referenceRange": [
          {
            "low": {
              "value": 3.5,
              "code": "mmol/L",
              "system": "http://unitsofmeasure.org"
            }
          },
          {
            "high": {
              "value": 5.1,
              "code": "mmol/L",
              "system": "http://unitsofmeasure.org"
            }
          }
        ],
        "text": {
          "status": "generated",
          "div": "<div xmlns=\"http://www.w3.org/1999/xhtml\"><table class=\"hl7__eu__lab__report\"><tr><th>Test</th><th>08-Mar-2017</th><th>Reference&#xA0;Range</th><th>Unit</th></tr><tr><td>Potassium [Moles/volume] in Serum or Plasma</td><td>4.0</td><td>3.5 - 5.1</td><td></td><td>mmol/L</td></tr></table></div>"
        },
        "status": "final",
        "subject": {
          "reference": "urn:uuid:dfb58571-1ad1-4868-ab6f-515b0e35e690",
          "display": "Maria Nohlmans"
        },
        "effectiveDateTime": "2017-03-08T11:02:39Z",
        "specimen": {
          "reference": "urn:uuid:44b65db7-15fc-40fc-92db-1418a61603cd"
        }
      }
    },
    {
      "fullUrl": "urn:uuid:20484535-93a4-448f-929f-cbba00d01db3",
      "resource": {
        "resourceType": "Observation",
        "id": "20484535-93a4-448f-929f-cbba00d01db3",
        "meta": {
          "profile": [
            "http://hl7.eu/fhir/laboratory/StructureDefinition/Observation-resultslab-eu-lab"
          ]
        },
        "performer": [
          {
            "display": "The Central European Lab"
          }
        ],
        "category": [
          {
            "coding": [
              {
                "system": "http://terminology.hl7.org/CodeSystem/observation-category",
                "code": "laboratory"
              }
            ]
          }
        ],
        "code": {
          "coding": [
            {
              "code": "2075-0",
              "system": "http://loinc.org",
              "display": "Chloride [Moles/volume] in Serum or Plasma"
            }
          ],
          "text": "Chloride [Moles/volume] in Serum or Plasma"
        },
        "valueQuantity": {
          "system": "http://unitsofmeasure.org",
          "value": 107.4,
          "unit": "mmol/L",
          "code": "mmol/L"
        },
        "referenceRange": [
          {
            "low": {
              "value": 98,
              "code": "mmol/L",
              "system": "http://unitsofmeasure.org"
            }
          },
          {
            "high": {
              "value": 108,
              "code": "mmol/L",
              "system": "http://unitsofmeasure.org"
            }
          }
        ],
        "text": {
          "status": "generated",
          "div": "<div xmlns=\"http://www.w3.org/1999/xhtml\"><table class=\"hl7__eu__lab__report\"><tr><th>Test</th><th>08-Mar-2017</th><th>Reference&#xA0;Range</th><th>Unit</th></tr><tr><td>Chloride [Moles/volume] in Serum or Plasma</td><td>107.4</td><td>98 - 108</td><td></td><td>mmol/L</td></tr></table></div>"
        },
        "status": "final",
        "subject": {
          "reference": "urn:uuid:dfb58571-1ad1-4868-ab6f-515b0e35e690",
          "display": "Maria Nohlmans"
        },
        "effectiveDateTime": "2017-03-08T11:02:39Z",
        "specimen": {
          "reference": "urn:uuid:44b65db7-15fc-40fc-92db-1418a61603cd"
        }
      }
    },
    {
      "fullUrl": "urn:uuid:563ec513-cabe-44c3-8be8-ef162b0f571b",
      "resource": {
        "resourceType": "Observation",
        "id": "563ec513-cabe-44c3-8be8-ef162b0f571b",
        "meta": {
          "profile": [
            "http://hl7.eu/fhir/laboratory/StructureDefinition/Observation-resultslab-eu-lab"
          ]
        },
        "performer": [
          {
            "display": "The Central European Lab"
          }
        ],
        "category": [
          {
            "coding": [
              {
                "system": "http://terminology.hl7.org/CodeSystem/observation-category",
                "code": "laboratory"
              }
            ]
          }
        ],
        "code": {
          "coding": [
            {
              "code": "2028-9",
              "system": "http://loinc.org",
              "display": "Carbon dioxide, total [Moles/volume] in Serum or Plasma"
            }
          ],
          "text": "Carbon dioxide, total [Moles/volume] in Serum or Plasma"
        },
        "valueQuantity": {
          "system": "http://unitsofmeasure.org",
          "value": 23.5,
          "unit": "mmol/L",
          "code": "mmol/L"
        },
        "referenceRange": [
          {
            "low": {
              "value": 22,
              "code": "mmol/L",
              "system": "http://unitsofmeasure.org"
            }
          },
          {
            "high": {
              "value": 32,
              "code": "mmol/L",
              "system": "http://unitsofmeasure.org"
            }
          }
        ],
        "text": {
          "status": "generated",
          "div": "<div xmlns=\"http://www.w3.org/1999/xhtml\"><table class=\"hl7__eu__lab__report\"><tr><th>Test</th><th>08-Mar-2017</th><th>Reference&#xA0;Range</th><th>Unit</th></tr><tr><td>Carbon dioxide, total [Moles/volume] in Serum or Plasma</td><td>23.5</td><td>22 - 32</td><td></td><td>mmol/L</td></tr></table></div>"
        },
        "status": "final",
        "subject": {
          "reference": "urn:uuid:dfb58571-1ad1-4868-ab6f-515b0e35e690",
          "display": "Maria Nohlmans"
        },
        "effectiveDateTime": "2017-03-08T11:02:39Z",
        "specimen": {
          "reference": "urn:uuid:44b65db7-15fc-40fc-92db-1418a61603cd"
        }
      }
    },
    {
      "fullUrl": "urn:uuid:b2ff8032-9011-405e-b99c-d306beb78aa1",
      "resource": {
        "resourceType": "Observation",
        "id": "b2ff8032-9011-405e-b99c-d306beb78aa1",
        "meta": {
          "profile": [
            "http://hl7.eu/fhir/laboratory/StructureDefinition/Observation-resultslab-eu-lab"
          ]
        },
        "performer": [
          {
            "display": "The Central European Lab"
          }
        ],
        "category": [
          {
            "coding": [
              {
                "system": "http://terminology.hl7.org/CodeSystem/observation-category",
                "code": "laboratory"
              }
            ]
          }
        ],
        "code": {
          "coding": [
            {
              "code": "5767-9",
              "system": "http://loinc.org",
              "display": "Appearance of Urine"
            }
          ],
          "text": "Appearance of Urine"
        },
        "text": {
          "status": "generated",
          "div": "<div xmlns=\"http://www.w3.org/1999/xhtml\"><table class=\"hl7__eu__lab__report\"><tr><th>Test</th><th>08-Mar-2017</th><th>Reference&#xA0;Range</th><th>Unit</th></tr><tr><td>Appearance of Urine</td></tr></table></div>"
        },
        "status": "final",
        "subject": {
          "reference": "urn:uuid:dfb58571-1ad1-4868-ab6f-515b0e35e690",
          "display": "Maria Nohlmans"
        },
        "effectiveDateTime": "2017-03-08T11:02:39Z",
        "specimen": {
          "reference": "urn:uuid:654d29aa-0f6e-4a9f-843d-37e5b8d922ae"
        }
      }
    },
    {
      "fullUrl": "urn:uuid:e94b76d2-2e1f-4a28-a075-913f56bc3278",
      "resource": {
        "resourceType": "Observation",
        "id": "e94b76d2-2e1f-4a28-a075-913f56bc3278",
        "meta": {
          "profile": [
            "http://hl7.eu/fhir/laboratory/StructureDefinition/Observation-resultslab-eu-lab"
          ]
        },
        "performer": [
          {
            "display": "The Central European Lab"
          }
        ],
        "category": [
          {
            "coding": [
              {
                "system": "http://terminology.hl7.org/CodeSystem/observation-category",
                "code": "laboratory"
              }
            ]
          }
        ],
        "code": {
          "coding": [
            {
              "code": "34533-0",
              "system": "http://loinc.org",
              "display": "Odor of Urine"
            }
          ],
          "text": "Odor of Urine"
        },
        "text": {
          "status": "generated",
          "div": "<div xmlns=\"http://www.w3.org/1999/xhtml\"><table class=\"hl7__eu__lab__report\"><tr><th>Test</th><th>08-Mar-2017</th><th>Reference&#xA0;Range</th><th>Unit</th></tr><tr><td>Odor of Urine</td></tr></table></div>"
        },
        "status": "final",
        "subject": {
          "reference": "urn:uuid:dfb58571-1ad1-4868-ab6f-515b0e35e690",
          "display": "Maria Nohlmans"
        },
        "effectiveDateTime": "2017-03-08T11:02:39Z",
        "specimen": {
          "reference": "urn:uuid:654d29aa-0f6e-4a9f-843d-37e5b8d922ae"
        }
      }
    },
    {
      "fullUrl": "urn:uuid:3a909875-9e71-4f09-b167-ef8e371b4e5a",
      "resource": {
        "resourceType": "Observation",
        "id": "3a909875-9e71-4f09-b167-ef8e371b4e5a",
        "meta": {
          "profile": [
            "http://hl7.eu/fhir/laboratory/StructureDefinition/Observation-resultslab-eu-lab"
          ]
        },
        "performer": [
          {
            "display": "The Central European Lab"
          }
        ],
        "category": [
          {
            "coding": [
              {
                "system": "http://terminology.hl7.org/CodeSystem/observation-category",
                "code": "laboratory"
              }
            ]
          }
        ],
        "code": {
          "coding": [
            {
              "code": "32167-9",
              "system": "http://loinc.org",
              "display": "Clarity of Urine"
            }
          ],
          "text": "Clarity of Urine"
        },
        "text": {
          "status": "generated",
          "div": "<div xmlns=\"http://www.w3.org/1999/xhtml\"><table class=\"hl7__eu__lab__report\"><tr><th>Test</th><th>08-Mar-2017</th><th>Reference&#xA0;Range</th><th>Unit</th></tr><tr><td>Clarity of Urine</td></tr></table></div>"
        },
        "status": "final",
        "subject": {
          "reference": "urn:uuid:dfb58571-1ad1-4868-ab6f-515b0e35e690",
          "display": "Maria Nohlmans"
        },
        "effectiveDateTime": "2017-03-08T11:02:39Z",
        "specimen": {
          "reference": "urn:uuid:654d29aa-0f6e-4a9f-843d-37e5b8d922ae"
        }
      }
    },
    {
      "fullUrl": "urn:uuid:85cc45e9-ff2e-4a07-8c89-b1349c3d1e90",
      "resource": {
        "resourceType": "Observation",
        "id": "85cc45e9-ff2e-4a07-8c89-b1349c3d1e90",
        "meta": {
          "profile": [
            "http://hl7.eu/fhir/laboratory/StructureDefinition/Observation-resultslab-eu-lab"
          ]
        },
        "performer": [
          {
            "display": "The Central European Lab"
          }
        ],
        "category": [
          {
            "coding": [
              {
                "system": "http://terminology.hl7.org/CodeSystem/observation-category",
                "code": "laboratory"
              }
            ]
          }
        ],
        "code": {
          "coding": [
            {
              "code": "5778-6",
              "system": "http://loinc.org",
              "display": "Color of Urine"
            }
          ],
          "text": "Color of Urine"
        },
        "text": {
          "status": "generated",
          "div": "<div xmlns=\"http://www.w3.org/1999/xhtml\"><table class=\"hl7__eu__lab__report\"><tr><th>Test</th><th>08-Mar-2017</th><th>Reference&#xA0;Range</th><th>Unit</th></tr><tr><td>Color of Urine</td></tr></table></div>"
        },
        "status": "final",
        "subject": {
          "reference": "urn:uuid:dfb58571-1ad1-4868-ab6f-515b0e35e690",
          "display": "Maria Nohlmans"
        },
        "effectiveDateTime": "2017-03-08T11:02:39Z",
        "specimen": {
          "reference": "urn:uuid:654d29aa-0f6e-4a9f-843d-37e5b8d922ae"
        }
      }
    },
    {
      "fullUrl": "urn:uuid:17a32937-9510-4349-9cb3-5bfaca351c95",
      "resource": {
        "resourceType": "Observation",
        "id": "17a32937-9510-4349-9cb3-5bfaca351c95",
        "meta": {
          "profile": [
            "http://hl7.eu/fhir/laboratory/StructureDefinition/Observation-resultslab-eu-lab"
          ]
        },
        "performer": [
          {
            "display": "The Central European Lab"
          }
        ],
        "category": [
          {
            "coding": [
              {
                "system": "http://terminology.hl7.org/CodeSystem/observation-category",
                "code": "laboratory"
              }
            ]
          }
        ],
        "code": {
          "coding": [
            {
              "code": "5792-7",
              "system": "http://loinc.org",
              "display": "Glucose [Mass/volume] in Urine by Test strip"
            }
          ],
          "text": "Glucose [Mass/volume] in Urine by Test strip"
        },
        "valueQuantity": {
          "system": "http://unitsofmeasure.org",
          "value": 0.7,
          "unit": "mg/dL",
          "code": "mg/dL"
        },
        "referenceRange": [
          {
            "low": {
              "value": 0.8,
              "code": "mg/dL",
              "system": "http://unitsofmeasure.org"
            }
          },
          {
            "high": {
              "value": 0,
              "code": "mg/dL",
              "system": "http://unitsofmeasure.org"
            }
          }
        ],
        "interpretation": [
          {
            "coding": [
              {
                "code": "L",
                "system": "http://terminology.hl7.org/CodeSystem/v3-ObservationInterpretation",
                "display": "Low"
              }
            ]
          }
        ],
        "text": {
          "status": "generated",
          "div": "<div xmlns=\"http://www.w3.org/1999/xhtml\"><table class=\"hl7__eu__lab__report\"><tr><th>Test</th><th>08-Mar-2017</th><th>Reference&#xA0;Range</th><th>Unit</th></tr><tr><td>Glucose [Mass/volume] in Urine by Test strip</td><td>0.7</td><td>0.8 - 0</td><td>L</td><td>mg/dL</td></tr></table></div>"
        },
        "status": "final",
        "subject": {
          "reference": "urn:uuid:dfb58571-1ad1-4868-ab6f-515b0e35e690",
          "display": "Maria Nohlmans"
        },
        "effectiveDateTime": "2017-03-08T11:02:39Z",
        "specimen": {
          "reference": "urn:uuid:654d29aa-0f6e-4a9f-843d-37e5b8d922ae"
        }
      }
    },
    {
      "fullUrl": "urn:uuid:d52dc770-9649-46c0-8472-b3e7d43d72f2",
      "resource": {
        "resourceType": "Observation",
        "id": "d52dc770-9649-46c0-8472-b3e7d43d72f2",
        "meta": {
          "profile": [
            "http://hl7.eu/fhir/laboratory/StructureDefinition/Observation-resultslab-eu-lab"
          ]
        },
        "performer": [
          {
            "display": "The Central European Lab"
          }
        ],
        "category": [
          {
            "coding": [
              {
                "system": "http://terminology.hl7.org/CodeSystem/observation-category",
                "code": "laboratory"
              }
            ]
          }
        ],
        "code": {
          "coding": [
            {
              "code": "25428-4",
              "system": "http://loinc.org",
              "display": "Glucose [Presence] in Urine by Test strip"
            }
          ],
          "text": "Glucose [Presence] in Urine by Test strip"
        },
        "text": {
          "status": "generated",
          "div": "<div xmlns=\"http://www.w3.org/1999/xhtml\"><table class=\"hl7__eu__lab__report\"><tr><th>Test</th><th>08-Mar-2017</th><th>Reference&#xA0;Range</th><th>Unit</th></tr><tr><td>Glucose [Presence] in Urine by Test strip</td></tr></table></div>"
        },
        "status": "final",
        "subject": {
          "reference": "urn:uuid:dfb58571-1ad1-4868-ab6f-515b0e35e690",
          "display": "Maria Nohlmans"
        },
        "effectiveDateTime": "2017-03-08T11:02:39Z",
        "specimen": {
          "reference": "urn:uuid:654d29aa-0f6e-4a9f-843d-37e5b8d922ae"
        }
      }
    },
    {
      "fullUrl": "urn:uuid:ae9a0922-164d-414e-abd7-ac9f7fa03ea4",
      "resource": {
        "resourceType": "Observation",
        "id": "ae9a0922-164d-414e-abd7-ac9f7fa03ea4",
        "meta": {
          "profile": [
            "http://hl7.eu/fhir/laboratory/StructureDefinition/Observation-resultslab-eu-lab"
          ]
        },
        "performer": [
          {
            "display": "The Central European Lab"
          }
        ],
        "category": [
          {
            "coding": [
              {
                "system": "http://terminology.hl7.org/CodeSystem/observation-category",
                "code": "laboratory"
              }
            ]
          }
        ],
        "code": {
          "coding": [
            {
              "code": "20505-4",
              "system": "http://loinc.org",
              "display": "Bilirubin.total [Mass/volume] in Urine by Test strip"
            }
          ],
          "text": "Bilirubin.total [Mass/volume] in Urine by Test strip"
        },
        "valueQuantity": {
          "system": "http://unitsofmeasure.org",
          "value": 0.5,
          "unit": "mg/dL",
          "code": "mg/dL"
        },
        "referenceRange": [
          {
            "low": {
              "value": 0,
              "code": "mg/dL",
              "system": "http://unitsofmeasure.org"
            }
          },
          {
            "high": {
              "value": 1.5,
              "code": "mg/dL",
              "system": "http://unitsofmeasure.org"
            }
          }
        ],
        "text": {
          "status": "generated",
          "div": "<div xmlns=\"http://www.w3.org/1999/xhtml\"><table class=\"hl7__eu__lab__report\"><tr><th>Test</th><th>08-Mar-2017</th><th>Reference&#xA0;Range</th><th>Unit</th></tr><tr><td>Bilirubin.total [Mass/volume] in Urine by Test strip</td><td>0.5</td><td>0 - 1.5</td><td></td><td>mg/dL</td></tr></table></div>"
        },
        "status": "final",
        "subject": {
          "reference": "urn:uuid:dfb58571-1ad1-4868-ab6f-515b0e35e690",
          "display": "Maria Nohlmans"
        },
        "effectiveDateTime": "2017-03-08T11:02:39Z",
        "specimen": {
          "reference": "urn:uuid:654d29aa-0f6e-4a9f-843d-37e5b8d922ae"
        }
      }
    },
    {
      "fullUrl": "urn:uuid:a54b0b3b-21b4-423f-a688-03a545dae5cc",
      "resource": {
        "resourceType": "Observation",
        "id": "a54b0b3b-21b4-423f-a688-03a545dae5cc",
        "meta": {
          "profile": [
            "http://hl7.eu/fhir/laboratory/StructureDefinition/Observation-resultslab-eu-lab"
          ]
        },
        "performer": [
          {
            "display": "The Central European Lab"
          }
        ],
        "category": [
          {
            "coding": [
              {
                "system": "http://terminology.hl7.org/CodeSystem/observation-category",
                "code": "laboratory"
              }
            ]
          }
        ],
        "code": {
          "coding": [
            {
              "code": "5770-3",
              "system": "http://loinc.org",
              "display": "Bilirubin.total [Presence] in Urine by Test strip"
            }
          ],
          "text": "Bilirubin.total [Presence] in Urine by Test strip"
        },
        "text": {
          "status": "generated",
          "div": "<div xmlns=\"http://www.w3.org/1999/xhtml\"><table class=\"hl7__eu__lab__report\"><tr><th>Test</th><th>08-Mar-2017</th><th>Reference&#xA0;Range</th><th>Unit</th></tr><tr><td>Bilirubin.total [Presence] in Urine by Test strip</td></tr></table></div>"
        },
        "status": "final",
        "subject": {
          "reference": "urn:uuid:dfb58571-1ad1-4868-ab6f-515b0e35e690",
          "display": "Maria Nohlmans"
        },
        "effectiveDateTime": "2017-03-08T11:02:39Z",
        "specimen": {
          "reference": "urn:uuid:654d29aa-0f6e-4a9f-843d-37e5b8d922ae"
        }
      }
    },
    {
      "fullUrl": "urn:uuid:bd7433fd-83a0-40a3-9a0f-fce337122ca1",
      "resource": {
        "resourceType": "Observation",
        "id": "bd7433fd-83a0-40a3-9a0f-fce337122ca1",
        "meta": {
          "profile": [
            "http://hl7.eu/fhir/laboratory/StructureDefinition/Observation-resultslab-eu-lab"
          ]
        },
        "performer": [
          {
            "display": "The Central European Lab"
          }
        ],
        "category": [
          {
            "coding": [
              {
                "system": "http://terminology.hl7.org/CodeSystem/observation-category",
                "code": "laboratory"
              }
            ]
          }
        ],
        "code": {
          "coding": [
            {
              "code": "5797-6",
              "system": "http://loinc.org",
              "display": "Ketones [Mass/volume] in Urine by Test strip"
            }
          ],
          "text": "Ketones [Mass/volume] in Urine by Test strip"
        },
        "valueQuantity": {
          "system": "http://unitsofmeasure.org",
          "value": 19.5,
          "unit": "mg/dL",
          "code": "mg/dL"
        },
        "referenceRange": [
          {
            "low": {
              "value": 0,
              "code": "mg/dL",
              "system": "http://unitsofmeasure.org"
            }
          },
          {
            "high": {
              "value": 8,
              "code": "mg/dL",
              "system": "http://unitsofmeasure.org"
            }
          }
        ],
        "interpretation": [
          {
            "coding": [
              {
                "code": "H",
                "system": "http://terminology.hl7.org/CodeSystem/v3-ObservationInterpretation",
                "display": "High"
              }
            ]
          }
        ],
        "text": {
          "status": "generated",
          "div": "<div xmlns=\"http://www.w3.org/1999/xhtml\"><table class=\"hl7__eu__lab__report\"><tr><th>Test</th><th>08-Mar-2017</th><th>Reference&#xA0;Range</th><th>Unit</th></tr><tr><td>Ketones [Mass/volume] in Urine by Test strip</td><td>19.5</td><td>0 - 8</td><td>H</td><td>mg/dL</td></tr></table></div>"
        },
        "status": "final",
        "subject": {
          "reference": "urn:uuid:dfb58571-1ad1-4868-ab6f-515b0e35e690",
          "display": "Maria Nohlmans"
        },
        "effectiveDateTime": "2017-03-08T11:02:39Z",
        "specimen": {
          "reference": "urn:uuid:654d29aa-0f6e-4a9f-843d-37e5b8d922ae"
        }
      }
    },
    {
      "fullUrl": "urn:uuid:84516fe2-999b-45e7-9848-6d35a74b4ed6",
      "resource": {
        "resourceType": "Observation",
        "id": "84516fe2-999b-45e7-9848-6d35a74b4ed6",
        "meta": {
          "profile": [
            "http://hl7.eu/fhir/laboratory/StructureDefinition/Observation-resultslab-eu-lab"
          ]
        },
        "performer": [
          {
            "display": "The Central European Lab"
          }
        ],
        "category": [
          {
            "coding": [
              {
                "system": "http://terminology.hl7.org/CodeSystem/observation-category",
                "code": "laboratory"
              }
            ]
          }
        ],
        "code": {
          "coding": [
            {
              "code": "2514-8",
              "system": "http://loinc.org",
              "display": "Ketones [Presence] in Urine by Test strip"
            }
          ],
          "text": "Ketones [Presence] in Urine by Test strip"
        },
        "text": {
          "status": "generated",
          "div": "<div xmlns=\"http://www.w3.org/1999/xhtml\"><table class=\"hl7__eu__lab__report\"><tr><th>Test</th><th>08-Mar-2017</th><th>Reference&#xA0;Range</th><th>Unit</th></tr><tr><td>Ketones [Presence] in Urine by Test strip</td></tr></table></div>"
        },
        "status": "final",
        "subject": {
          "reference": "urn:uuid:dfb58571-1ad1-4868-ab6f-515b0e35e690",
          "display": "Maria Nohlmans"
        },
        "effectiveDateTime": "2017-03-08T11:02:39Z",
        "specimen": {
          "reference": "urn:uuid:654d29aa-0f6e-4a9f-843d-37e5b8d922ae"
        }
      }
    },
    {
      "fullUrl": "urn:uuid:e06060f8-94dc-4fa3-a149-38bc1b48e0c3",
      "resource": {
        "resourceType": "Observation",
        "id": "e06060f8-94dc-4fa3-a149-38bc1b48e0c3",
        "meta": {
          "profile": [
            "http://hl7.eu/fhir/laboratory/StructureDefinition/Observation-resultslab-eu-lab"
          ]
        },
        "performer": [
          {
            "display": "The Central European Lab"
          }
        ],
        "category": [
          {
            "coding": [
              {
                "system": "http://terminology.hl7.org/CodeSystem/observation-category",
                "code": "laboratory"
              }
            ]
          }
        ],
        "code": {
          "coding": [
            {
              "code": "5811-5",
              "system": "http://loinc.org",
              "display": "Specific gravity of Urine by Test strip"
            }
          ],
          "text": "Specific gravity of Urine by Test strip"
        },
        "valueQuantity": {
          "system": "http://unitsofmeasure.org",
          "value": 1,
          "unit": "{nominal}",
          "code": "{nominal}"
        },
        "referenceRange": [
          {
            "low": {
              "value": 1.01,
              "code": "g/mL",
              "system": "http://unitsofmeasure.org"
            }
          },
          {
            "high": {
              "value": 1.03,
              "code": "g/mL",
              "system": "http://unitsofmeasure.org"
            }
          }
        ],
        "interpretation": [
          {
            "coding": [
              {
                "code": "L",
                "system": "http://terminology.hl7.org/CodeSystem/v3-ObservationInterpretation",
                "display": "Low"
              }
            ]
          }
        ],
        "text": {
          "status": "generated",
          "div": "<div xmlns=\"http://www.w3.org/1999/xhtml\"><table class=\"hl7__eu__lab__report\"><tr><th>Test</th><th>08-Mar-2017</th><th>Reference&#xA0;Range</th><th>Unit</th></tr><tr><td>Specific gravity of Urine by Test strip</td><td>1.0</td><td>1.01 - 1.03</td><td>L</td><td>{nominal}</td></tr></table></div>"
        },
        "status": "final",
        "subject": {
          "reference": "urn:uuid:dfb58571-1ad1-4868-ab6f-515b0e35e690",
          "display": "Maria Nohlmans"
        },
        "effectiveDateTime": "2017-03-08T11:02:39Z",
        "specimen": {
          "reference": "urn:uuid:654d29aa-0f6e-4a9f-843d-37e5b8d922ae"
        }
      }
    },
    {
      "fullUrl": "urn:uuid:526fa1f0-3819-42f1-9fda-04e3d11909dd",
      "resource": {
        "resourceType": "Observation",
        "id": "526fa1f0-3819-42f1-9fda-04e3d11909dd",
        "meta": {
          "profile": [
            "http://hl7.eu/fhir/laboratory/StructureDefinition/Observation-resultslab-eu-lab"
          ]
        },
        "performer": [
          {
            "display": "The Central European Lab"
          }
        ],
        "category": [
          {
            "coding": [
              {
                "system": "http://terminology.hl7.org/CodeSystem/observation-category",
                "code": "laboratory"
              }
            ]
          }
        ],
        "code": {
          "coding": [
            {
              "code": "5803-2",
              "system": "http://loinc.org",
              "display": "pH of Urine by Test strip"
            }
          ],
          "text": "pH of Urine by Test strip"
        },
        "valueQuantity": {
          "system": "http://unitsofmeasure.org",
          "value": 6.6,
          "unit": "pH",
          "code": "pH"
        },
        "referenceRange": [
          {
            "low": {
              "value": 4.6,
              "code": "pH",
              "system": "http://unitsofmeasure.org"
            }
          },
          {
            "high": {
              "value": 7.5,
              "code": "pH",
              "system": "http://unitsofmeasure.org"
            }
          }
        ],
        "text": {
          "status": "generated",
          "div": "<div xmlns=\"http://www.w3.org/1999/xhtml\"><table class=\"hl7__eu__lab__report\"><tr><th>Test</th><th>08-Mar-2017</th><th>Reference&#xA0;Range</th><th>Unit</th></tr><tr><td>pH of Urine by Test strip</td><td>6.6</td><td>4.6 - 7.5</td><td></td><td>pH</td></tr></table></div>"
        },
        "status": "final",
        "subject": {
          "reference": "urn:uuid:dfb58571-1ad1-4868-ab6f-515b0e35e690",
          "display": "Maria Nohlmans"
        },
        "effectiveDateTime": "2017-03-08T11:02:39Z",
        "specimen": {
          "reference": "urn:uuid:654d29aa-0f6e-4a9f-843d-37e5b8d922ae"
        }
      }
    },
    {
      "fullUrl": "urn:uuid:0b65d2bd-90ad-4348-a3ec-b31434df8961",
      "resource": {
        "resourceType": "Observation",
        "id": "0b65d2bd-90ad-4348-a3ec-b31434df8961",
        "meta": {
          "profile": [
            "http://hl7.eu/fhir/laboratory/StructureDefinition/Observation-resultslab-eu-lab"
          ]
        },
        "performer": [
          {
            "display": "The Central European Lab"
          }
        ],
        "category": [
          {
            "coding": [
              {
                "system": "http://terminology.hl7.org/CodeSystem/observation-category",
                "code": "laboratory"
              }
            ]
          }
        ],
        "code": {
          "coding": [
            {
              "code": "5804-0",
              "system": "http://loinc.org",
              "display": "Protein [Mass/volume] in Urine by Test strip"
            }
          ],
          "text": "Protein [Mass/volume] in Urine by Test strip"
        },
        "valueQuantity": {
          "system": "http://unitsofmeasure.org",
          "value": 383.2,
          "unit": "mg/dL",
          "code": "mg/dL"
        },
        "referenceRange": [
          {
            "low": {
              "value": 0,
              "code": "mg/dL",
              "system": "http://unitsofmeasure.org"
            }
          },
          {
            "high": {
              "value": 14,
              "code": "mg/dL",
              "system": "http://unitsofmeasure.org"
            }
          }
        ],
        "interpretation": [
          {
            "coding": [
              {
                "code": "H",
                "system": "http://terminology.hl7.org/CodeSystem/v3-ObservationInterpretation",
                "display": "High"
              }
            ]
          }
        ],
        "text": {
          "status": "generated",
          "div": "<div xmlns=\"http://www.w3.org/1999/xhtml\"><table class=\"hl7__eu__lab__report\"><tr><th>Test</th><th>08-Mar-2017</th><th>Reference&#xA0;Range</th><th>Unit</th></tr><tr><td>Protein [Mass/volume] in Urine by Test strip</td><td>383.2</td><td>0 - 14</td><td>H</td><td>mg/dL</td></tr></table></div>"
        },
        "status": "final",
        "subject": {
          "reference": "urn:uuid:dfb58571-1ad1-4868-ab6f-515b0e35e690",
          "display": "Maria Nohlmans"
        },
        "effectiveDateTime": "2017-03-08T11:02:39Z",
        "specimen": {
          "reference": "urn:uuid:654d29aa-0f6e-4a9f-843d-37e5b8d922ae"
        }
      }
    },
    {
      "fullUrl": "urn:uuid:71c59dc1-31f5-4d8a-bf51-d0540884b09d",
      "resource": {
        "resourceType": "Observation",
        "id": "71c59dc1-31f5-4d8a-bf51-d0540884b09d",
        "meta": {
          "profile": [
            "http://hl7.eu/fhir/laboratory/StructureDefinition/Observation-resultslab-eu-lab"
          ]
        },
        "performer": [
          {
            "display": "The Central European Lab"
          }
        ],
        "category": [
          {
            "coding": [
              {
                "system": "http://terminology.hl7.org/CodeSystem/observation-category",
                "code": "laboratory"
              }
            ]
          }
        ],
        "code": {
          "coding": [
            {
              "code": "20454-5",
              "system": "http://loinc.org",
              "display": "Protein [Presence] in Urine by Test strip"
            }
          ],
          "text": "Protein [Presence] in Urine by Test strip"
        },
        "text": {
          "status": "generated",
          "div": "<div xmlns=\"http://www.w3.org/1999/xhtml\"><table class=\"hl7__eu__lab__report\"><tr><th>Test</th><th>08-Mar-2017</th><th>Reference&#xA0;Range</th><th>Unit</th></tr><tr><td>Protein [Presence] in Urine by Test strip</td></tr></table></div>"
        },
        "status": "final",
        "subject": {
          "reference": "urn:uuid:dfb58571-1ad1-4868-ab6f-515b0e35e690",
          "display": "Maria Nohlmans"
        },
        "effectiveDateTime": "2017-03-08T11:02:39Z",
        "specimen": {
          "reference": "urn:uuid:654d29aa-0f6e-4a9f-843d-37e5b8d922ae"
        }
      }
    },
    {
      "fullUrl": "urn:uuid:651c35e3-6f51-4ea1-9da5-823647659300",
      "resource": {
        "resourceType": "Observation",
        "id": "651c35e3-6f51-4ea1-9da5-823647659300",
        "meta": {
          "profile": [
            "http://hl7.eu/fhir/laboratory/StructureDefinition/Observation-resultslab-eu-lab"
          ]
        },
        "performer": [
          {
            "display": "The Central European Lab"
          }
        ],
        "category": [
          {
            "coding": [
              {
                "system": "http://terminology.hl7.org/CodeSystem/observation-category",
                "code": "laboratory"
              }
            ]
          }
        ],
        "code": {
          "coding": [
            {
              "code": "5802-4",
              "system": "http://loinc.org",
              "display": "Nitrite [Presence] in Urine by Test strip"
            }
          ],
          "text": "Nitrite [Presence] in Urine by Test strip"
        },
        "text": {
          "status": "generated",
          "div": "<div xmlns=\"http://www.w3.org/1999/xhtml\"><table class=\"hl7__eu__lab__report\"><tr><th>Test</th><th>08-Mar-2017</th><th>Reference&#xA0;Range</th><th>Unit</th></tr><tr><td>Nitrite [Presence] in Urine by Test strip</td></tr></table></div>"
        },
        "status": "final",
        "subject": {
          "reference": "urn:uuid:dfb58571-1ad1-4868-ab6f-515b0e35e690",
          "display": "Maria Nohlmans"
        },
        "effectiveDateTime": "2017-03-08T11:02:39Z",
        "specimen": {
          "reference": "urn:uuid:654d29aa-0f6e-4a9f-843d-37e5b8d922ae"
        }
      }
    },
    {
      "fullUrl": "urn:uuid:e585608b-05d8-470e-a2d2-4889d111b6d8",
      "resource": {
        "resourceType": "Observation",
        "id": "e585608b-05d8-470e-a2d2-4889d111b6d8",
        "meta": {
          "profile": [
            "http://hl7.eu/fhir/laboratory/StructureDefinition/Observation-resultslab-eu-lab"
          ]
        },
        "performer": [
          {
            "display": "The Central European Lab"
          }
        ],
        "category": [
          {
            "coding": [
              {
                "system": "http://terminology.hl7.org/CodeSystem/observation-category",
                "code": "laboratory"
              }
            ]
          }
        ],
        "code": {
          "coding": [
            {
              "code": "5794-3",
              "system": "http://loinc.org",
              "display": "Hemoglobin [Presence] in Urine by Test strip"
            }
          ],
          "text": "Hemoglobin [Presence] in Urine by Test strip"
        },
        "text": {
          "status": "generated",
          "div": "<div xmlns=\"http://www.w3.org/1999/xhtml\"><table class=\"hl7__eu__lab__report\"><tr><th>Test</th><th>08-Mar-2017</th><th>Reference&#xA0;Range</th><th>Unit</th></tr><tr><td>Hemoglobin [Presence] in Urine by Test strip</td></tr></table></div>"
        },
        "status": "final",
        "subject": {
          "reference": "urn:uuid:dfb58571-1ad1-4868-ab6f-515b0e35e690",
          "display": "Maria Nohlmans"
        },
        "effectiveDateTime": "2017-03-08T11:02:39Z",
        "specimen": {
          "reference": "urn:uuid:654d29aa-0f6e-4a9f-843d-37e5b8d922ae"
        }
      }
    },
    {
      "fullUrl": "urn:uuid:3281d238-4e67-47ab-b24c-3fdbe9f6a7b3",
      "resource": {
        "resourceType": "Observation",
        "id": "3281d238-4e67-47ab-b24c-3fdbe9f6a7b3",
        "meta": {
          "profile": [
            "http://hl7.eu/fhir/laboratory/StructureDefinition/Observation-resultslab-eu-lab"
          ]
        },
        "performer": [
          {
            "display": "The Central European Lab"
          }
        ],
        "category": [
          {
            "coding": [
              {
                "system": "http://terminology.hl7.org/CodeSystem/observation-category",
                "code": "laboratory"
              }
            ]
          }
        ],
        "code": {
          "coding": [
            {
              "code": "5799-2",
              "system": "http://loinc.org",
              "display": "Leukocyte esterase [Presence] in Urine by Test strip"
            }
          ],
          "text": "Leukocyte esterase [Presence] in Urine by Test strip"
        },
        "text": {
          "status": "generated",
          "div": "<div xmlns=\"http://www.w3.org/1999/xhtml\"><table class=\"hl7__eu__lab__report\"><tr><th>Test</th><th>08-Mar-2017</th><th>Reference&#xA0;Range</th><th>Unit</th></tr><tr><td>Leukocyte esterase [Presence] in Urine by Test strip</td></tr></table></div>"
        },
        "status": "final",
        "subject": {
          "reference": "urn:uuid:dfb58571-1ad1-4868-ab6f-515b0e35e690",
          "display": "Maria Nohlmans"
        },
        "effectiveDateTime": "2017-03-08T11:02:39Z",
        "specimen": {
          "reference": "urn:uuid:654d29aa-0f6e-4a9f-843d-37e5b8d922ae"
        }
      }
    },
    {
      "fullUrl": "urn:uuid:44e09720-f292-41d1-bf67-3ff5760dcffd",
      "resource": {
        "resourceType": "Observation",
        "id": "44e09720-f292-41d1-bf67-3ff5760dcffd",
        "meta": {
          "profile": [
            "http://hl7.eu/fhir/laboratory/StructureDefinition/Observation-resultslab-eu-lab"
          ]
        },
        "performer": [
          {
            "display": "The Central European Lab"
          }
        ],
        "category": [
          {
            "coding": [
              {
                "system": "http://terminology.hl7.org/CodeSystem/observation-category",
                "code": "laboratory"
              }
            ]
          }
        ],
        "code": {
          "coding": [
            {
              "code": "4548-4",
              "system": "http://loinc.org",
              "display": "Hemoglobin A1c/Hemoglobin.total in Blood"
            }
          ],
          "text": "Hemoglobin A1c/Hemoglobin.total in Blood"
        },
        "valueQuantity": {
          "system": "http://unitsofmeasure.org",
          "value": 3.1,
          "unit": "%",
          "code": "%"
        },
        "referenceRange": [
          {
            "low": {
              "value": 4.5,
              "code": "%",
              "system": "http://unitsofmeasure.org"
            }
          },
          {
            "high": {
              "value": 6.4,
              "code": "%",
              "system": "http://unitsofmeasure.org"
            }
          }
        ],
        "interpretation": [
          {
            "coding": [
              {
                "code": "L",
                "system": "http://terminology.hl7.org/CodeSystem/v3-ObservationInterpretation",
                "display": "Low"
              }
            ]
          }
        ],
        "text": {
          "status": "generated",
          "div": "<div xmlns=\"http://www.w3.org/1999/xhtml\"><table class=\"hl7__eu__lab__report\"><tr><th>Test</th><th>08-Mar-2017</th><th>Reference&#xA0;Range</th><th>Unit</th></tr><tr><td>Hemoglobin A1c/Hemoglobin.total in Blood</td><td>3.1</td><td>4.5 - 6.4</td><td>L</td><td>%</td></tr></table></div>"
        },
        "status": "final",
        "subject": {
          "reference": "urn:uuid:dfb58571-1ad1-4868-ab6f-515b0e35e690",
          "display": "Maria Nohlmans"
        },
        "effectiveDateTime": "2017-03-08T11:02:39Z",
        "specimen": {
          "reference": "urn:uuid:a82cb54f-93f0-493c-b184-54888539ae64"
        }
      }
    },
    {
      "fullUrl": "urn:uuid:59c2e51b-9654-4196-ae46-f7eee0ce57e2",
      "resource": {
        "resourceType": "Observation",
        "id": "59c2e51b-9654-4196-ae46-f7eee0ce57e2",
        "meta": {
          "profile": [
            "http://hl7.eu/fhir/laboratory/StructureDefinition/Observation-resultslab-eu-lab"
          ]
        },
        "performer": [
          {
            "display": "The Central European Lab"
          }
        ],
        "category": [
          {
            "coding": [
              {
                "system": "http://terminology.hl7.org/CodeSystem/observation-category",
                "code": "laboratory"
              }
            ]
          }
        ],
        "code": {
          "coding": [
            {
              "code": "2339-0",
              "system": "http://loinc.org",
              "display": "Glucose [Mass/volume] in Blood"
            }
          ],
          "text": "Glucose [Mass/volume] in Blood"
        },
        "valueQuantity": {
          "system": "http://unitsofmeasure.org",
          "value": 72.5,
          "unit": "mg/dL",
          "code": "mg/dL"
        },
        "referenceRange": [
          {
            "low": {
              "value": 70,
              "code": "mg/dL",
              "system": "http://unitsofmeasure.org"
            }
          },
          {
            "high": {
              "value": 140,
              "code": "mg/dL",
              "system": "http://unitsofmeasure.org"
            }
          }
        ],
        "text": {
          "status": "generated",
          "div": "<div xmlns=\"http://www.w3.org/1999/xhtml\"><table class=\"hl7__eu__lab__report\"><tr><th>Test</th><th>08-Mar-2017</th><th>Reference&#xA0;Range</th><th>Unit</th></tr><tr><td>Glucose [Mass/volume] in Blood</td><td>72.5</td><td>70 - 140</td><td></td><td>mg/dL</td></tr></table></div>"
        },
        "status": "final",
        "subject": {
          "reference": "urn:uuid:dfb58571-1ad1-4868-ab6f-515b0e35e690",
          "display": "Maria Nohlmans"
        },
        "effectiveDateTime": "2017-03-08T11:02:39Z",
        "specimen": {
          "reference": "urn:uuid:a82cb54f-93f0-493c-b184-54888539ae64"
        }
      }
    },
    {
      "fullUrl": "urn:uuid:c3b4081a-8e49-44c1-b25f-8bb5677d04da",
      "resource": {
        "resourceType": "Observation",
        "id": "c3b4081a-8e49-44c1-b25f-8bb5677d04da",
        "meta": {
          "profile": [
            "http://hl7.eu/fhir/laboratory/StructureDefinition/Observation-resultslab-eu-lab"
          ]
        },
        "performer": [
          {
            "display": "The Central European Lab"
          }
        ],
        "category": [
          {
            "coding": [
              {
                "system": "http://terminology.hl7.org/CodeSystem/observation-category",
                "code": "laboratory"
              }
            ]
          }
        ],
        "code": {
          "coding": [
            {
              "code": "6299-2",
              "system": "http://loinc.org",
              "display": "Urea nitrogen [Mass/volume] in Blood"
            }
          ],
          "text": "Urea nitrogen [Mass/volume] in Blood"
        },
        "valueQuantity": {
          "system": "http://unitsofmeasure.org",
          "value": 9.8,
          "unit": "mg/dL",
          "code": "mg/dL"
        },
        "referenceRange": [
          {
            "low": {
              "value": 7,
              "code": "mg/dL",
              "system": "http://unitsofmeasure.org"
            }
          },
          {
            "high": {
              "value": 30,
              "code": "mg/dL",
              "system": "http://unitsofmeasure.org"
            }
          }
        ],
        "text": {
          "status": "generated",
          "div": "<div xmlns=\"http://www.w3.org/1999/xhtml\"><table class=\"hl7__eu__lab__report\"><tr><th>Test</th><th>08-Mar-2017</th><th>Reference&#xA0;Range</th><th>Unit</th></tr><tr><td>Urea nitrogen [Mass/volume] in Blood</td><td>9.8</td><td>7 - 30</td><td></td><td>mg/dL</td></tr></table></div>"
        },
        "status": "final",
        "subject": {
          "reference": "urn:uuid:dfb58571-1ad1-4868-ab6f-515b0e35e690",
          "display": "Maria Nohlmans"
        },
        "effectiveDateTime": "2017-03-08T11:02:39Z",
        "specimen": {
          "reference": "urn:uuid:a82cb54f-93f0-493c-b184-54888539ae64"
        }
      }
    },
    {
      "fullUrl": "urn:uuid:7960a41c-eb22-4e09-9a73-257392b247fa",
      "resource": {
        "resourceType": "Observation",
        "id": "7960a41c-eb22-4e09-9a73-257392b247fa",
        "meta": {
          "profile": [
            "http://hl7.eu/fhir/laboratory/StructureDefinition/Observation-resultslab-eu-lab"
          ]
        },
        "performer": [
          {
            "display": "The Central European Lab"
          }
        ],
        "category": [
          {
            "coding": [
              {
                "system": "http://terminology.hl7.org/CodeSystem/observation-category",
                "code": "laboratory"
              }
            ]
          }
        ],
        "code": {
          "coding": [
            {
              "code": "38483-4",
              "system": "http://loinc.org",
              "display": "Creatinine [Mass/volume] in Blood"
            }
          ],
          "text": "Creatinine [Mass/volume] in Blood"
        },
        "valueQuantity": {
          "system": "http://unitsofmeasure.org",
          "value": 4.7,
          "unit": "mg/dL",
          "code": "mg/dL"
        },
        "referenceRange": [
          {
            "low": {
              "value": 0.5,
              "code": "mg/dL",
              "system": "http://unitsofmeasure.org"
            }
          },
          {
            "high": {
              "value": 1.3,
              "code": "mg/dL",
              "system": "http://unitsofmeasure.org"
            }
          }
        ],
        "interpretation": [
          {
            "coding": [
              {
                "code": "H",
                "system": "http://terminology.hl7.org/CodeSystem/v3-ObservationInterpretation",
                "display": "High"
              }
            ]
          }
        ],
        "text": {
          "status": "generated",
          "div": "<div xmlns=\"http://www.w3.org/1999/xhtml\"><table class=\"hl7__eu__lab__report\"><tr><th>Test</th><th>08-Mar-2017</th><th>Reference&#xA0;Range</th><th>Unit</th></tr><tr><td>Creatinine [Mass/volume] in Blood</td><td>4.7</td><td>0.5 - 1.3</td><td>H</td><td>mg/dL</td></tr></table></div>"
        },
        "status": "final",
        "subject": {
          "reference": "urn:uuid:dfb58571-1ad1-4868-ab6f-515b0e35e690",
          "display": "Maria Nohlmans"
        },
        "effectiveDateTime": "2017-03-08T11:02:39Z",
        "specimen": {
          "reference": "urn:uuid:a82cb54f-93f0-493c-b184-54888539ae64"
        }
      }
    },
    {
      "fullUrl": "urn:uuid:73e715c7-eaff-4ffa-832c-fd9c5f68f7f0",
      "resource": {
        "resourceType": "Observation",
        "id": "73e715c7-eaff-4ffa-832c-fd9c5f68f7f0",
        "meta": {
          "profile": [
            "http://hl7.eu/fhir/laboratory/StructureDefinition/Observation-resultslab-eu-lab"
          ]
        },
        "performer": [
          {
            "display": "The Central European Lab"
          }
        ],
        "category": [
          {
            "coding": [
              {
                "system": "http://terminology.hl7.org/CodeSystem/observation-category",
                "code": "laboratory"
              }
            ]
          }
        ],
        "code": {
          "coding": [
            {
              "code": "49765-1",
              "system": "http://loinc.org",
              "display": "Calcium [Mass/volume] in Blood"
            }
          ],
          "text": "Calcium [Mass/volume] in Blood"
        },
        "valueQuantity": {
          "system": "http://unitsofmeasure.org",
          "value": 9,
          "unit": "mg/dL",
          "code": "mg/dL"
        },
        "referenceRange": [
          {
            "low": {
              "value": 8.6,
              "code": "mg/dL",
              "system": "http://unitsofmeasure.org"
            }
          },
          {
            "high": {
              "value": 10.2,
              "code": "mg/dL",
              "system": "http://unitsofmeasure.org"
            }
          }
        ],
        "text": {
          "status": "generated",
          "div": "<div xmlns=\"http://www.w3.org/1999/xhtml\"><table class=\"hl7__eu__lab__report\"><tr><th>Test</th><th>08-Mar-2017</th><th>Reference&#xA0;Range</th><th>Unit</th></tr><tr><td>Calcium [Mass/volume] in Blood</td><td>9.0</td><td>8.6 - 10.2</td><td></td><td>mg/dL</td></tr></table></div>"
        },
        "status": "final",
        "subject": {
          "reference": "urn:uuid:dfb58571-1ad1-4868-ab6f-515b0e35e690",
          "display": "Maria Nohlmans"
        },
        "effectiveDateTime": "2017-03-08T11:02:39Z",
        "specimen": {
          "reference": "urn:uuid:a82cb54f-93f0-493c-b184-54888539ae64"
        }
      }
    },
    {
      "fullUrl": "urn:uuid:d8019dea-4af3-42de-a1af-f8b5417075b7",
      "resource": {
        "resourceType": "Observation",
        "id": "d8019dea-4af3-42de-a1af-f8b5417075b7",
        "meta": {
          "profile": [
            "http://hl7.eu/fhir/laboratory/StructureDefinition/Observation-resultslab-eu-lab"
          ]
        },
        "performer": [
          {
            "display": "The Central European Lab"
          }
        ],
        "category": [
          {
            "coding": [
              {
                "system": "http://terminology.hl7.org/CodeSystem/observation-category",
                "code": "laboratory"
              }
            ]
          }
        ],
        "code": {
          "coding": [
            {
              "code": "2947-0",
              "system": "http://loinc.org",
              "display": "Sodium [Moles/volume] in Blood"
            }
          ],
          "text": "Sodium [Moles/volume] in Blood"
        },
        "valueQuantity": {
          "system": "http://unitsofmeasure.org",
          "value": 139.5,
          "unit": "mmol/L",
          "code": "mmol/L"
        },
        "referenceRange": [
          {
            "low": {
              "value": 135,
              "code": "mmol/L",
              "system": "http://unitsofmeasure.org"
            }
          },
          {
            "high": {
              "value": 145,
              "code": "mmol/L",
              "system": "http://unitsofmeasure.org"
            }
          }
        ],
        "text": {
          "status": "generated",
          "div": "<div xmlns=\"http://www.w3.org/1999/xhtml\"><table class=\"hl7__eu__lab__report\"><tr><th>Test</th><th>08-Mar-2017</th><th>Reference&#xA0;Range</th><th>Unit</th></tr><tr><td>Sodium [Moles/volume] in Blood</td><td>139.5</td><td>135 - 145</td><td></td><td>mmol/L</td></tr></table></div>"
        },
        "status": "final",
        "subject": {
          "reference": "urn:uuid:dfb58571-1ad1-4868-ab6f-515b0e35e690",
          "display": "Maria Nohlmans"
        },
        "effectiveDateTime": "2017-03-08T11:02:39Z",
        "specimen": {
          "reference": "urn:uuid:a82cb54f-93f0-493c-b184-54888539ae64"
        }
      }
    },
    {
      "fullUrl": "urn:uuid:021817d0-67d0-4ee4-80fa-2231df753768",
      "resource": {
        "resourceType": "Observation",
        "id": "021817d0-67d0-4ee4-80fa-2231df753768",
        "meta": {
          "profile": [
            "http://hl7.eu/fhir/laboratory/StructureDefinition/Observation-resultslab-eu-lab"
          ]
        },
        "performer": [
          {
            "display": "The Central European Lab"
          }
        ],
        "category": [
          {
            "coding": [
              {
                "system": "http://terminology.hl7.org/CodeSystem/observation-category",
                "code": "laboratory"
              }
            ]
          }
        ],
        "code": {
          "coding": [
            {
              "code": "6298-4",
              "system": "http://loinc.org",
              "display": "Potassium [Moles/volume] in Blood"
            }
          ],
          "text": "Potassium [Moles/volume] in Blood"
        },
        "valueQuantity": {
          "system": "http://unitsofmeasure.org",
          "value": 4,
          "unit": "mmol/L",
          "code": "mmol/L"
        },
        "referenceRange": [
          {
            "low": {
              "value": 3.5,
              "code": "mmol/L",
              "system": "http://unitsofmeasure.org"
            }
          },
          {
            "high": {
              "value": 5.1,
              "code": "mmol/L",
              "system": "http://unitsofmeasure.org"
            }
          }
        ],
        "text": {
          "status": "generated",
          "div": "<div xmlns=\"http://www.w3.org/1999/xhtml\"><table class=\"hl7__eu__lab__report\"><tr><th>Test</th><th>08-Mar-2017</th><th>Reference&#xA0;Range</th><th>Unit</th></tr><tr><td>Potassium [Moles/volume] in Blood</td><td>4.0</td><td>3.5 - 5.1</td><td></td><td>mmol/L</td></tr></table></div>"
        },
        "status": "final",
        "subject": {
          "reference": "urn:uuid:dfb58571-1ad1-4868-ab6f-515b0e35e690",
          "display": "Maria Nohlmans"
        },
        "effectiveDateTime": "2017-03-08T11:02:39Z",
        "specimen": {
          "reference": "urn:uuid:a82cb54f-93f0-493c-b184-54888539ae64"
        }
      }
    },
    {
      "fullUrl": "urn:uuid:a70750bf-a34d-4c00-b485-f963d027c03b",
      "resource": {
        "resourceType": "Observation",
        "id": "a70750bf-a34d-4c00-b485-f963d027c03b",
        "meta": {
          "profile": [
            "http://hl7.eu/fhir/laboratory/StructureDefinition/Observation-resultslab-eu-lab"
          ]
        },
        "performer": [
          {
            "display": "The Central European Lab"
          }
        ],
        "category": [
          {
            "coding": [
              {
                "system": "http://terminology.hl7.org/CodeSystem/observation-category",
                "code": "laboratory"
              }
            ]
          }
        ],
        "code": {
          "coding": [
            {
              "code": "2069-3",
              "system": "http://loinc.org",
              "display": "Chloride [Moles/volume] in Blood"
            }
          ],
          "text": "Chloride [Moles/volume] in Blood"
        },
        "valueQuantity": {
          "system": "http://unitsofmeasure.org",
          "value": 107.4,
          "unit": "mmol/L",
          "code": "mmol/L"
        },
        "referenceRange": [
          {
            "low": {
              "value": 98,
              "code": "mmol/L",
              "system": "http://unitsofmeasure.org"
            }
          },
          {
            "high": {
              "value": 114,
              "code": "mmol/L",
              "system": "http://unitsofmeasure.org"
            }
          }
        ],
        "text": {
          "status": "generated",
          "div": "<div xmlns=\"http://www.w3.org/1999/xhtml\"><table class=\"hl7__eu__lab__report\"><tr><th>Test</th><th>08-Mar-2017</th><th>Reference&#xA0;Range</th><th>Unit</th></tr><tr><td>Chloride [Moles/volume] in Blood</td><td>107.4</td><td>98 - 114</td><td></td><td>mmol/L</td></tr></table></div>"
        },
        "status": "final",
        "subject": {
          "reference": "urn:uuid:dfb58571-1ad1-4868-ab6f-515b0e35e690",
          "display": "Maria Nohlmans"
        },
        "effectiveDateTime": "2017-03-08T11:02:39Z",
        "specimen": {
          "reference": "urn:uuid:a82cb54f-93f0-493c-b184-54888539ae64"
        }
      }
    },
    {
      "fullUrl": "urn:uuid:09a886ea-1f3a-4aa5-86e6-2e7afa742992",
      "resource": {
        "resourceType": "Observation",
        "id": "09a886ea-1f3a-4aa5-86e6-2e7afa742992",
        "meta": {
          "profile": [
            "http://hl7.eu/fhir/laboratory/StructureDefinition/Observation-resultslab-eu-lab"
          ]
        },
        "performer": [
          {
            "display": "The Central European Lab"
          }
        ],
        "category": [
          {
            "coding": [
              {
                "system": "http://terminology.hl7.org/CodeSystem/observation-category",
                "code": "laboratory"
              }
            ]
          }
        ],
        "code": {
          "coding": [
            {
              "code": "20565-8",
              "system": "http://loinc.org",
              "display": "Carbon dioxide, total [Moles/volume] in Blood"
            }
          ],
          "text": "Carbon dioxide, total [Moles/volume] in Blood"
        },
        "valueQuantity": {
          "system": "http://unitsofmeasure.org",
          "value": 23.5,
          "unit": "mmol/L",
          "code": "mmol/L"
        },
        "referenceRange": [
          {
            "low": {
              "value": 22,
              "code": "mmol/L",
              "system": "http://unitsofmeasure.org"
            }
          },
          {
            "high": {
              "value": 32,
              "code": "mmol/L",
              "system": "http://unitsofmeasure.org"
            }
          }
        ],
        "text": {
          "status": "generated",
          "div": "<div xmlns=\"http://www.w3.org/1999/xhtml\"><table class=\"hl7__eu__lab__report\"><tr><th>Test</th><th>08-Mar-2017</th><th>Reference&#xA0;Range</th><th>Unit</th></tr><tr><td>Carbon dioxide, total [Moles/volume] in Blood</td><td>23.5</td><td>22 - 32</td><td></td><td>mmol/L</td></tr></table></div>"
        },
        "status": "final",
        "subject": {
          "reference": "urn:uuid:dfb58571-1ad1-4868-ab6f-515b0e35e690",
          "display": "Maria Nohlmans"
        },
        "effectiveDateTime": "2017-03-08T11:02:39Z",
        "specimen": {
          "reference": "urn:uuid:a82cb54f-93f0-493c-b184-54888539ae64"
        }
      }
    },
    {
      "fullUrl": "urn:uuid:48481990-e482-43dd-a7a2-c967cd08d975",
      "resource": {
        "resourceType": "Device",
        "id": "48481990-e482-43dd-a7a2-c967cd08d975",
        "deviceName": [
          {
            "name": "SYNDERAI Synthetic Generator",
            "type": "manufacturer-name"
          }
        ],
        "version": [
          {
            "value": "5.0"
          }
        ],
        "text": {
          "status": "generated",
          "div": "<div xmlns=\"http://www.w3.org/1999/xhtml\">SYNDERAI Synthetic Generator v5.0</div>"
        },
        "status": "active\"",
        "distinctIdentifier": "synderai-generator-50",
        "manufacturer": "SYNDERAI Project"
      }
    },
    {
      "fullUrl": "urn:uuid:78e9043e-7a69-4152-8f2a-83373dcc21f2",
      "resource": {
        "resourceType": "Provenance",
        "id": "78e9043e-7a69-4152-8f2a-83373dcc21f2",
        "target": [
          {
            "reference": "Patient/dfb58571-1ad1-4868-ab6f-515b0e35e690"
          },
          {
            "reference": "Bundle/fb2b67aa-9c41-49ff-8d48-ddcf477c7eb6"
          },
          {
            "reference": "Composition/9f7d7307-2302-49e9-8a60-d8371a993b16"
          },
          {
            "reference": "PractitionerRole/4806403a-efbe-47b5-ad41-24c6c4b622fa"
          },
          {
            "reference": "Practitioner/030475b1-c2f8-46ff-a43e-21238c0b8ff8"
          },
          {
            "reference": "PractitionerRole/0640bcab-8571-416f-bfcf-4f371c61e358"
          },
          {
            "reference": "Organization/e888b564-3156-4f84-a23d-1fe8a496a10c"
          }
        ],
        "activity": {
          "text": "Synthetic Example Data Generation"
        },
        "policy": [
          "https://synderai.net/synderai-synthetic-data-policy"
        ],
        "agent": [
          {
            "type": {
              "text": "author"
            },
            "who": {
              "reference": "Device/48481990-e482-43dd-a7a2-c967cd08d975"
            }
          }
        ],
        "reason": [
          {
            "text": "Interoperability Testing and Training (non-clinical use)"
          }
        ],
        "text": {
          "status": "generated",
          "div": "<div xmlns=\"http://www.w3.org/1999/xhtml\">Provenance for SYNDERAI Synthetic Example Data Resource</div>"
        },
        "recorded": "2017-03-08T12:02:39Z"
      }
    },
    {
      "fullUrl": "urn:uuid:4806403a-efbe-47b5-ad41-24c6c4b622fa",
      "resource": {
        "resourceType": "PractitionerRole",
        "id": "4806403a-efbe-47b5-ad41-24c6c4b622fa",
        "meta": {
          "profile": [
            "http://hl7.eu/fhir/base/StructureDefinition/practitionerRole-eu"
          ]
        },
        "text": {
          "status": "generated",
          "div": "<div xmlns=\"http://www.w3.org/1999/xhtml\">Laboratory Role Id: 4806403a-efbe-47b5-ad41-24c6c4b622fa</div>"
        },
        "practitioner": {
          "reference": "urn:uuid:030475b1-c2f8-46ff-a43e-21238c0b8ff8"
        }
      }
    },
    {
      "fullUrl": "urn:uuid:030475b1-c2f8-46ff-a43e-21238c0b8ff8",
      "resource": {
        "resourceType": "Practitioner",
        "id": "030475b1-c2f8-46ff-a43e-21238c0b8ff8",
        "meta": {
          "profile": [
            "http://hl7.eu/fhir/base/StructureDefinition/practitioner-eu"
          ]
        },
        "identifier": [
          {
            "assigner": {
              "display": "HL7 Europe"
            },
            "system": "urn:oid:2.16.840.1.113883.2.51.999",
            "value": "2148e378-34bf-407a-8df6-e4fdd4e7e86c"
          }
        ],
        "name": [
          {
            "prefix": [
              "dr"
            ],
            "given": [
              "Ex"
            ],
            "family": "Ample"
          }
        ],
        "address": [
          {
            "line": [
              "Laboratoire Central Européenne",
              "Boulevard du Jardin Botanique 32"
            ],
            "postalCode": "1000",
            "city": "Brussels",
            "country": "Belgium"
          }
        ],
        "text": {
          "status": "generated",
          "div": "<div xmlns=\"http://www.w3.org/1999/xhtml\">Laboratory: Laboratoire Central Européenne, 1000 Brussels, Belgium</div>"
        }
      }
    }
  ],
  "type": "document",
  "timestamp": "2017-03-08T12:02:39Z"
}
