{
  "resourceType": "Bundle",
  "id": "5dbc3ac9-bedb-4c1f-bb44-2da504b2552a",
  "meta": {
    "profile": [
      "http://hl7.eu/fhir/laboratory/StructureDefinition/Bundle-eu-lab"
    ]
  },
  "identifier": {
    "assigner": {
      "display": "HL7 Europe"
    },
    "system": "urn:oid:2.16.840.1.113883.2.51.999",
    "value": "023466b1-ab2b-456e-829d-f5b9c165a45f"
  },
  "entry": [
    {
      "fullUrl": "urn:uuid:9599409c-46e2-4a5e-aff0-a536ddad014c",
      "resource": {
        "resourceType": "Composition",
        "id": "9599409c-46e2-4a5e-aff0-a536ddad014c",
        "meta": {
          "profile": [
            "http://hl7.eu/fhir/laboratory/StructureDefinition/Composition-eu-lab"
          ]
        },
        "identifier": {
          "assigner": {
            "display": "HL7 Europe"
          },
          "system": "urn:oid:2.16.840.1.113883.2.51.999",
          "value": "46b399a2-fbff-423c-882c-bb0eaf494542"
        },
        "author": [
          {
            "reference": "urn:uuid:e5a685a4-a95d-4761-bb8e-ea0e082084b8"
          }
        ],
        "category": [
          {
            "coding": [
              {
                "code": "26436-6",
                "system": "http://loinc.org",
                "display": "Laboratory studies (set)"
              }
            ]
          }
        ],
        "type": {
          "coding": [
            {
              "code": "11502-2",
              "system": "http://loinc.org",
              "display": "Laboratory report"
            }
          ],
          "text": "Laboratory Report"
        },
        "section": [
          {
            "code": {
              "coding": [
                {
                  "code": "26436-6",
                  "system": "http://loinc.org",
                  "display": "Laboratory studies (set)"
                }
              ],
              "text": "Laboratory studies"
            },
            "section": [
              {
                "code": {
                  "coding": [
                    {
                      "code": "$18719-5",
                      "system": "http://loinc.org",
                      "display": "Chemistry studies (set)"
                    }
                  ],
                  "text": "Chemistry"
                },
                "entry": [
                  {
                    "reference": "urn:uuid:8a64b6e7-9b91-4d71-9ece-dffac96a6fb3"
                  },
                  {
                    "reference": "urn:uuid:fb9189fc-f6e6-42ef-ab93-c4440a2e01af"
                  },
                  {
                    "reference": "urn:uuid:e2528eb5-ff15-4782-b1f1-0160239dc27f"
                  },
                  {
                    "reference": "urn:uuid:dad8168a-4322-4d6f-a6b9-827e737d4db8"
                  },
                  {
                    "reference": "urn:uuid:884b48c0-8432-4830-ad97-4e7d227a54f7"
                  },
                  {
                    "reference": "urn:uuid:c240536c-e0c5-4c35-9133-18bd8a9a9069"
                  },
                  {
                    "reference": "urn:uuid:8d9fe388-63af-450e-8684-8696438a859a"
                  },
                  {
                    "reference": "urn:uuid:78cc4a9c-dbf8-4fd9-ac2b-97e1c30ac7a7"
                  },
                  {
                    "reference": "urn:uuid:0749a051-a628-4077-948a-f9b4fbff8759"
                  }
                ],
                "text": {
                  "status": "generated",
                  "div": "<div xmlns=\"http://www.w3.org/1999/xhtml\"><h3>Chemistry</h3><table class=\"hl7__eu__lab__report\"><thead><tr><th>Test</th><th>12-DEC-2024</th><th>Reference&#xA0;Range</th><th>Unit</th></tr></thead><tbody><tr><td>Glucose [Mass/volume] in Serum or Plasma</td><td>77.4</td><td>70 - 140</td><td>mg/dL</td></tr><tr><td>Urea nitrogen [Mass/volume] in Serum or Plasma</td><td>7.9</td><td>7 - 50</td><td>mg/dL</td></tr><tr><td>Creatinine [Mass/volume] in Serum or Plasma</td><td><strong>1.9 H</strong></td><td>0.6 - 1.1</td><td>mg/dL</td></tr><tr><td>Calcium [Mass/volume] in Serum or Plasma</td><td>9.6</td><td>8.5 - 10.5</td><td>mg/dL</td></tr><tr><td>Sodium [Moles/volume] in Serum or Plasma</td><td>141.5</td><td>135 - 145</td><td>mmol/L</td></tr><tr><td>Potassium [Moles/volume] in Serum or Plasma</td><td>3.7</td><td>3.5 - 5.1</td><td>mmol/L</td></tr><tr><td>Chloride [Moles/volume] in Serum or Plasma</td><td>106.7</td><td>98 - 108</td><td>mmol/L</td></tr><tr><td>Carbon dioxide, total [Moles/volume] in Serum or Plasma</td><td>24.3</td><td>22 - 32</td><td>mmol/L</td></tr><tr><td>Ketones [Presence] in Urine by Test strip</td><td>Urine ketone test = +</td><td></td><td></td></tr></tbody></table></div>"
                },
                "title": "Chemistry"
              },
              {
                "code": {
                  "coding": [
                    {
                      "code": "$18729-4",
                      "system": "http://loinc.org",
                      "display": "Urinalysis studies (set)"
                    }
                  ],
                  "text": "Urinalysis"
                },
                "entry": [
                  {
                    "reference": "urn:uuid:1c8de0e9-e22b-45ba-9a08-5de8b83e8429"
                  },
                  {
                    "reference": "urn:uuid:34e1eaed-9014-4c27-85e3-3bddc8a11d38"
                  },
                  {
                    "reference": "urn:uuid:9a048394-c2cc-4f92-9f7a-04cd7f5db32d"
                  },
                  {
                    "reference": "urn:uuid:ea42ed50-e13b-4f60-8af3-a6ac1a5022e0"
                  },
                  {
                    "reference": "urn:uuid:5e4c5041-a3f7-468d-83a4-ba1fc704a32e"
                  },
                  {
                    "reference": "urn:uuid:ca32220f-b243-402d-9d65-02612fcf6c62"
                  },
                  {
                    "reference": "urn:uuid:b2841ae6-d02d-43e6-83a7-019dd84e1283"
                  },
                  {
                    "reference": "urn:uuid:b60734bb-f369-4ba5-afcc-8ea147123900"
                  },
                  {
                    "reference": "urn:uuid:f7f73a07-71a5-4496-91ae-128b7e8e085a"
                  },
                  {
                    "reference": "urn:uuid:95689805-13d9-4988-920c-372674390556"
                  },
                  {
                    "reference": "urn:uuid:5111ecd1-2ea1-4329-a81b-8f3de2cef0cc"
                  },
                  {
                    "reference": "urn:uuid:1609b208-9b6c-4e7c-885a-7ccd21241b5f"
                  }
                ],
                "text": {
                  "status": "generated",
                  "div": "<div xmlns=\"http://www.w3.org/1999/xhtml\"><h3>Urinalysis</h3><table class=\"hl7__eu__lab__report\"><thead><tr><th>Test</th><th>12-DEC-2024</th><th>Reference&#xA0;Range</th><th>Unit</th></tr></thead><tbody><tr><td>Glucose [Mass/volume] in Urine by Test strip</td><td><strong>1.6 H</strong></td><td>0.8 - 0</td><td>mg/dL</td></tr><tr><td>Glucose [Presence] in Urine by Test strip</td><td>++</td><td></td><td></td></tr><tr><td>Bilirubin.total [Mass/volume] in Urine by Test strip</td><td>0.3</td><td>0 - 1</td><td>mg/dL</td></tr><tr><td>Bilirubin.total [Presence] in Urine by Test strip</td><td>Finding of bilirubin in urine</td><td></td><td></td></tr><tr><td>Ketones [Mass/volume] in Urine by Test strip</td><td>1.9</td><td>0 - 20</td><td>mg/dL</td></tr><tr><td>Specific gravity of Urine by Test strip</td><td><strong>1.0 L</strong></td><td>1.01 - 1.03</td><td>{nominal}</td></tr><tr><td>pH of Urine by Test strip</td><td>5.2</td><td>4.6 - 7</td><td>pH</td></tr><tr><td>Protein [Mass/volume] in Urine by Test strip</td><td><strong>335.3 H</strong></td><td>0 - 15</td><td>mg/dL</td></tr><tr><td>Protein [Presence] in Urine by Test strip</td><td>Urine protein test = ++</td><td></td><td></td></tr><tr><td>Nitrite [Presence] in Urine by Test strip</td><td>Urine nitrite negative</td><td></td><td></td></tr><tr><td>Hemoglobin [Presence] in Urine by Test strip</td><td>Urine blood test = negative</td><td></td><td></td></tr><tr><td>Leukocyte esterase [Presence] in Urine by Test strip</td><td>Urine leukocyte test negative</td><td></td><td></td></tr></tbody></table></div>"
                },
                "title": "Urinalysis"
              },
              {
                "code": {
                  "coding": [
                    {
                      "code": "$LP7846-1",
                      "system": "http://loinc.org",
                      "display": "Specimen information"
                    }
                  ],
                  "text": "Specimen information"
                },
                "entry": [
                  {
                    "reference": "urn:uuid:69d80103-fbe3-4f18-8914-a69087b3dab5"
                  },
                  {
                    "reference": "urn:uuid:17202984-f96c-4ee8-a184-8446f0ca29d4"
                  },
                  {
                    "reference": "urn:uuid:c97a5cf9-a1a8-4be6-a330-20d7e60bd1b1"
                  },
                  {
                    "reference": "urn:uuid:db7177c9-09f4-44c3-b5d8-3bec45da54a8"
                  }
                ],
                "text": {
                  "status": "generated",
                  "div": "<div xmlns=\"http://www.w3.org/1999/xhtml\"><h3>Specimen information</h3><table class=\"hl7__eu__lab__report\"><thead><tr><th>Test</th><th>12-DEC-2024</th><th>Specimen</th><th></th></tr></thead><tbody><tr><td>Appearance of Urine</td><td>Cloudy urine</td><td>Urine</td><td></td></tr><tr><td>Odor of Urine</td><td>Urine smell ammoniacal</td><td>Urine</td><td></td></tr><tr><td>Clarity of Urine</td><td>Translucent</td><td>Urine</td><td></td></tr><tr><td>Color of Urine</td><td>Brown color</td><td>Urine</td><td></td></tr></tbody></table></div>"
                },
                "title": "Specimen information"
              }
            ],
            "title": "Laboratory Report"
          },
          {
            "text": {
              "status": "generated",
              "div": "<div xmlns=\"http://www.w3.org/1999/xhtml\"><h3>Annotation</h3><table class=\"hl7__eu__lab__report\"><tr><th>Conclusion and Recommendations based on this report and previous findings known to us</th></tr><tr><td>The patient shows elevated serum creatinine, indicating possible renal impairment. Urinalysis reveals significant proteinuria, glucosuria, low specific gravity, and mild ketonuria, with no hematuria or leukocyturia. Urine is cloudy, brown, and ammoniacal. These findings suggest impaired renal function, likely of chronic nature, with possible tubular dysfunction. No clear evidence of urinary tract infection. Further nephrological evaluation is recommended.</td></tr></table></div>"
            },
            "code": {
              "coding": [
                {
                  "system": "http://loinc.org",
                  "code": "48767-8",
                  "display": "Annotation comment"
                }
              ]
            },
            "title": "Annotation comment"
          }
        ],
        "status": "final",
        "subject": {
          "reference": "urn:uuid:3544a470-ca81-4cc1-8474-b5295e64a623",
          "display": "Marthe Gallet"
        },
        "date": "2024-12-12T20:05:43Z",
        "title": "Laboratory Report",
        "confidentiality": "N"
      }
    },
    {
      "fullUrl": "urn:uuid:c4829054-d9e2-4f43-b74c-49fbac834216",
      "resource": {
        "resourceType": "DiagnosticReport",
        "id": "c4829054-d9e2-4f43-b74c-49fbac834216",
        "meta": {
          "profile": [
            "http://hl7.eu/fhir/laboratory/StructureDefinition/DiagnosticReport-eu-lab"
          ]
        },
        "identifier": [
          {
            "assigner": {
              "display": "HL7 Europe"
            },
            "system": "urn:oid:2.16.840.1.113883.2.51.999",
            "value": "4d9fa970-7626-4fe7-ba61-6eba57b2e38f"
          }
        ],
        "extension": [
          {
            "url": "http://hl7.org/fhir/5.0/StructureDefinition/extension-DiagnosticReport.composition",
            "valueReference": {
              "reference": "urn:uuid:46b399a2-fbff-423c-882c-bb0eaf494542"
            }
          }
        ],
        "category": [
          {
            "coding": [
              {
                "code": "26436-6",
                "system": "http://loinc.org",
                "display": "Laboratory studies (set)"
              }
            ]
          }
        ],
        "specimen": [
          {
            "reference": "urn:uuid:91dbfebb-c684-426d-959e-4611da55c36c"
          },
          {
            "reference": "urn:uuid:3b2f41ad-104a-4d0d-9f9b-ff6642a5d5b0"
          }
        ],
        "result": [
          {
            "reference": "urn:uuid:8a64b6e7-9b91-4d71-9ece-dffac96a6fb3"
          },
          {
            "reference": "urn:uuid:fb9189fc-f6e6-42ef-ab93-c4440a2e01af"
          },
          {
            "reference": "urn:uuid:e2528eb5-ff15-4782-b1f1-0160239dc27f"
          },
          {
            "reference": "urn:uuid:dad8168a-4322-4d6f-a6b9-827e737d4db8"
          },
          {
            "reference": "urn:uuid:884b48c0-8432-4830-ad97-4e7d227a54f7"
          },
          {
            "reference": "urn:uuid:c240536c-e0c5-4c35-9133-18bd8a9a9069"
          },
          {
            "reference": "urn:uuid:8d9fe388-63af-450e-8684-8696438a859a"
          },
          {
            "reference": "urn:uuid:78cc4a9c-dbf8-4fd9-ac2b-97e1c30ac7a7"
          },
          {
            "reference": "urn:uuid:69d80103-fbe3-4f18-8914-a69087b3dab5"
          },
          {
            "reference": "urn:uuid:17202984-f96c-4ee8-a184-8446f0ca29d4"
          },
          {
            "reference": "urn:uuid:c97a5cf9-a1a8-4be6-a330-20d7e60bd1b1"
          },
          {
            "reference": "urn:uuid:db7177c9-09f4-44c3-b5d8-3bec45da54a8"
          },
          {
            "reference": "urn:uuid:1c8de0e9-e22b-45ba-9a08-5de8b83e8429"
          },
          {
            "reference": "urn:uuid:34e1eaed-9014-4c27-85e3-3bddc8a11d38"
          },
          {
            "reference": "urn:uuid:9a048394-c2cc-4f92-9f7a-04cd7f5db32d"
          },
          {
            "reference": "urn:uuid:ea42ed50-e13b-4f60-8af3-a6ac1a5022e0"
          },
          {
            "reference": "urn:uuid:5e4c5041-a3f7-468d-83a4-ba1fc704a32e"
          },
          {
            "reference": "urn:uuid:0749a051-a628-4077-948a-f9b4fbff8759"
          },
          {
            "reference": "urn:uuid:ca32220f-b243-402d-9d65-02612fcf6c62"
          },
          {
            "reference": "urn:uuid:b2841ae6-d02d-43e6-83a7-019dd84e1283"
          },
          {
            "reference": "urn:uuid:b60734bb-f369-4ba5-afcc-8ea147123900"
          },
          {
            "reference": "urn:uuid:f7f73a07-71a5-4496-91ae-128b7e8e085a"
          },
          {
            "reference": "urn:uuid:95689805-13d9-4988-920c-372674390556"
          },
          {
            "reference": "urn:uuid:5111ecd1-2ea1-4329-a81b-8f3de2cef0cc"
          },
          {
            "reference": "urn:uuid:1609b208-9b6c-4e7c-885a-7ccd21241b5f"
          }
        ],
        "status": "registered",
        "code": {
          "coding": [
            {
              "code": "11502-2",
              "system": "http://loinc.org",
              "display": "Laboratory report"
            }
          ]
        },
        "subject": {
          "reference": "urn:uuid:3544a470-ca81-4cc1-8474-b5295e64a623",
          "display": "Marthe Gallet"
        }
      }
    },
    {
      "fullUrl": "urn:uuid:3544a470-ca81-4cc1-8474-b5295e64a623",
      "resource": {
        "resourceType": "Patient",
        "id": "3544a470-ca81-4cc1-8474-b5295e64a623",
        "meta": {
          "security": [
            {
              "system": "http://terminology.hl7.org/CodeSystem/v3-ActReason",
              "code": "HTEST"
            },
            {
              "system": "http://terminology.hl7.org/CodeSystem/v3-ActReason",
              "code": "TRAIN"
            }
          ],
          "tag": [
            {
              "system": "https://synderai.net/fhir/CodeSystem/tags",
              "code": "synthetic",
              "display": "SYNDERAI Synthetic data"
            }
          ],
          "profile": [
            "http://hl7.eu/fhir/base/StructureDefinition/patient-eu-core"
          ]
        },
        "identifier": [
          {
            "type": {
              "coding": [
                {
                  "code": "PT",
                  "system": "http://terminology.hl7.org/CodeSystem/v2-0203"
                }
              ]
            },
            "system": "http://ec.europa.eu/identifier/eci",
            "value": "9444-947487-6"
          },
          {
            "type": {
              "coding": [
                {
                  "code": "MR",
                  "system": "http://terminology.hl7.org/CodeSystem/v2-0203"
                }
              ]
            },
            "system": "http://local.setting.eu/identifier",
            "value": "854228d5-a476-2d9c-a1d7-c3202375a617"
          }
        ],
        "name": [
          {
            "family": "Gallet"
          },
          {
            "given": [
              "Marthe"
            ]
          },
          {
            "text": "Marthe Gallet"
          }
        ],
        "address": [
          {
            "line": [
              "3, rue Emmanuel Goncalves"
            ],
            "use": "home",
            "type": "physical",
            "postalCode": "49490",
            "city": "Briand",
            "country": "France"
          }
        ],
        "telecom": [
          {
            "system": "phone",
            "value": "+33 1 70 99 82 74"
          }
        ],
        "extension": [
          {
            "url": "http://hl7.org/fhir/StructureDefinition/patient-nationality",
            "valueCodeableConcept": {
              "coding": [
                {
                  "code": "FR",
                  "system": "http://hl7.org/fhir/ValueSet/country"
                }
              ]
            }
          }
        ],
        "text": {
          "status": "generated",
          "div": "<div xmlns=\"http://www.w3.org/1999/xhtml\"><table class=\"hl7__ips\"><tr><td>Marthe Gallet</td><td>female</td><td>29-Oct-1950</td></tr></table></div>"
        },
        "gender": "female",
        "birthDate": "1950-10-29"
      }
    },
    {
      "fullUrl": "urn:uuid:e41adaa9-0aa0-45c6-b5c2-e79cad3dbba3",
      "resource": {
        "resourceType": "ServiceRequest",
        "id": "e41adaa9-0aa0-45c6-b5c2-e79cad3dbba3",
        "meta": {
          "profile": [
            "http://hl7.eu/fhir/laboratory/StructureDefinition/ServiceRequest-eu-lab"
          ]
        },
        "identifier": [
          {
            "system": "http://example.org",
            "value": "c60c8602-e4c4-4cd7-88d2-aa4b23eb897e"
          }
        ],
        "specimen": [
          {
            "reference": "urn:uuid:91dbfebb-c684-426d-959e-4611da55c36c"
          },
          {
            "reference": "urn:uuid:3b2f41ad-104a-4d0d-9f9b-ff6642a5d5b0"
          }
        ],
        "reasonCode": [
          {
            "coding": [
              {
                "code": "431856006",
                "system": "http://snomed.info/sct",
                "display": "Chronic kidney disease stage 2"
              }
            ]
          },
          {
            "coding": [
              {
                "code": "90781000119102",
                "system": "http://snomed.info/sct",
                "display": "Microalbuminuria due to type 2 diabetes mellitus"
              }
            ]
          },
          {
            "coding": [
              {
                "code": "127013003",
                "system": "http://snomed.info/sct",
                "display": "Disorder of kidney due to diabetes mellitus"
              }
            ]
          },
          {
            "coding": [
              {
                "code": "431855005",
                "system": "http://snomed.info/sct",
                "display": "Chronic kidney disease stage 1"
              }
            ]
          },
          {
            "coding": [
              {
                "code": "55822004",
                "system": "http://snomed.info/sct",
                "display": "Hyperlipidemia"
              }
            ]
          },
          {
            "coding": [
              {
                "code": "59621000",
                "system": "http://snomed.info/sct",
                "display": "Essential hypertension"
              }
            ]
          }
        ],
        "status": "active",
        "intent": "order",
        "code": {
          "coding": [
            {
              "code": "108252007",
              "system": "http://snomed.info/sct",
              "display": "Laboratory procedure"
            }
          ]
        },
        "subject": {
          "reference": "urn:uuid:3544a470-ca81-4cc1-8474-b5295e64a623",
          "display": "Marthe Gallet"
        },
        "requester": {
          "reference": "urn:uuid:82deef8a-cd86-4657-a1bd-fd2e8fd66d71"
        }
      }
    },
    {
      "fullUrl": "urn:uuid:82deef8a-cd86-4657-a1bd-fd2e8fd66d71",
      "resource": {
        "resourceType": "PractitionerRole",
        "id": "82deef8a-cd86-4657-a1bd-fd2e8fd66d71",
        "meta": {
          "profile": [
            "http://hl7.eu/fhir/base/StructureDefinition/practitionerRole-eu"
          ]
        },
        "text": {
          "status": "generated",
          "div": "<div xmlns=\"http://www.w3.org/1999/xhtml\">Provider Role Id: 82deef8a-cd86-4657-a1bd-fd2e8fd66d71</div>"
        },
        "organization": {
          "reference": "urn:uuid:16c1b54d-f75c-47c8-924f-c822948b01f9"
        }
      }
    },
    {
      "fullUrl": "urn:uuid:16c1b54d-f75c-47c8-924f-c822948b01f9",
      "resource": {
        "resourceType": "Organization",
        "id": "16c1b54d-f75c-47c8-924f-c822948b01f9",
        "meta": {
          "profile": [
            "http://hl7.eu/fhir/base/StructureDefinition/organization-eu"
          ]
        },
        "identifier": [
          {
            "assigner": {
              "display": "HL7 Europe"
            },
            "system": "urn:oid:2.16.840.1.113883.2.51.999",
            "value": "b7e20ec6-1512-44d8-b9b9-30d1a811623e"
          }
        ],
        "address": [
          {
            "line": [
              "Rue Larrey nan"
            ],
            "city": "Angers",
            "postalCode": "49100",
            "country": "France"
          }
        ],
        "text": {
          "status": "generated",
          "div": "<div xmlns=\"http://www.w3.org/1999/xhtml\">Provider Organization: CHU d&#039;Angers</div>"
        },
        "name": "CHU d&#039;Angers"
      }
    },
    {
      "fullUrl": "urn:uuid:91dbfebb-c684-426d-959e-4611da55c36c",
      "resource": {
        "resourceType": "Specimen",
        "id": "91dbfebb-c684-426d-959e-4611da55c36c",
        "meta": {
          "profile": [
            "http://hl7.eu/fhir/laboratory/StructureDefinition/Specimen-eu-lab"
          ]
        },
        "collection": {
          "collectedDateTime": "2024-12-12"
        },
        "text": {
          "status": "generated",
          "div": "<div xmlns=\"http://www.w3.org/1999/xhtml\"><table class=\"hl7__eu__lab__report\"><tr><th>Specimen</th><th>Collection Date</th></tr><tr><td>Acellular blood (serum or plasma) specimen</td><td><span class=\"nb\">12-Dec-2024</span></td></tr></table></div>"
        },
        "type": {
          "coding": [
            {
              "code": "122592007",
              "system": "http://snomed.info/sct",
              "display": "Acellular blood (serum or plasma) specimen"
            }
          ]
        }
      }
    },
    {
      "fullUrl": "urn:uuid:3b2f41ad-104a-4d0d-9f9b-ff6642a5d5b0",
      "resource": {
        "resourceType": "Specimen",
        "id": "3b2f41ad-104a-4d0d-9f9b-ff6642a5d5b0",
        "meta": {
          "profile": [
            "http://hl7.eu/fhir/laboratory/StructureDefinition/Specimen-eu-lab"
          ]
        },
        "collection": {
          "collectedDateTime": "2024-12-12"
        },
        "text": {
          "status": "generated",
          "div": "<div xmlns=\"http://www.w3.org/1999/xhtml\"><table class=\"hl7__eu__lab__report\"><tr><th>Specimen</th><th>Collection Date</th></tr><tr><td>Urine specimen</td><td><span class=\"nb\">12-Dec-2024</span></td></tr></table></div>"
        },
        "type": {
          "coding": [
            {
              "code": "122575003",
              "system": "http://snomed.info/sct",
              "display": "Urine specimen"
            }
          ]
        }
      }
    },
    {
      "fullUrl": "urn:uuid:8a64b6e7-9b91-4d71-9ece-dffac96a6fb3",
      "resource": {
        "resourceType": "Observation",
        "id": "8a64b6e7-9b91-4d71-9ece-dffac96a6fb3",
        "meta": {
          "profile": [
            "http://hl7.eu/fhir/laboratory/StructureDefinition/Observation-resultslab-eu-lab"
          ]
        },
        "performer": [
          {
            "display": "The Central European Lab"
          }
        ],
        "category": [
          {
            "coding": [
              {
                "system": "http://terminology.hl7.org/CodeSystem/observation-category",
                "code": "laboratory"
              }
            ]
          }
        ],
        "code": {
          "coding": [
            {
              "code": "2345-7",
              "system": "http://loinc.org",
              "display": "Glucose [Mass/volume] in Serum or Plasma"
            }
          ],
          "text": "Glucose [Mass/volume] in Serum or Plasma"
        },
        "valueQuantity": {
          "system": "http://unitsofmeasure.org",
          "value": 77.4,
          "unit": "mg/dL",
          "code": "mg/dL"
        },
        "referenceRange": [
          {
            "low": {
              "value": 70,
              "code": "mg/dL",
              "system": "http://unitsofmeasure.org"
            }
          },
          {
            "high": {
              "value": 140,
              "code": "mg/dL",
              "system": "http://unitsofmeasure.org"
            }
          }
        ],
        "text": {
          "status": "generated",
          "div": "<div xmlns=\"http://www.w3.org/1999/xhtml\"><table class=\"hl7__eu__lab__report\"><tr><th>Test</th><th>12-Dec-2024</th><th>Reference&#xA0;Range</th><th>Unit</th></tr><tr><td>Glucose [Mass/volume] in Serum or Plasma</td><td>77.4</td><td>70 - 140</td><td></td><td>mg/dL</td></tr></table></div>"
        },
        "status": "final",
        "subject": {
          "reference": "urn:uuid:3544a470-ca81-4cc1-8474-b5295e64a623",
          "display": "Marthe Gallet"
        },
        "effectiveDateTime": "2024-12-12T19:05:43Z",
        "specimen": {
          "reference": "urn:uuid:91dbfebb-c684-426d-959e-4611da55c36c"
        }
      }
    },
    {
      "fullUrl": "urn:uuid:fb9189fc-f6e6-42ef-ab93-c4440a2e01af",
      "resource": {
        "resourceType": "Observation",
        "id": "fb9189fc-f6e6-42ef-ab93-c4440a2e01af",
        "meta": {
          "profile": [
            "http://hl7.eu/fhir/laboratory/StructureDefinition/Observation-resultslab-eu-lab"
          ]
        },
        "performer": [
          {
            "display": "The Central European Lab"
          }
        ],
        "category": [
          {
            "coding": [
              {
                "system": "http://terminology.hl7.org/CodeSystem/observation-category",
                "code": "laboratory"
              }
            ]
          }
        ],
        "code": {
          "coding": [
            {
              "code": "3094-0",
              "system": "http://loinc.org",
              "display": "Urea nitrogen [Mass/volume] in Serum or Plasma"
            }
          ],
          "text": "Urea nitrogen [Mass/volume] in Serum or Plasma"
        },
        "valueQuantity": {
          "system": "http://unitsofmeasure.org",
          "value": 7.9,
          "unit": "mg/dL",
          "code": "mg/dL"
        },
        "referenceRange": [
          {
            "low": {
              "value": 7,
              "code": "mg/dL",
              "system": "http://unitsofmeasure.org"
            }
          },
          {
            "high": {
              "value": 50,
              "code": "mg/dL",
              "system": "http://unitsofmeasure.org"
            }
          }
        ],
        "text": {
          "status": "generated",
          "div": "<div xmlns=\"http://www.w3.org/1999/xhtml\"><table class=\"hl7__eu__lab__report\"><tr><th>Test</th><th>12-Dec-2024</th><th>Reference&#xA0;Range</th><th>Unit</th></tr><tr><td>Urea nitrogen [Mass/volume] in Serum or Plasma</td><td>7.9</td><td>7 - 50</td><td></td><td>mg/dL</td></tr></table></div>"
        },
        "status": "final",
        "subject": {
          "reference": "urn:uuid:3544a470-ca81-4cc1-8474-b5295e64a623",
          "display": "Marthe Gallet"
        },
        "effectiveDateTime": "2024-12-12T19:05:43Z",
        "specimen": {
          "reference": "urn:uuid:91dbfebb-c684-426d-959e-4611da55c36c"
        }
      }
    },
    {
      "fullUrl": "urn:uuid:e2528eb5-ff15-4782-b1f1-0160239dc27f",
      "resource": {
        "resourceType": "Observation",
        "id": "e2528eb5-ff15-4782-b1f1-0160239dc27f",
        "meta": {
          "profile": [
            "http://hl7.eu/fhir/laboratory/StructureDefinition/Observation-resultslab-eu-lab"
          ]
        },
        "performer": [
          {
            "display": "The Central European Lab"
          }
        ],
        "category": [
          {
            "coding": [
              {
                "system": "http://terminology.hl7.org/CodeSystem/observation-category",
                "code": "laboratory"
              }
            ]
          }
        ],
        "code": {
          "coding": [
            {
              "code": "2160-0",
              "system": "http://loinc.org",
              "display": "Creatinine [Mass/volume] in Serum or Plasma"
            }
          ],
          "text": "Creatinine [Mass/volume] in Serum or Plasma"
        },
        "valueQuantity": {
          "system": "http://unitsofmeasure.org",
          "value": 1.9,
          "unit": "mg/dL",
          "code": "mg/dL"
        },
        "referenceRange": [
          {
            "low": {
              "value": 0.6,
              "code": "mg/dL",
              "system": "http://unitsofmeasure.org"
            }
          },
          {
            "high": {
              "value": 1.1,
              "code": "mg/dL",
              "system": "http://unitsofmeasure.org"
            }
          }
        ],
        "interpretation": [
          {
            "coding": [
              {
                "code": "H",
                "system": "http://terminology.hl7.org/CodeSystem/v3-ObservationInterpretation",
                "display": "High"
              }
            ]
          }
        ],
        "text": {
          "status": "generated",
          "div": "<div xmlns=\"http://www.w3.org/1999/xhtml\"><table class=\"hl7__eu__lab__report\"><tr><th>Test</th><th>12-Dec-2024</th><th>Reference&#xA0;Range</th><th>Unit</th></tr><tr><td>Creatinine [Mass/volume] in Serum or Plasma</td><td>1.9</td><td>0.6 - 1.1</td><td>H</td><td>mg/dL</td></tr></table></div>"
        },
        "status": "final",
        "subject": {
          "reference": "urn:uuid:3544a470-ca81-4cc1-8474-b5295e64a623",
          "display": "Marthe Gallet"
        },
        "effectiveDateTime": "2024-12-12T19:05:43Z",
        "specimen": {
          "reference": "urn:uuid:91dbfebb-c684-426d-959e-4611da55c36c"
        }
      }
    },
    {
      "fullUrl": "urn:uuid:dad8168a-4322-4d6f-a6b9-827e737d4db8",
      "resource": {
        "resourceType": "Observation",
        "id": "dad8168a-4322-4d6f-a6b9-827e737d4db8",
        "meta": {
          "profile": [
            "http://hl7.eu/fhir/laboratory/StructureDefinition/Observation-resultslab-eu-lab"
          ]
        },
        "performer": [
          {
            "display": "The Central European Lab"
          }
        ],
        "category": [
          {
            "coding": [
              {
                "system": "http://terminology.hl7.org/CodeSystem/observation-category",
                "code": "laboratory"
              }
            ]
          }
        ],
        "code": {
          "coding": [
            {
              "code": "17861-6",
              "system": "http://loinc.org",
              "display": "Calcium [Mass/volume] in Serum or Plasma"
            }
          ],
          "text": "Calcium [Mass/volume] in Serum or Plasma"
        },
        "valueQuantity": {
          "system": "http://unitsofmeasure.org",
          "value": 9.6,
          "unit": "mg/dL",
          "code": "mg/dL"
        },
        "referenceRange": [
          {
            "low": {
              "value": 8.5,
              "code": "mg/dL",
              "system": "http://unitsofmeasure.org"
            }
          },
          {
            "high": {
              "value": 10.5,
              "code": "mg/dL",
              "system": "http://unitsofmeasure.org"
            }
          }
        ],
        "text": {
          "status": "generated",
          "div": "<div xmlns=\"http://www.w3.org/1999/xhtml\"><table class=\"hl7__eu__lab__report\"><tr><th>Test</th><th>12-Dec-2024</th><th>Reference&#xA0;Range</th><th>Unit</th></tr><tr><td>Calcium [Mass/volume] in Serum or Plasma</td><td>9.6</td><td>8.5 - 10.5</td><td></td><td>mg/dL</td></tr></table></div>"
        },
        "status": "final",
        "subject": {
          "reference": "urn:uuid:3544a470-ca81-4cc1-8474-b5295e64a623",
          "display": "Marthe Gallet"
        },
        "effectiveDateTime": "2024-12-12T19:05:43Z",
        "specimen": {
          "reference": "urn:uuid:91dbfebb-c684-426d-959e-4611da55c36c"
        }
      }
    },
    {
      "fullUrl": "urn:uuid:884b48c0-8432-4830-ad97-4e7d227a54f7",
      "resource": {
        "resourceType": "Observation",
        "id": "884b48c0-8432-4830-ad97-4e7d227a54f7",
        "meta": {
          "profile": [
            "http://hl7.eu/fhir/laboratory/StructureDefinition/Observation-resultslab-eu-lab"
          ]
        },
        "performer": [
          {
            "display": "The Central European Lab"
          }
        ],
        "category": [
          {
            "coding": [
              {
                "system": "http://terminology.hl7.org/CodeSystem/observation-category",
                "code": "laboratory"
              }
            ]
          }
        ],
        "code": {
          "coding": [
            {
              "code": "2951-2",
              "system": "http://loinc.org",
              "display": "Sodium [Moles/volume] in Serum or Plasma"
            }
          ],
          "text": "Sodium [Moles/volume] in Serum or Plasma"
        },
        "valueQuantity": {
          "system": "http://unitsofmeasure.org",
          "value": 141.5,
          "unit": "mmol/L",
          "code": "mmol/L"
        },
        "referenceRange": [
          {
            "low": {
              "value": 135,
              "code": "mmol/L",
              "system": "http://unitsofmeasure.org"
            }
          },
          {
            "high": {
              "value": 145,
              "code": "mmol/L",
              "system": "http://unitsofmeasure.org"
            }
          }
        ],
        "text": {
          "status": "generated",
          "div": "<div xmlns=\"http://www.w3.org/1999/xhtml\"><table class=\"hl7__eu__lab__report\"><tr><th>Test</th><th>12-Dec-2024</th><th>Reference&#xA0;Range</th><th>Unit</th></tr><tr><td>Sodium [Moles/volume] in Serum or Plasma</td><td>141.5</td><td>135 - 145</td><td></td><td>mmol/L</td></tr></table></div>"
        },
        "status": "final",
        "subject": {
          "reference": "urn:uuid:3544a470-ca81-4cc1-8474-b5295e64a623",
          "display": "Marthe Gallet"
        },
        "effectiveDateTime": "2024-12-12T19:05:43Z",
        "specimen": {
          "reference": "urn:uuid:91dbfebb-c684-426d-959e-4611da55c36c"
        }
      }
    },
    {
      "fullUrl": "urn:uuid:c240536c-e0c5-4c35-9133-18bd8a9a9069",
      "resource": {
        "resourceType": "Observation",
        "id": "c240536c-e0c5-4c35-9133-18bd8a9a9069",
        "meta": {
          "profile": [
            "http://hl7.eu/fhir/laboratory/StructureDefinition/Observation-resultslab-eu-lab"
          ]
        },
        "performer": [
          {
            "display": "The Central European Lab"
          }
        ],
        "category": [
          {
            "coding": [
              {
                "system": "http://terminology.hl7.org/CodeSystem/observation-category",
                "code": "laboratory"
              }
            ]
          }
        ],
        "code": {
          "coding": [
            {
              "code": "2823-3",
              "system": "http://loinc.org",
              "display": "Potassium [Moles/volume] in Serum or Plasma"
            }
          ],
          "text": "Potassium [Moles/volume] in Serum or Plasma"
        },
        "valueQuantity": {
          "system": "http://unitsofmeasure.org",
          "value": 3.7,
          "unit": "mmol/L",
          "code": "mmol/L"
        },
        "referenceRange": [
          {
            "low": {
              "value": 3.5,
              "code": "mmol/L",
              "system": "http://unitsofmeasure.org"
            }
          },
          {
            "high": {
              "value": 5.1,
              "code": "mmol/L",
              "system": "http://unitsofmeasure.org"
            }
          }
        ],
        "text": {
          "status": "generated",
          "div": "<div xmlns=\"http://www.w3.org/1999/xhtml\"><table class=\"hl7__eu__lab__report\"><tr><th>Test</th><th>12-Dec-2024</th><th>Reference&#xA0;Range</th><th>Unit</th></tr><tr><td>Potassium [Moles/volume] in Serum or Plasma</td><td>3.7</td><td>3.5 - 5.1</td><td></td><td>mmol/L</td></tr></table></div>"
        },
        "status": "final",
        "subject": {
          "reference": "urn:uuid:3544a470-ca81-4cc1-8474-b5295e64a623",
          "display": "Marthe Gallet"
        },
        "effectiveDateTime": "2024-12-12T19:05:43Z",
        "specimen": {
          "reference": "urn:uuid:91dbfebb-c684-426d-959e-4611da55c36c"
        }
      }
    },
    {
      "fullUrl": "urn:uuid:8d9fe388-63af-450e-8684-8696438a859a",
      "resource": {
        "resourceType": "Observation",
        "id": "8d9fe388-63af-450e-8684-8696438a859a",
        "meta": {
          "profile": [
            "http://hl7.eu/fhir/laboratory/StructureDefinition/Observation-resultslab-eu-lab"
          ]
        },
        "performer": [
          {
            "display": "The Central European Lab"
          }
        ],
        "category": [
          {
            "coding": [
              {
                "system": "http://terminology.hl7.org/CodeSystem/observation-category",
                "code": "laboratory"
              }
            ]
          }
        ],
        "code": {
          "coding": [
            {
              "code": "2075-0",
              "system": "http://loinc.org",
              "display": "Chloride [Moles/volume] in Serum or Plasma"
            }
          ],
          "text": "Chloride [Moles/volume] in Serum or Plasma"
        },
        "valueQuantity": {
          "system": "http://unitsofmeasure.org",
          "value": 106.7,
          "unit": "mmol/L",
          "code": "mmol/L"
        },
        "referenceRange": [
          {
            "low": {
              "value": 98,
              "code": "mmol/L",
              "system": "http://unitsofmeasure.org"
            }
          },
          {
            "high": {
              "value": 108,
              "code": "mmol/L",
              "system": "http://unitsofmeasure.org"
            }
          }
        ],
        "text": {
          "status": "generated",
          "div": "<div xmlns=\"http://www.w3.org/1999/xhtml\"><table class=\"hl7__eu__lab__report\"><tr><th>Test</th><th>12-Dec-2024</th><th>Reference&#xA0;Range</th><th>Unit</th></tr><tr><td>Chloride [Moles/volume] in Serum or Plasma</td><td>106.7</td><td>98 - 108</td><td></td><td>mmol/L</td></tr></table></div>"
        },
        "status": "final",
        "subject": {
          "reference": "urn:uuid:3544a470-ca81-4cc1-8474-b5295e64a623",
          "display": "Marthe Gallet"
        },
        "effectiveDateTime": "2024-12-12T19:05:43Z",
        "specimen": {
          "reference": "urn:uuid:91dbfebb-c684-426d-959e-4611da55c36c"
        }
      }
    },
    {
      "fullUrl": "urn:uuid:78cc4a9c-dbf8-4fd9-ac2b-97e1c30ac7a7",
      "resource": {
        "resourceType": "Observation",
        "id": "78cc4a9c-dbf8-4fd9-ac2b-97e1c30ac7a7",
        "meta": {
          "profile": [
            "http://hl7.eu/fhir/laboratory/StructureDefinition/Observation-resultslab-eu-lab"
          ]
        },
        "performer": [
          {
            "display": "The Central European Lab"
          }
        ],
        "category": [
          {
            "coding": [
              {
                "system": "http://terminology.hl7.org/CodeSystem/observation-category",
                "code": "laboratory"
              }
            ]
          }
        ],
        "code": {
          "coding": [
            {
              "code": "2028-9",
              "system": "http://loinc.org",
              "display": "Carbon dioxide, total [Moles/volume] in Serum or Plasma"
            }
          ],
          "text": "Carbon dioxide, total [Moles/volume] in Serum or Plasma"
        },
        "valueQuantity": {
          "system": "http://unitsofmeasure.org",
          "value": 24.3,
          "unit": "mmol/L",
          "code": "mmol/L"
        },
        "referenceRange": [
          {
            "low": {
              "value": 22,
              "code": "mmol/L",
              "system": "http://unitsofmeasure.org"
            }
          },
          {
            "high": {
              "value": 32,
              "code": "mmol/L",
              "system": "http://unitsofmeasure.org"
            }
          }
        ],
        "text": {
          "status": "generated",
          "div": "<div xmlns=\"http://www.w3.org/1999/xhtml\"><table class=\"hl7__eu__lab__report\"><tr><th>Test</th><th>12-Dec-2024</th><th>Reference&#xA0;Range</th><th>Unit</th></tr><tr><td>Carbon dioxide, total [Moles/volume] in Serum or Plasma</td><td>24.3</td><td>22 - 32</td><td></td><td>mmol/L</td></tr></table></div>"
        },
        "status": "final",
        "subject": {
          "reference": "urn:uuid:3544a470-ca81-4cc1-8474-b5295e64a623",
          "display": "Marthe Gallet"
        },
        "effectiveDateTime": "2024-12-12T19:05:43Z",
        "specimen": {
          "reference": "urn:uuid:91dbfebb-c684-426d-959e-4611da55c36c"
        }
      }
    },
    {
      "fullUrl": "urn:uuid:69d80103-fbe3-4f18-8914-a69087b3dab5",
      "resource": {
        "resourceType": "Observation",
        "id": "69d80103-fbe3-4f18-8914-a69087b3dab5",
        "meta": {
          "profile": [
            "http://hl7.eu/fhir/laboratory/StructureDefinition/Observation-resultslab-eu-lab"
          ]
        },
        "performer": [
          {
            "display": "The Central European Lab"
          }
        ],
        "category": [
          {
            "coding": [
              {
                "system": "http://terminology.hl7.org/CodeSystem/observation-category",
                "code": "laboratory"
              }
            ]
          }
        ],
        "code": {
          "coding": [
            {
              "code": "5767-9",
              "system": "http://loinc.org",
              "display": "Appearance of Urine"
            }
          ],
          "text": "Appearance of Urine"
        },
        "text": {
          "status": "generated",
          "div": "<div xmlns=\"http://www.w3.org/1999/xhtml\"><table class=\"hl7__eu__lab__report\"><tr><th>Test</th><th>12-Dec-2024</th><th>Reference&#xA0;Range</th><th>Unit</th></tr><tr><td>Appearance of Urine</td></tr></table></div>"
        },
        "status": "final",
        "subject": {
          "reference": "urn:uuid:3544a470-ca81-4cc1-8474-b5295e64a623",
          "display": "Marthe Gallet"
        },
        "effectiveDateTime": "2024-12-12T19:05:43Z",
        "specimen": {
          "reference": "urn:uuid:3b2f41ad-104a-4d0d-9f9b-ff6642a5d5b0"
        }
      }
    },
    {
      "fullUrl": "urn:uuid:17202984-f96c-4ee8-a184-8446f0ca29d4",
      "resource": {
        "resourceType": "Observation",
        "id": "17202984-f96c-4ee8-a184-8446f0ca29d4",
        "meta": {
          "profile": [
            "http://hl7.eu/fhir/laboratory/StructureDefinition/Observation-resultslab-eu-lab"
          ]
        },
        "performer": [
          {
            "display": "The Central European Lab"
          }
        ],
        "category": [
          {
            "coding": [
              {
                "system": "http://terminology.hl7.org/CodeSystem/observation-category",
                "code": "laboratory"
              }
            ]
          }
        ],
        "code": {
          "coding": [
            {
              "code": "34533-0",
              "system": "http://loinc.org",
              "display": "Odor of Urine"
            }
          ],
          "text": "Odor of Urine"
        },
        "text": {
          "status": "generated",
          "div": "<div xmlns=\"http://www.w3.org/1999/xhtml\"><table class=\"hl7__eu__lab__report\"><tr><th>Test</th><th>12-Dec-2024</th><th>Reference&#xA0;Range</th><th>Unit</th></tr><tr><td>Odor of Urine</td></tr></table></div>"
        },
        "status": "final",
        "subject": {
          "reference": "urn:uuid:3544a470-ca81-4cc1-8474-b5295e64a623",
          "display": "Marthe Gallet"
        },
        "effectiveDateTime": "2024-12-12T19:05:43Z",
        "specimen": {
          "reference": "urn:uuid:3b2f41ad-104a-4d0d-9f9b-ff6642a5d5b0"
        }
      }
    },
    {
      "fullUrl": "urn:uuid:c97a5cf9-a1a8-4be6-a330-20d7e60bd1b1",
      "resource": {
        "resourceType": "Observation",
        "id": "c97a5cf9-a1a8-4be6-a330-20d7e60bd1b1",
        "meta": {
          "profile": [
            "http://hl7.eu/fhir/laboratory/StructureDefinition/Observation-resultslab-eu-lab"
          ]
        },
        "performer": [
          {
            "display": "The Central European Lab"
          }
        ],
        "category": [
          {
            "coding": [
              {
                "system": "http://terminology.hl7.org/CodeSystem/observation-category",
                "code": "laboratory"
              }
            ]
          }
        ],
        "code": {
          "coding": [
            {
              "code": "32167-9",
              "system": "http://loinc.org",
              "display": "Clarity of Urine"
            }
          ],
          "text": "Clarity of Urine"
        },
        "text": {
          "status": "generated",
          "div": "<div xmlns=\"http://www.w3.org/1999/xhtml\"><table class=\"hl7__eu__lab__report\"><tr><th>Test</th><th>12-Dec-2024</th><th>Reference&#xA0;Range</th><th>Unit</th></tr><tr><td>Clarity of Urine</td></tr></table></div>"
        },
        "status": "final",
        "subject": {
          "reference": "urn:uuid:3544a470-ca81-4cc1-8474-b5295e64a623",
          "display": "Marthe Gallet"
        },
        "effectiveDateTime": "2024-12-12T19:05:43Z",
        "specimen": {
          "reference": "urn:uuid:3b2f41ad-104a-4d0d-9f9b-ff6642a5d5b0"
        }
      }
    },
    {
      "fullUrl": "urn:uuid:db7177c9-09f4-44c3-b5d8-3bec45da54a8",
      "resource": {
        "resourceType": "Observation",
        "id": "db7177c9-09f4-44c3-b5d8-3bec45da54a8",
        "meta": {
          "profile": [
            "http://hl7.eu/fhir/laboratory/StructureDefinition/Observation-resultslab-eu-lab"
          ]
        },
        "performer": [
          {
            "display": "The Central European Lab"
          }
        ],
        "category": [
          {
            "coding": [
              {
                "system": "http://terminology.hl7.org/CodeSystem/observation-category",
                "code": "laboratory"
              }
            ]
          }
        ],
        "code": {
          "coding": [
            {
              "code": "5778-6",
              "system": "http://loinc.org",
              "display": "Color of Urine"
            }
          ],
          "text": "Color of Urine"
        },
        "text": {
          "status": "generated",
          "div": "<div xmlns=\"http://www.w3.org/1999/xhtml\"><table class=\"hl7__eu__lab__report\"><tr><th>Test</th><th>12-Dec-2024</th><th>Reference&#xA0;Range</th><th>Unit</th></tr><tr><td>Color of Urine</td></tr></table></div>"
        },
        "status": "final",
        "subject": {
          "reference": "urn:uuid:3544a470-ca81-4cc1-8474-b5295e64a623",
          "display": "Marthe Gallet"
        },
        "effectiveDateTime": "2024-12-12T19:05:43Z",
        "specimen": {
          "reference": "urn:uuid:3b2f41ad-104a-4d0d-9f9b-ff6642a5d5b0"
        }
      }
    },
    {
      "fullUrl": "urn:uuid:1c8de0e9-e22b-45ba-9a08-5de8b83e8429",
      "resource": {
        "resourceType": "Observation",
        "id": "1c8de0e9-e22b-45ba-9a08-5de8b83e8429",
        "meta": {
          "profile": [
            "http://hl7.eu/fhir/laboratory/StructureDefinition/Observation-resultslab-eu-lab"
          ]
        },
        "performer": [
          {
            "display": "The Central European Lab"
          }
        ],
        "category": [
          {
            "coding": [
              {
                "system": "http://terminology.hl7.org/CodeSystem/observation-category",
                "code": "laboratory"
              }
            ]
          }
        ],
        "code": {
          "coding": [
            {
              "code": "5792-7",
              "system": "http://loinc.org",
              "display": "Glucose [Mass/volume] in Urine by Test strip"
            }
          ],
          "text": "Glucose [Mass/volume] in Urine by Test strip"
        },
        "valueQuantity": {
          "system": "http://unitsofmeasure.org",
          "value": 1.6,
          "unit": "mg/dL",
          "code": "mg/dL"
        },
        "referenceRange": [
          {
            "low": {
              "value": 0.8,
              "code": "mg/dL",
              "system": "http://unitsofmeasure.org"
            }
          },
          {
            "high": {
              "value": 0,
              "code": "mg/dL",
              "system": "http://unitsofmeasure.org"
            }
          }
        ],
        "interpretation": [
          {
            "coding": [
              {
                "code": "H",
                "system": "http://terminology.hl7.org/CodeSystem/v3-ObservationInterpretation",
                "display": "High"
              }
            ]
          }
        ],
        "text": {
          "status": "generated",
          "div": "<div xmlns=\"http://www.w3.org/1999/xhtml\"><table class=\"hl7__eu__lab__report\"><tr><th>Test</th><th>12-Dec-2024</th><th>Reference&#xA0;Range</th><th>Unit</th></tr><tr><td>Glucose [Mass/volume] in Urine by Test strip</td><td>1.6</td><td>0.8 - 0</td><td>H</td><td>mg/dL</td></tr></table></div>"
        },
        "status": "final",
        "subject": {
          "reference": "urn:uuid:3544a470-ca81-4cc1-8474-b5295e64a623",
          "display": "Marthe Gallet"
        },
        "effectiveDateTime": "2024-12-12T19:05:43Z",
        "specimen": {
          "reference": "urn:uuid:3b2f41ad-104a-4d0d-9f9b-ff6642a5d5b0"
        }
      }
    },
    {
      "fullUrl": "urn:uuid:34e1eaed-9014-4c27-85e3-3bddc8a11d38",
      "resource": {
        "resourceType": "Observation",
        "id": "34e1eaed-9014-4c27-85e3-3bddc8a11d38",
        "meta": {
          "profile": [
            "http://hl7.eu/fhir/laboratory/StructureDefinition/Observation-resultslab-eu-lab"
          ]
        },
        "performer": [
          {
            "display": "The Central European Lab"
          }
        ],
        "category": [
          {
            "coding": [
              {
                "system": "http://terminology.hl7.org/CodeSystem/observation-category",
                "code": "laboratory"
              }
            ]
          }
        ],
        "code": {
          "coding": [
            {
              "code": "25428-4",
              "system": "http://loinc.org",
              "display": "Glucose [Presence] in Urine by Test strip"
            }
          ],
          "text": "Glucose [Presence] in Urine by Test strip"
        },
        "text": {
          "status": "generated",
          "div": "<div xmlns=\"http://www.w3.org/1999/xhtml\"><table class=\"hl7__eu__lab__report\"><tr><th>Test</th><th>12-Dec-2024</th><th>Reference&#xA0;Range</th><th>Unit</th></tr><tr><td>Glucose [Presence] in Urine by Test strip</td></tr></table></div>"
        },
        "status": "final",
        "subject": {
          "reference": "urn:uuid:3544a470-ca81-4cc1-8474-b5295e64a623",
          "display": "Marthe Gallet"
        },
        "effectiveDateTime": "2024-12-12T19:05:43Z",
        "specimen": {
          "reference": "urn:uuid:3b2f41ad-104a-4d0d-9f9b-ff6642a5d5b0"
        }
      }
    },
    {
      "fullUrl": "urn:uuid:9a048394-c2cc-4f92-9f7a-04cd7f5db32d",
      "resource": {
        "resourceType": "Observation",
        "id": "9a048394-c2cc-4f92-9f7a-04cd7f5db32d",
        "meta": {
          "profile": [
            "http://hl7.eu/fhir/laboratory/StructureDefinition/Observation-resultslab-eu-lab"
          ]
        },
        "performer": [
          {
            "display": "The Central European Lab"
          }
        ],
        "category": [
          {
            "coding": [
              {
                "system": "http://terminology.hl7.org/CodeSystem/observation-category",
                "code": "laboratory"
              }
            ]
          }
        ],
        "code": {
          "coding": [
            {
              "code": "20505-4",
              "system": "http://loinc.org",
              "display": "Bilirubin.total [Mass/volume] in Urine by Test strip"
            }
          ],
          "text": "Bilirubin.total [Mass/volume] in Urine by Test strip"
        },
        "valueQuantity": {
          "system": "http://unitsofmeasure.org",
          "value": 0.3,
          "unit": "mg/dL",
          "code": "mg/dL"
        },
        "referenceRange": [
          {
            "low": {
              "value": 0,
              "code": "mg/dL",
              "system": "http://unitsofmeasure.org"
            }
          },
          {
            "high": {
              "value": 1,
              "code": "mg/dL",
              "system": "http://unitsofmeasure.org"
            }
          }
        ],
        "text": {
          "status": "generated",
          "div": "<div xmlns=\"http://www.w3.org/1999/xhtml\"><table class=\"hl7__eu__lab__report\"><tr><th>Test</th><th>12-Dec-2024</th><th>Reference&#xA0;Range</th><th>Unit</th></tr><tr><td>Bilirubin.total [Mass/volume] in Urine by Test strip</td><td>0.3</td><td>0 - 1</td><td></td><td>mg/dL</td></tr></table></div>"
        },
        "status": "final",
        "subject": {
          "reference": "urn:uuid:3544a470-ca81-4cc1-8474-b5295e64a623",
          "display": "Marthe Gallet"
        },
        "effectiveDateTime": "2024-12-12T19:05:43Z",
        "specimen": {
          "reference": "urn:uuid:3b2f41ad-104a-4d0d-9f9b-ff6642a5d5b0"
        }
      }
    },
    {
      "fullUrl": "urn:uuid:ea42ed50-e13b-4f60-8af3-a6ac1a5022e0",
      "resource": {
        "resourceType": "Observation",
        "id": "ea42ed50-e13b-4f60-8af3-a6ac1a5022e0",
        "meta": {
          "profile": [
            "http://hl7.eu/fhir/laboratory/StructureDefinition/Observation-resultslab-eu-lab"
          ]
        },
        "performer": [
          {
            "display": "The Central European Lab"
          }
        ],
        "category": [
          {
            "coding": [
              {
                "system": "http://terminology.hl7.org/CodeSystem/observation-category",
                "code": "laboratory"
              }
            ]
          }
        ],
        "code": {
          "coding": [
            {
              "code": "5770-3",
              "system": "http://loinc.org",
              "display": "Bilirubin.total [Presence] in Urine by Test strip"
            }
          ],
          "text": "Bilirubin.total [Presence] in Urine by Test strip"
        },
        "text": {
          "status": "generated",
          "div": "<div xmlns=\"http://www.w3.org/1999/xhtml\"><table class=\"hl7__eu__lab__report\"><tr><th>Test</th><th>12-Dec-2024</th><th>Reference&#xA0;Range</th><th>Unit</th></tr><tr><td>Bilirubin.total [Presence] in Urine by Test strip</td></tr></table></div>"
        },
        "status": "final",
        "subject": {
          "reference": "urn:uuid:3544a470-ca81-4cc1-8474-b5295e64a623",
          "display": "Marthe Gallet"
        },
        "effectiveDateTime": "2024-12-12T19:05:43Z",
        "specimen": {
          "reference": "urn:uuid:3b2f41ad-104a-4d0d-9f9b-ff6642a5d5b0"
        }
      }
    },
    {
      "fullUrl": "urn:uuid:5e4c5041-a3f7-468d-83a4-ba1fc704a32e",
      "resource": {
        "resourceType": "Observation",
        "id": "5e4c5041-a3f7-468d-83a4-ba1fc704a32e",
        "meta": {
          "profile": [
            "http://hl7.eu/fhir/laboratory/StructureDefinition/Observation-resultslab-eu-lab"
          ]
        },
        "performer": [
          {
            "display": "The Central European Lab"
          }
        ],
        "category": [
          {
            "coding": [
              {
                "system": "http://terminology.hl7.org/CodeSystem/observation-category",
                "code": "laboratory"
              }
            ]
          }
        ],
        "code": {
          "coding": [
            {
              "code": "5797-6",
              "system": "http://loinc.org",
              "display": "Ketones [Mass/volume] in Urine by Test strip"
            }
          ],
          "text": "Ketones [Mass/volume] in Urine by Test strip"
        },
        "valueQuantity": {
          "system": "http://unitsofmeasure.org",
          "value": 1.9,
          "unit": "mg/dL",
          "code": "mg/dL"
        },
        "referenceRange": [
          {
            "low": {
              "value": 0,
              "code": "mg/dL",
              "system": "http://unitsofmeasure.org"
            }
          },
          {
            "high": {
              "value": 20,
              "code": "mg/dL",
              "system": "http://unitsofmeasure.org"
            }
          }
        ],
        "text": {
          "status": "generated",
          "div": "<div xmlns=\"http://www.w3.org/1999/xhtml\"><table class=\"hl7__eu__lab__report\"><tr><th>Test</th><th>12-Dec-2024</th><th>Reference&#xA0;Range</th><th>Unit</th></tr><tr><td>Ketones [Mass/volume] in Urine by Test strip</td><td>1.9</td><td>0 - 20</td><td></td><td>mg/dL</td></tr></table></div>"
        },
        "status": "final",
        "subject": {
          "reference": "urn:uuid:3544a470-ca81-4cc1-8474-b5295e64a623",
          "display": "Marthe Gallet"
        },
        "effectiveDateTime": "2024-12-12T19:05:43Z",
        "specimen": {
          "reference": "urn:uuid:3b2f41ad-104a-4d0d-9f9b-ff6642a5d5b0"
        }
      }
    },
    {
      "fullUrl": "urn:uuid:0749a051-a628-4077-948a-f9b4fbff8759",
      "resource": {
        "resourceType": "Observation",
        "id": "0749a051-a628-4077-948a-f9b4fbff8759",
        "meta": {
          "profile": [
            "http://hl7.eu/fhir/laboratory/StructureDefinition/Observation-resultslab-eu-lab"
          ]
        },
        "performer": [
          {
            "display": "The Central European Lab"
          }
        ],
        "category": [
          {
            "coding": [
              {
                "system": "http://terminology.hl7.org/CodeSystem/observation-category",
                "code": "laboratory"
              }
            ]
          }
        ],
        "code": {
          "coding": [
            {
              "code": "2514-8",
              "system": "http://loinc.org",
              "display": "Ketones [Presence] in Urine by Test strip"
            }
          ],
          "text": "Ketones [Presence] in Urine by Test strip"
        },
        "text": {
          "status": "generated",
          "div": "<div xmlns=\"http://www.w3.org/1999/xhtml\"><table class=\"hl7__eu__lab__report\"><tr><th>Test</th><th>12-Dec-2024</th><th>Reference&#xA0;Range</th><th>Unit</th></tr><tr><td>Ketones [Presence] in Urine by Test strip</td></tr></table></div>"
        },
        "status": "final",
        "subject": {
          "reference": "urn:uuid:3544a470-ca81-4cc1-8474-b5295e64a623",
          "display": "Marthe Gallet"
        },
        "effectiveDateTime": "2024-12-12T19:05:43Z",
        "specimen": {
          "reference": "urn:uuid:3b2f41ad-104a-4d0d-9f9b-ff6642a5d5b0"
        }
      }
    },
    {
      "fullUrl": "urn:uuid:ca32220f-b243-402d-9d65-02612fcf6c62",
      "resource": {
        "resourceType": "Observation",
        "id": "ca32220f-b243-402d-9d65-02612fcf6c62",
        "meta": {
          "profile": [
            "http://hl7.eu/fhir/laboratory/StructureDefinition/Observation-resultslab-eu-lab"
          ]
        },
        "performer": [
          {
            "display": "The Central European Lab"
          }
        ],
        "category": [
          {
            "coding": [
              {
                "system": "http://terminology.hl7.org/CodeSystem/observation-category",
                "code": "laboratory"
              }
            ]
          }
        ],
        "code": {
          "coding": [
            {
              "code": "5811-5",
              "system": "http://loinc.org",
              "display": "Specific gravity of Urine by Test strip"
            }
          ],
          "text": "Specific gravity of Urine by Test strip"
        },
        "valueQuantity": {
          "system": "http://unitsofmeasure.org",
          "value": 1,
          "unit": "{nominal}",
          "code": "{nominal}"
        },
        "referenceRange": [
          {
            "low": {
              "value": 1.01,
              "code": "g/mL",
              "system": "http://unitsofmeasure.org"
            }
          },
          {
            "high": {
              "value": 1.03,
              "code": "g/mL",
              "system": "http://unitsofmeasure.org"
            }
          }
        ],
        "interpretation": [
          {
            "coding": [
              {
                "code": "L",
                "system": "http://terminology.hl7.org/CodeSystem/v3-ObservationInterpretation",
                "display": "Low"
              }
            ]
          }
        ],
        "text": {
          "status": "generated",
          "div": "<div xmlns=\"http://www.w3.org/1999/xhtml\"><table class=\"hl7__eu__lab__report\"><tr><th>Test</th><th>12-Dec-2024</th><th>Reference&#xA0;Range</th><th>Unit</th></tr><tr><td>Specific gravity of Urine by Test strip</td><td>1.0</td><td>1.01 - 1.03</td><td>L</td><td>{nominal}</td></tr></table></div>"
        },
        "status": "final",
        "subject": {
          "reference": "urn:uuid:3544a470-ca81-4cc1-8474-b5295e64a623",
          "display": "Marthe Gallet"
        },
        "effectiveDateTime": "2024-12-12T19:05:43Z",
        "specimen": {
          "reference": "urn:uuid:3b2f41ad-104a-4d0d-9f9b-ff6642a5d5b0"
        }
      }
    },
    {
      "fullUrl": "urn:uuid:b2841ae6-d02d-43e6-83a7-019dd84e1283",
      "resource": {
        "resourceType": "Observation",
        "id": "b2841ae6-d02d-43e6-83a7-019dd84e1283",
        "meta": {
          "profile": [
            "http://hl7.eu/fhir/laboratory/StructureDefinition/Observation-resultslab-eu-lab"
          ]
        },
        "performer": [
          {
            "display": "The Central European Lab"
          }
        ],
        "category": [
          {
            "coding": [
              {
                "system": "http://terminology.hl7.org/CodeSystem/observation-category",
                "code": "laboratory"
              }
            ]
          }
        ],
        "code": {
          "coding": [
            {
              "code": "5803-2",
              "system": "http://loinc.org",
              "display": "pH of Urine by Test strip"
            }
          ],
          "text": "pH of Urine by Test strip"
        },
        "valueQuantity": {
          "system": "http://unitsofmeasure.org",
          "value": 5.2,
          "unit": "pH",
          "code": "pH"
        },
        "referenceRange": [
          {
            "low": {
              "value": 4.6,
              "code": "pH",
              "system": "http://unitsofmeasure.org"
            }
          },
          {
            "high": {
              "value": 7,
              "code": "pH",
              "system": "http://unitsofmeasure.org"
            }
          }
        ],
        "text": {
          "status": "generated",
          "div": "<div xmlns=\"http://www.w3.org/1999/xhtml\"><table class=\"hl7__eu__lab__report\"><tr><th>Test</th><th>12-Dec-2024</th><th>Reference&#xA0;Range</th><th>Unit</th></tr><tr><td>pH of Urine by Test strip</td><td>5.2</td><td>4.6 - 7</td><td></td><td>pH</td></tr></table></div>"
        },
        "status": "final",
        "subject": {
          "reference": "urn:uuid:3544a470-ca81-4cc1-8474-b5295e64a623",
          "display": "Marthe Gallet"
        },
        "effectiveDateTime": "2024-12-12T19:05:43Z",
        "specimen": {
          "reference": "urn:uuid:3b2f41ad-104a-4d0d-9f9b-ff6642a5d5b0"
        }
      }
    },
    {
      "fullUrl": "urn:uuid:b60734bb-f369-4ba5-afcc-8ea147123900",
      "resource": {
        "resourceType": "Observation",
        "id": "b60734bb-f369-4ba5-afcc-8ea147123900",
        "meta": {
          "profile": [
            "http://hl7.eu/fhir/laboratory/StructureDefinition/Observation-resultslab-eu-lab"
          ]
        },
        "performer": [
          {
            "display": "The Central European Lab"
          }
        ],
        "category": [
          {
            "coding": [
              {
                "system": "http://terminology.hl7.org/CodeSystem/observation-category",
                "code": "laboratory"
              }
            ]
          }
        ],
        "code": {
          "coding": [
            {
              "code": "5804-0",
              "system": "http://loinc.org",
              "display": "Protein [Mass/volume] in Urine by Test strip"
            }
          ],
          "text": "Protein [Mass/volume] in Urine by Test strip"
        },
        "valueQuantity": {
          "system": "http://unitsofmeasure.org",
          "value": 335.3,
          "unit": "mg/dL",
          "code": "mg/dL"
        },
        "referenceRange": [
          {
            "low": {
              "value": 0,
              "code": "mg/dL",
              "system": "http://unitsofmeasure.org"
            }
          },
          {
            "high": {
              "value": 15,
              "code": "mg/dL",
              "system": "http://unitsofmeasure.org"
            }
          }
        ],
        "interpretation": [
          {
            "coding": [
              {
                "code": "H",
                "system": "http://terminology.hl7.org/CodeSystem/v3-ObservationInterpretation",
                "display": "High"
              }
            ]
          }
        ],
        "text": {
          "status": "generated",
          "div": "<div xmlns=\"http://www.w3.org/1999/xhtml\"><table class=\"hl7__eu__lab__report\"><tr><th>Test</th><th>12-Dec-2024</th><th>Reference&#xA0;Range</th><th>Unit</th></tr><tr><td>Protein [Mass/volume] in Urine by Test strip</td><td>335.3</td><td>0 - 15</td><td>H</td><td>mg/dL</td></tr></table></div>"
        },
        "status": "final",
        "subject": {
          "reference": "urn:uuid:3544a470-ca81-4cc1-8474-b5295e64a623",
          "display": "Marthe Gallet"
        },
        "effectiveDateTime": "2024-12-12T19:05:43Z",
        "specimen": {
          "reference": "urn:uuid:3b2f41ad-104a-4d0d-9f9b-ff6642a5d5b0"
        }
      }
    },
    {
      "fullUrl": "urn:uuid:f7f73a07-71a5-4496-91ae-128b7e8e085a",
      "resource": {
        "resourceType": "Observation",
        "id": "f7f73a07-71a5-4496-91ae-128b7e8e085a",
        "meta": {
          "profile": [
            "http://hl7.eu/fhir/laboratory/StructureDefinition/Observation-resultslab-eu-lab"
          ]
        },
        "performer": [
          {
            "display": "The Central European Lab"
          }
        ],
        "category": [
          {
            "coding": [
              {
                "system": "http://terminology.hl7.org/CodeSystem/observation-category",
                "code": "laboratory"
              }
            ]
          }
        ],
        "code": {
          "coding": [
            {
              "code": "20454-5",
              "system": "http://loinc.org",
              "display": "Protein [Presence] in Urine by Test strip"
            }
          ],
          "text": "Protein [Presence] in Urine by Test strip"
        },
        "text": {
          "status": "generated",
          "div": "<div xmlns=\"http://www.w3.org/1999/xhtml\"><table class=\"hl7__eu__lab__report\"><tr><th>Test</th><th>12-Dec-2024</th><th>Reference&#xA0;Range</th><th>Unit</th></tr><tr><td>Protein [Presence] in Urine by Test strip</td></tr></table></div>"
        },
        "status": "final",
        "subject": {
          "reference": "urn:uuid:3544a470-ca81-4cc1-8474-b5295e64a623",
          "display": "Marthe Gallet"
        },
        "effectiveDateTime": "2024-12-12T19:05:43Z",
        "specimen": {
          "reference": "urn:uuid:3b2f41ad-104a-4d0d-9f9b-ff6642a5d5b0"
        }
      }
    },
    {
      "fullUrl": "urn:uuid:95689805-13d9-4988-920c-372674390556",
      "resource": {
        "resourceType": "Observation",
        "id": "95689805-13d9-4988-920c-372674390556",
        "meta": {
          "profile": [
            "http://hl7.eu/fhir/laboratory/StructureDefinition/Observation-resultslab-eu-lab"
          ]
        },
        "performer": [
          {
            "display": "The Central European Lab"
          }
        ],
        "category": [
          {
            "coding": [
              {
                "system": "http://terminology.hl7.org/CodeSystem/observation-category",
                "code": "laboratory"
              }
            ]
          }
        ],
        "code": {
          "coding": [
            {
              "code": "5802-4",
              "system": "http://loinc.org",
              "display": "Nitrite [Presence] in Urine by Test strip"
            }
          ],
          "text": "Nitrite [Presence] in Urine by Test strip"
        },
        "text": {
          "status": "generated",
          "div": "<div xmlns=\"http://www.w3.org/1999/xhtml\"><table class=\"hl7__eu__lab__report\"><tr><th>Test</th><th>12-Dec-2024</th><th>Reference&#xA0;Range</th><th>Unit</th></tr><tr><td>Nitrite [Presence] in Urine by Test strip</td></tr></table></div>"
        },
        "status": "final",
        "subject": {
          "reference": "urn:uuid:3544a470-ca81-4cc1-8474-b5295e64a623",
          "display": "Marthe Gallet"
        },
        "effectiveDateTime": "2024-12-12T19:05:43Z",
        "specimen": {
          "reference": "urn:uuid:3b2f41ad-104a-4d0d-9f9b-ff6642a5d5b0"
        }
      }
    },
    {
      "fullUrl": "urn:uuid:5111ecd1-2ea1-4329-a81b-8f3de2cef0cc",
      "resource": {
        "resourceType": "Observation",
        "id": "5111ecd1-2ea1-4329-a81b-8f3de2cef0cc",
        "meta": {
          "profile": [
            "http://hl7.eu/fhir/laboratory/StructureDefinition/Observation-resultslab-eu-lab"
          ]
        },
        "performer": [
          {
            "display": "The Central European Lab"
          }
        ],
        "category": [
          {
            "coding": [
              {
                "system": "http://terminology.hl7.org/CodeSystem/observation-category",
                "code": "laboratory"
              }
            ]
          }
        ],
        "code": {
          "coding": [
            {
              "code": "5794-3",
              "system": "http://loinc.org",
              "display": "Hemoglobin [Presence] in Urine by Test strip"
            }
          ],
          "text": "Hemoglobin [Presence] in Urine by Test strip"
        },
        "text": {
          "status": "generated",
          "div": "<div xmlns=\"http://www.w3.org/1999/xhtml\"><table class=\"hl7__eu__lab__report\"><tr><th>Test</th><th>12-Dec-2024</th><th>Reference&#xA0;Range</th><th>Unit</th></tr><tr><td>Hemoglobin [Presence] in Urine by Test strip</td></tr></table></div>"
        },
        "status": "final",
        "subject": {
          "reference": "urn:uuid:3544a470-ca81-4cc1-8474-b5295e64a623",
          "display": "Marthe Gallet"
        },
        "effectiveDateTime": "2024-12-12T19:05:43Z",
        "specimen": {
          "reference": "urn:uuid:3b2f41ad-104a-4d0d-9f9b-ff6642a5d5b0"
        }
      }
    },
    {
      "fullUrl": "urn:uuid:1609b208-9b6c-4e7c-885a-7ccd21241b5f",
      "resource": {
        "resourceType": "Observation",
        "id": "1609b208-9b6c-4e7c-885a-7ccd21241b5f",
        "meta": {
          "profile": [
            "http://hl7.eu/fhir/laboratory/StructureDefinition/Observation-resultslab-eu-lab"
          ]
        },
        "performer": [
          {
            "display": "The Central European Lab"
          }
        ],
        "category": [
          {
            "coding": [
              {
                "system": "http://terminology.hl7.org/CodeSystem/observation-category",
                "code": "laboratory"
              }
            ]
          }
        ],
        "code": {
          "coding": [
            {
              "code": "5799-2",
              "system": "http://loinc.org",
              "display": "Leukocyte esterase [Presence] in Urine by Test strip"
            }
          ],
          "text": "Leukocyte esterase [Presence] in Urine by Test strip"
        },
        "text": {
          "status": "generated",
          "div": "<div xmlns=\"http://www.w3.org/1999/xhtml\"><table class=\"hl7__eu__lab__report\"><tr><th>Test</th><th>12-Dec-2024</th><th>Reference&#xA0;Range</th><th>Unit</th></tr><tr><td>Leukocyte esterase [Presence] in Urine by Test strip</td></tr></table></div>"
        },
        "status": "final",
        "subject": {
          "reference": "urn:uuid:3544a470-ca81-4cc1-8474-b5295e64a623",
          "display": "Marthe Gallet"
        },
        "effectiveDateTime": "2024-12-12T19:05:43Z",
        "specimen": {
          "reference": "urn:uuid:3b2f41ad-104a-4d0d-9f9b-ff6642a5d5b0"
        }
      }
    },
    {
      "fullUrl": "urn:uuid:b735f3d8-ea2a-4ad4-b0c4-71e77729537e",
      "resource": {
        "resourceType": "Device",
        "id": "b735f3d8-ea2a-4ad4-b0c4-71e77729537e",
        "deviceName": [
          {
            "name": "SYNDERAI Synthetic Generator",
            "type": "manufacturer-name"
          }
        ],
        "version": [
          {
            "value": "5.0"
          }
        ],
        "text": {
          "status": "generated",
          "div": "<div xmlns=\"http://www.w3.org/1999/xhtml\">SYNDERAI Synthetic Generator v5.0</div>"
        },
        "status": "active\"",
        "distinctIdentifier": "synderai-generator-50",
        "manufacturer": "SYNDERAI Project"
      }
    },
    {
      "fullUrl": "urn:uuid:a96ed627-d6fa-4384-894d-1fcb8f9ed231",
      "resource": {
        "resourceType": "Provenance",
        "id": "a96ed627-d6fa-4384-894d-1fcb8f9ed231",
        "target": [
          {
            "reference": "Patient/3544a470-ca81-4cc1-8474-b5295e64a623"
          },
          {
            "reference": "Bundle/5dbc3ac9-bedb-4c1f-bb44-2da504b2552a"
          },
          {
            "reference": "Composition/9599409c-46e2-4a5e-aff0-a536ddad014c"
          },
          {
            "reference": "PractitionerRole/e5a685a4-a95d-4761-bb8e-ea0e082084b8"
          },
          {
            "reference": "Practitioner/15d0a9ef-ea3a-41e3-8154-19b826562ea3"
          },
          {
            "reference": "PractitionerRole/82deef8a-cd86-4657-a1bd-fd2e8fd66d71"
          },
          {
            "reference": "Organization/16c1b54d-f75c-47c8-924f-c822948b01f9"
          }
        ],
        "activity": {
          "text": "Synthetic Example Data Generation"
        },
        "policy": [
          "https://synderai.net/synderai-synthetic-data-policy"
        ],
        "agent": [
          {
            "type": {
              "text": "author"
            },
            "who": {
              "reference": "Device/b735f3d8-ea2a-4ad4-b0c4-71e77729537e"
            }
          }
        ],
        "reason": [
          {
            "text": "Interoperability Testing and Training (non-clinical use)"
          }
        ],
        "text": {
          "status": "generated",
          "div": "<div xmlns=\"http://www.w3.org/1999/xhtml\">Provenance for SYNDERAI Synthetic Example Data Resource</div>"
        },
        "recorded": "2024-12-12T20:05:43Z"
      }
    },
    {
      "fullUrl": "urn:uuid:e5a685a4-a95d-4761-bb8e-ea0e082084b8",
      "resource": {
        "resourceType": "PractitionerRole",
        "id": "e5a685a4-a95d-4761-bb8e-ea0e082084b8",
        "meta": {
          "profile": [
            "http://hl7.eu/fhir/base/StructureDefinition/practitionerRole-eu"
          ]
        },
        "text": {
          "status": "generated",
          "div": "<div xmlns=\"http://www.w3.org/1999/xhtml\">Laboratory Role Id: e5a685a4-a95d-4761-bb8e-ea0e082084b8</div>"
        },
        "practitioner": {
          "reference": "urn:uuid:15d0a9ef-ea3a-41e3-8154-19b826562ea3"
        }
      }
    },
    {
      "fullUrl": "urn:uuid:15d0a9ef-ea3a-41e3-8154-19b826562ea3",
      "resource": {
        "resourceType": "Practitioner",
        "id": "15d0a9ef-ea3a-41e3-8154-19b826562ea3",
        "meta": {
          "profile": [
            "http://hl7.eu/fhir/base/StructureDefinition/practitioner-eu"
          ]
        },
        "identifier": [
          {
            "assigner": {
              "display": "HL7 Europe"
            },
            "system": "urn:oid:2.16.840.1.113883.2.51.999",
            "value": "f549b16b-e36a-4824-8106-6fbbfa3e2af1"
          }
        ],
        "name": [
          {
            "prefix": [
              "dr"
            ],
            "given": [
              "Ex"
            ],
            "family": "Ample"
          }
        ],
        "address": [
          {
            "line": [
              "Laboratoire Central Europenne",
              "Boulevard du Jardin Botanique 32"
            ],
            "postalCode": "1000",
            "city": "Brussels",
            "country": "Belgium"
          }
        ],
        "text": {
          "status": "generated",
          "div": "<div xmlns=\"http://www.w3.org/1999/xhtml\">Laboratory: Laboratoire Central Europenne, 1000 Brussels, Belgium</div>"
        }
      }
    }
  ],
  "type": "document",
  "timestamp": "2024-12-12T20:05:43Z"
}
