{
  "resourceType": "Bundle",
  "id": "bdde258d-bd90-445a-ac15-8e2319f24de6",
  "meta": {
    "profile": [
      "http://hl7.eu/fhir/laboratory/StructureDefinition/Bundle-eu-lab"
    ]
  },
  "identifier": {
    "assigner": {
      "display": "HL7 Europe"
    },
    "system": "urn:oid:2.16.840.1.113883.2.51.999",
    "value": "ac277fcf-1a34-43d9-9b15-1dea4b750d66"
  },
  "entry": [
    {
      "fullUrl": "urn:uuid:0431de2c-bc6b-4a34-9de4-b2671904e295",
      "resource": {
        "resourceType": "Composition",
        "id": "0431de2c-bc6b-4a34-9de4-b2671904e295",
        "meta": {
          "profile": [
            "http://hl7.eu/fhir/laboratory/StructureDefinition/Composition-eu-lab"
          ]
        },
        "identifier": {
          "assigner": {
            "display": "HL7 Europe"
          },
          "system": "urn:oid:2.16.840.1.113883.2.51.999",
          "value": "c791ebaa-99fd-4e11-ae49-ab27ce610c88"
        },
        "author": [
          {
            "reference": "urn:uuid:e9af27eb-ba00-49e1-bf3b-ad993a04bd06"
          }
        ],
        "category": [
          {
            "coding": [
              {
                "code": "26436-6",
                "system": "http://loinc.org",
                "display": "Laboratory studies (set)"
              }
            ]
          }
        ],
        "type": {
          "coding": [
            {
              "code": "11502-2",
              "system": "http://loinc.org",
              "display": "Laboratory report"
            }
          ],
          "text": "Laboratory Report"
        },
        "section": [
          {
            "code": {
              "coding": [
                {
                  "code": "26436-6",
                  "system": "http://loinc.org",
                  "display": "Laboratory studies (set)"
                }
              ],
              "text": "Laboratory studies"
            },
            "section": [
              {
                "code": {
                  "coding": [
                    {
                      "code": "$18719-5",
                      "system": "http://loinc.org",
                      "display": "Chemistry studies (set)"
                    }
                  ],
                  "text": "Chemistry"
                },
                "entry": [
                  {
                    "reference": "urn:uuid:5f95e520-a048-44e7-968b-66a3c99d47c3"
                  },
                  {
                    "reference": "urn:uuid:118bd2d8-c85e-4306-baca-d3c008a70ca8"
                  },
                  {
                    "reference": "urn:uuid:a373be5d-1670-4e11-866a-5e515416619e"
                  },
                  {
                    "reference": "urn:uuid:3c9b4f48-3307-4706-b4e8-c5cf22e21e8e"
                  },
                  {
                    "reference": "urn:uuid:a84dd28b-d4cf-47cb-a2f8-da28be58be98"
                  },
                  {
                    "reference": "urn:uuid:951c023b-74b0-45a4-a261-92072d1eee99"
                  },
                  {
                    "reference": "urn:uuid:35e7d11f-444e-4182-a0ae-d8ee2aa959fd"
                  },
                  {
                    "reference": "urn:uuid:fd8ad82a-68c9-4115-8c41-eb75c17bf711"
                  },
                  {
                    "reference": "urn:uuid:e72263b5-2f84-4d29-91a6-05b13c523531"
                  },
                  {
                    "reference": "urn:uuid:a2028ef9-0c72-4794-b9e6-071b4de237c6"
                  },
                  {
                    "reference": "urn:uuid:b7c07e67-0088-4595-9228-5fba3ce4651a"
                  },
                  {
                    "reference": "urn:uuid:0e1df258-b902-4f48-ba13-ccde563e9c26"
                  },
                  {
                    "reference": "urn:uuid:7814aaee-8b59-419d-bd9d-3a5a346e7f44"
                  },
                  {
                    "reference": "urn:uuid:6a4be0c8-9283-4f03-bdc6-4d06e5065274"
                  },
                  {
                    "reference": "urn:uuid:e13d5af4-da85-4c0d-8394-5ef64cd8b9ba"
                  },
                  {
                    "reference": "urn:uuid:742e94b7-35d2-4eab-93fe-21d23604c490"
                  },
                  {
                    "reference": "urn:uuid:761081f1-6072-4d75-826d-b853c3b306ab"
                  },
                  {
                    "reference": "urn:uuid:2801667c-b637-4160-a7a6-f9e95b604a08"
                  },
                  {
                    "reference": "urn:uuid:2f783bb0-c92d-4f28-bf65-4bd859e9ea2f"
                  },
                  {
                    "reference": "urn:uuid:9b2c3b9e-6266-4c9a-a283-d80eb2f277f4"
                  },
                  {
                    "reference": "urn:uuid:cc6834e4-53e8-45df-abca-a427d1036605"
                  },
                  {
                    "reference": "urn:uuid:1436f14f-2938-4b28-a84a-d3a7bbfca083"
                  }
                ],
                "text": {
                  "status": "generated",
                  "div": "<div xmlns=\"http://www.w3.org/1999/xhtml\"><h3>Chemistry</h3><table class=\"hl7__eu__lab__report\"><thead><tr><th>Test</th><th>05-JUL-2018</th><th>Reference&#xA0;Range</th><th>Unit</th></tr></thead><tbody><tr><td>Glucose [Mass/volume] in Serum or Plasma</td><td><strong>66.3 L</strong></td><td>70 - 139</td><td>mg/dL</td></tr><tr><td>Urea nitrogen [Mass/volume] in Serum or Plasma</td><td>16.9</td><td>7 - 20</td><td>mg/dL</td></tr><tr><td>Creatinine [Mass/volume] in Serum or Plasma</td><td><strong>1.9 H</strong></td><td>0.6 - 1.1</td><td>mg/dL</td></tr><tr><td>Calcium [Mass/volume] in Serum or Plasma</td><td>9.4</td><td>8.5 - 10.4</td><td>mg/dL</td></tr><tr><td>Sodium [Moles/volume] in Serum or Plasma</td><td>137.2</td><td>135 - 145</td><td>mmol/L</td></tr><tr><td>Potassium [Moles/volume] in Serum or Plasma</td><td>5.1</td><td>3.5 - 5.1</td><td>mmol/L</td></tr><tr><td>Chloride [Moles/volume] in Serum or Plasma</td><td><strong>110.1 H</strong></td><td>98 - 110</td><td>mmol/L</td></tr><tr><td>Carbon dioxide, total [Moles/volume] in Serum or Plasma</td><td>22.5</td><td>22 - 32</td><td>mmol/L</td></tr><tr><td>Ketones [Presence] in Urine by Test strip</td><td>Urine ketone test = +</td><td></td><td></td></tr><tr><td>Hemoglobin A1c/Hemoglobin.total in Blood</td><td><strong>3.1 L</strong></td><td>4 - 6</td><td>%</td></tr><tr><td>Glucose [Mass/volume] in Blood</td><td><strong>66.3 L</strong></td><td>70 - 100</td><td>mg/dL</td></tr><tr><td>Urea nitrogen [Mass/volume] in Blood</td><td>16.9</td><td>7 - 20</td><td>mg/dL</td></tr><tr><td>Creatinine [Mass/volume] in Blood</td><td>1.3</td><td>0.6 - 1.3</td><td>mg/dL</td></tr><tr><td>Calcium [Mass/volume] in Blood</td><td>9.4</td><td>8.6 - 10.4</td><td>mg/dL</td></tr><tr><td>Sodium [Moles/volume] in Blood</td><td>137.2</td><td>135 - 145</td><td>mmol/L</td></tr><tr><td>Potassium [Moles/volume] in Blood</td><td>5.1</td><td>3.5 - 5.1</td><td>mmol/L</td></tr><tr><td>Chloride [Moles/volume] in Blood</td><td><strong>110.1 H</strong></td><td>98 - 110</td><td>mmol/L</td></tr><tr><td>Carbon dioxide, total [Moles/volume] in Blood</td><td>22.5</td><td>22 - 29</td><td>mmol/L</td></tr><tr><td>Cholesterol [Mass/volume] in Serum or Plasma</td><td>178.5</td><td>125 - 200</td><td>mg/dL</td></tr><tr><td>Triglyceride [Mass/volume] in Serum or Plasma</td><td>101.7</td><td>35 - 150</td><td>mg/dL</td></tr><tr><td>Cholesterol in LDL [Mass/volume] in Serum or Plasma by Direct assay</td><td>100.3</td><td>0 - 130</td><td>mg/dL</td></tr><tr><td>Cholesterol in HDL [Mass/volume] in Serum or Plasma</td><td>57.9</td><td>46 - 82</td><td>mg/dL</td></tr></tbody></table></div>"
                },
                "title": "Chemistry"
              },
              {
                "code": {
                  "coding": [
                    {
                      "code": "$18729-4",
                      "system": "http://loinc.org",
                      "display": "Urinalysis studies (set)"
                    }
                  ],
                  "text": "Urinalysis"
                },
                "entry": [
                  {
                    "reference": "urn:uuid:1ffe0ada-95e9-4a7c-b093-e9041696c8fd"
                  },
                  {
                    "reference": "urn:uuid:d934ada7-ec45-4740-98f0-3deecd334230"
                  },
                  {
                    "reference": "urn:uuid:71fe6e69-9101-4592-b63e-58860b2a8a32"
                  },
                  {
                    "reference": "urn:uuid:ffa427e7-d033-4559-a83b-2bd030f3f610"
                  },
                  {
                    "reference": "urn:uuid:0b97d536-faeb-486b-a3ca-b7922b2f4610"
                  },
                  {
                    "reference": "urn:uuid:6b0d3aea-0acc-4854-85ea-37a84a57836b"
                  },
                  {
                    "reference": "urn:uuid:622862be-d003-4ea2-aa6e-00d1896a4367"
                  },
                  {
                    "reference": "urn:uuid:4e18ff0b-b6b7-40dd-85c7-2b89e0beace0"
                  },
                  {
                    "reference": "urn:uuid:314393eb-081f-470f-8f89-e699f077a581"
                  },
                  {
                    "reference": "urn:uuid:6e455db3-94ee-490f-aedc-f00b6f29ceb8"
                  },
                  {
                    "reference": "urn:uuid:1cc54d19-3fcd-4b95-aae2-6c0c43ddef80"
                  },
                  {
                    "reference": "urn:uuid:97ccbc0b-346a-411f-a88a-c796af563bad"
                  }
                ],
                "text": {
                  "status": "generated",
                  "div": "<div xmlns=\"http://www.w3.org/1999/xhtml\"><h3>Urinalysis</h3><table class=\"hl7__eu__lab__report\"><thead><tr><th>Test</th><th>05-JUL-2018</th><th>Reference&#xA0;Range</th><th>Unit</th></tr></thead><tbody><tr><td>Glucose [Mass/volume] in Urine by Test strip</td><td><strong>1.9 H</strong></td><td>0 - 0</td><td>mg/dL</td></tr><tr><td>Glucose [Presence] in Urine by Test strip</td><td>++</td><td></td><td></td></tr><tr><td>Bilirubin.total [Mass/volume] in Urine by Test strip</td><td>0.9</td><td>0 - 1.6</td><td>mg/dL</td></tr><tr><td>Bilirubin.total [Presence] in Urine by Test strip</td><td>Finding of bilirubin in urine</td><td></td><td></td></tr><tr><td>Ketones [Mass/volume] in Urine by Test strip</td><td><strong>17.3 H</strong></td><td>0 - 0.5</td><td>mg/dL</td></tr><tr><td>Specific gravity of Urine by Test strip</td><td><strong>1.0 L</strong></td><td>1.005 - 1.03</td><td>{nominal}</td></tr><tr><td>pH of Urine by Test strip</td><td>5.4</td><td>4.5 - 7.5</td><td>pH</td></tr><tr><td>Protein [Mass/volume] in Urine by Test strip</td><td><strong>192.4 H</strong></td><td>0 - 15</td><td>mg/dL</td></tr><tr><td>Protein [Presence] in Urine by Test strip</td><td>Urine protein test = ++</td><td></td><td></td></tr><tr><td>Nitrite [Presence] in Urine by Test strip</td><td>Urine nitrite negative</td><td></td><td></td></tr><tr><td>Hemoglobin [Presence] in Urine by Test strip</td><td>Urine blood test = negative</td><td></td><td></td></tr><tr><td>Leukocyte esterase [Presence] in Urine by Test strip</td><td>Urine leukocyte test negative</td><td></td><td></td></tr></tbody></table></div>"
                },
                "title": "Urinalysis"
              },
              {
                "code": {
                  "coding": [
                    {
                      "code": "$LP7846-1",
                      "system": "http://loinc.org",
                      "display": "Specimen information"
                    }
                  ],
                  "text": "Specimen information"
                },
                "entry": [
                  {
                    "reference": "urn:uuid:158feb9b-4d8d-4b2f-a878-25407b4f4e6e"
                  },
                  {
                    "reference": "urn:uuid:c2df9001-430a-4378-826a-9c9f098e7d64"
                  },
                  {
                    "reference": "urn:uuid:77e6f4b0-15bf-4002-ad82-8197ba8250e9"
                  },
                  {
                    "reference": "urn:uuid:3ad90d64-0794-4667-b0c8-26f259a8f0b2"
                  }
                ],
                "text": {
                  "status": "generated",
                  "div": "<div xmlns=\"http://www.w3.org/1999/xhtml\"><h3>Specimen information</h3><table class=\"hl7__eu__lab__report\"><thead><tr><th>Test</th><th>05-JUL-2018</th><th>Specimen</th><th></th></tr></thead><tbody><tr><td>Appearance of Urine</td><td>Cloudy urine</td><td>Urine</td><td></td></tr><tr><td>Odor of Urine</td><td>Urine smell ammoniacal</td><td>Urine</td><td></td></tr><tr><td>Clarity of Urine</td><td>Translucent</td><td>Urine</td><td></td></tr><tr><td>Color of Urine</td><td>Brown color</td><td>Urine</td><td></td></tr></tbody></table></div>"
                },
                "title": "Specimen information"
              }
            ],
            "title": "Laboratory Report"
          },
          {
            "text": {
              "status": "generated",
              "div": "<div xmlns=\"http://www.w3.org/1999/xhtml\"><h3>Annotation</h3><table class=\"hl7__eu__lab__report\"><tr><th>Conclusion and Recommendations based on this report and previous findings known to us</th></tr><tr><td>The patient shows hypoglycemia with low HbA1c, elevated creatinine, proteinuria, and ketonuria, suggesting possible renal impairment and metabolic disturbance. Urine is cloudy, brown, with high protein, glucose, and ketones, but no infection markers. Low urine specific gravity may indicate impaired concentrating ability. Recommend further evaluation for renal dysfunction, possible glomerular pathology, and assessment of causes for hypoglycemia and ketonuria. Clinical correlation is advised.</td></tr></table></div>"
            },
            "code": {
              "coding": [
                {
                  "system": "http://loinc.org",
                  "code": "48767-8",
                  "display": "Annotation comment"
                }
              ]
            },
            "title": "Annotation comment"
          }
        ],
        "status": "final",
        "subject": {
          "reference": "urn:uuid:6e8480c9-e162-40de-aa91-ad3f7288b80d",
          "display": "Molly Jenkins"
        },
        "date": "2018-07-05T16:42:11Z",
        "title": "Laboratory Report",
        "confidentiality": "N"
      }
    },
    {
      "fullUrl": "urn:uuid:6f27aa37-c93e-41df-a665-265bcc77409f",
      "resource": {
        "resourceType": "DiagnosticReport",
        "id": "6f27aa37-c93e-41df-a665-265bcc77409f",
        "meta": {
          "profile": [
            "http://hl7.eu/fhir/laboratory/StructureDefinition/DiagnosticReport-eu-lab"
          ]
        },
        "identifier": [
          {
            "assigner": {
              "display": "HL7 Europe"
            },
            "system": "urn:oid:2.16.840.1.113883.2.51.999",
            "value": "6e5d2c6d-1def-465d-8a3f-14e048f5ff77"
          }
        ],
        "extension": [
          {
            "url": "http://hl7.org/fhir/5.0/StructureDefinition/extension-DiagnosticReport.composition",
            "valueReference": {
              "reference": "urn:uuid:c791ebaa-99fd-4e11-ae49-ab27ce610c88"
            }
          }
        ],
        "category": [
          {
            "coding": [
              {
                "code": "26436-6",
                "system": "http://loinc.org",
                "display": "Laboratory studies (set)"
              }
            ]
          }
        ],
        "specimen": [
          {
            "reference": "urn:uuid:0e23c6f1-eafc-481f-916d-32e2daf2075c"
          },
          {
            "reference": "urn:uuid:e18742b1-b5e0-4f8b-a6d1-572519cdcc50"
          },
          {
            "reference": "urn:uuid:b3c7a222-363f-4b5c-b08d-656f462f86b3"
          }
        ],
        "result": [
          {
            "reference": "urn:uuid:5f95e520-a048-44e7-968b-66a3c99d47c3"
          },
          {
            "reference": "urn:uuid:118bd2d8-c85e-4306-baca-d3c008a70ca8"
          },
          {
            "reference": "urn:uuid:a373be5d-1670-4e11-866a-5e515416619e"
          },
          {
            "reference": "urn:uuid:3c9b4f48-3307-4706-b4e8-c5cf22e21e8e"
          },
          {
            "reference": "urn:uuid:a84dd28b-d4cf-47cb-a2f8-da28be58be98"
          },
          {
            "reference": "urn:uuid:951c023b-74b0-45a4-a261-92072d1eee99"
          },
          {
            "reference": "urn:uuid:35e7d11f-444e-4182-a0ae-d8ee2aa959fd"
          },
          {
            "reference": "urn:uuid:fd8ad82a-68c9-4115-8c41-eb75c17bf711"
          },
          {
            "reference": "urn:uuid:158feb9b-4d8d-4b2f-a878-25407b4f4e6e"
          },
          {
            "reference": "urn:uuid:c2df9001-430a-4378-826a-9c9f098e7d64"
          },
          {
            "reference": "urn:uuid:77e6f4b0-15bf-4002-ad82-8197ba8250e9"
          },
          {
            "reference": "urn:uuid:3ad90d64-0794-4667-b0c8-26f259a8f0b2"
          },
          {
            "reference": "urn:uuid:1ffe0ada-95e9-4a7c-b093-e9041696c8fd"
          },
          {
            "reference": "urn:uuid:d934ada7-ec45-4740-98f0-3deecd334230"
          },
          {
            "reference": "urn:uuid:71fe6e69-9101-4592-b63e-58860b2a8a32"
          },
          {
            "reference": "urn:uuid:ffa427e7-d033-4559-a83b-2bd030f3f610"
          },
          {
            "reference": "urn:uuid:0b97d536-faeb-486b-a3ca-b7922b2f4610"
          },
          {
            "reference": "urn:uuid:e72263b5-2f84-4d29-91a6-05b13c523531"
          },
          {
            "reference": "urn:uuid:6b0d3aea-0acc-4854-85ea-37a84a57836b"
          },
          {
            "reference": "urn:uuid:622862be-d003-4ea2-aa6e-00d1896a4367"
          },
          {
            "reference": "urn:uuid:4e18ff0b-b6b7-40dd-85c7-2b89e0beace0"
          },
          {
            "reference": "urn:uuid:314393eb-081f-470f-8f89-e699f077a581"
          },
          {
            "reference": "urn:uuid:6e455db3-94ee-490f-aedc-f00b6f29ceb8"
          },
          {
            "reference": "urn:uuid:1cc54d19-3fcd-4b95-aae2-6c0c43ddef80"
          },
          {
            "reference": "urn:uuid:97ccbc0b-346a-411f-a88a-c796af563bad"
          },
          {
            "reference": "urn:uuid:a2028ef9-0c72-4794-b9e6-071b4de237c6"
          },
          {
            "reference": "urn:uuid:b7c07e67-0088-4595-9228-5fba3ce4651a"
          },
          {
            "reference": "urn:uuid:0e1df258-b902-4f48-ba13-ccde563e9c26"
          },
          {
            "reference": "urn:uuid:7814aaee-8b59-419d-bd9d-3a5a346e7f44"
          },
          {
            "reference": "urn:uuid:6a4be0c8-9283-4f03-bdc6-4d06e5065274"
          },
          {
            "reference": "urn:uuid:e13d5af4-da85-4c0d-8394-5ef64cd8b9ba"
          },
          {
            "reference": "urn:uuid:742e94b7-35d2-4eab-93fe-21d23604c490"
          },
          {
            "reference": "urn:uuid:761081f1-6072-4d75-826d-b853c3b306ab"
          },
          {
            "reference": "urn:uuid:2801667c-b637-4160-a7a6-f9e95b604a08"
          },
          {
            "reference": "urn:uuid:2f783bb0-c92d-4f28-bf65-4bd859e9ea2f"
          },
          {
            "reference": "urn:uuid:9b2c3b9e-6266-4c9a-a283-d80eb2f277f4"
          },
          {
            "reference": "urn:uuid:cc6834e4-53e8-45df-abca-a427d1036605"
          },
          {
            "reference": "urn:uuid:1436f14f-2938-4b28-a84a-d3a7bbfca083"
          }
        ],
        "status": "registered",
        "code": {
          "coding": [
            {
              "code": "11502-2",
              "system": "http://loinc.org",
              "display": "Laboratory report"
            }
          ]
        },
        "subject": {
          "reference": "urn:uuid:6e8480c9-e162-40de-aa91-ad3f7288b80d",
          "display": "Molly Jenkins"
        }
      }
    },
    {
      "fullUrl": "urn:uuid:6e8480c9-e162-40de-aa91-ad3f7288b80d",
      "resource": {
        "resourceType": "Patient",
        "id": "6e8480c9-e162-40de-aa91-ad3f7288b80d",
        "meta": {
          "security": [
            {
              "system": "http://terminology.hl7.org/CodeSystem/v3-ActReason",
              "code": "HTEST"
            },
            {
              "system": "http://terminology.hl7.org/CodeSystem/v3-ActReason",
              "code": "TRAIN"
            }
          ],
          "tag": [
            {
              "system": "https://synderai.net/fhir/CodeSystem/tags",
              "code": "synthetic",
              "display": "SYNDERAI Synthetic data"
            }
          ],
          "profile": [
            "http://hl7.eu/fhir/base/StructureDefinition/patient-eu-core"
          ]
        },
        "identifier": [
          {
            "type": {
              "coding": [
                {
                  "code": "PT",
                  "system": "http://terminology.hl7.org/CodeSystem/v2-0203"
                }
              ]
            },
            "system": "http://ec.europa.eu/identifier/eci",
            "value": "7634-012682-0"
          },
          {
            "type": {
              "coding": [
                {
                  "code": "MR",
                  "system": "http://terminology.hl7.org/CodeSystem/v2-0203"
                }
              ]
            },
            "system": "http://local.setting.eu/identifier",
            "value": "9934a8eb-b6e1-34e1-edf5-57a0262d1bea"
          }
        ],
        "name": [
          {
            "family": "Jenkins"
          },
          {
            "given": [
              "Molly"
            ]
          },
          {
            "text": "Molly Jenkins"
          }
        ],
        "address": [
          {
            "line": [
              "98 Ali field"
            ],
            "use": "home",
            "type": "physical",
            "postalCode": "AB42",
            "city": "Port Jennamouth",
            "country": "United Kingdom"
          }
        ],
        "telecom": [
          {
            "system": "phone",
            "value": "(0118) 496 0334"
          }
        ],
        "extension": [
          {
            "url": "http://hl7.org/fhir/StructureDefinition/patient-nationality",
            "valueCodeableConcept": {
              "coding": [
                {
                  "code": "GB",
                  "system": "http://hl7.org/fhir/ValueSet/country"
                }
              ]
            }
          }
        ],
        "text": {
          "status": "generated",
          "div": "<div xmlns=\"http://www.w3.org/1999/xhtml\"><table class=\"hl7__ips\"><tr><td>Molly Jenkins</td><td>female</td><td>14-Aug-1967</td></tr></table></div>"
        },
        "gender": "female",
        "birthDate": "1967-08-14"
      }
    },
    {
      "fullUrl": "urn:uuid:2bbcae98-c0a8-42c9-968e-e53aeec46194",
      "resource": {
        "resourceType": "ServiceRequest",
        "id": "2bbcae98-c0a8-42c9-968e-e53aeec46194",
        "meta": {
          "profile": [
            "http://hl7.eu/fhir/laboratory/StructureDefinition/ServiceRequest-eu-lab"
          ]
        },
        "identifier": [
          {
            "system": "http://example.org",
            "value": "c1318242-5287-4c58-8a8c-f1cc804a27a1"
          }
        ],
        "specimen": [
          {
            "reference": "urn:uuid:0e23c6f1-eafc-481f-916d-32e2daf2075c"
          },
          {
            "reference": "urn:uuid:e18742b1-b5e0-4f8b-a6d1-572519cdcc50"
          },
          {
            "reference": "urn:uuid:b3c7a222-363f-4b5c-b08d-656f462f86b3"
          }
        ],
        "reasonCode": [
          {
            "coding": [
              {
                "code": "431856006",
                "system": "http://snomed.info/sct",
                "display": "Chronic kidney disease stage 2"
              }
            ]
          },
          {
            "coding": [
              {
                "code": "90781000119102",
                "system": "http://snomed.info/sct",
                "display": "Microalbuminuria due to type 2 diabetes mellitus"
              }
            ]
          },
          {
            "coding": [
              {
                "code": "127013003",
                "system": "http://snomed.info/sct",
                "display": "Disorder of kidney due to diabetes mellitus"
              }
            ]
          },
          {
            "coding": [
              {
                "code": "431855005",
                "system": "http://snomed.info/sct",
                "display": "Chronic kidney disease stage 1"
              }
            ]
          },
          {
            "coding": [
              {
                "code": "15777000",
                "system": "http://snomed.info/sct",
                "display": "Prediabetes"
              }
            ]
          },
          {
            "coding": [
              {
                "code": "59621000",
                "system": "http://snomed.info/sct",
                "display": "Essential hypertension"
              }
            ]
          },
          {
            "coding": [
              {
                "code": "53827007",
                "system": "http://snomed.info/sct",
                "display": "Excessive salivation"
              }
            ]
          },
          {
            "coding": [
              {
                "code": "64859006",
                "system": "http://snomed.info/sct",
                "display": "Osteoporosis"
              }
            ]
          },
          {
            "coding": [
              {
                "code": "128188000",
                "system": "http://snomed.info/sct",
                "display": "Cerebral palsy"
              }
            ]
          },
          {
            "coding": [
              {
                "code": "235595009",
                "system": "http://snomed.info/sct",
                "display": "Gastroesophageal reflux disease"
              }
            ]
          }
        ],
        "status": "active",
        "intent": "order",
        "code": {
          "coding": [
            {
              "code": "108252007",
              "system": "http://snomed.info/sct",
              "display": "Laboratory procedure"
            }
          ]
        },
        "subject": {
          "reference": "urn:uuid:6e8480c9-e162-40de-aa91-ad3f7288b80d",
          "display": "Molly Jenkins"
        },
        "requester": {
          "reference": "urn:uuid:1c403c40-abac-4499-aa25-36024fdf1d36"
        }
      }
    },
    {
      "fullUrl": "urn:uuid:1c403c40-abac-4499-aa25-36024fdf1d36",
      "resource": {
        "resourceType": "PractitionerRole",
        "id": "1c403c40-abac-4499-aa25-36024fdf1d36",
        "meta": {
          "profile": [
            "http://hl7.eu/fhir/base/StructureDefinition/practitionerRole-eu"
          ]
        },
        "text": {
          "status": "generated",
          "div": "<div xmlns=\"http://www.w3.org/1999/xhtml\">Provider Role Id: 1c403c40-abac-4499-aa25-36024fdf1d36</div>"
        },
        "organization": {
          "reference": "urn:uuid:bf757de5-0280-4fa1-b699-385466586f30"
        }
      }
    },
    {
      "fullUrl": "urn:uuid:bf757de5-0280-4fa1-b699-385466586f30",
      "resource": {
        "resourceType": "Organization",
        "id": "bf757de5-0280-4fa1-b699-385466586f30",
        "meta": {
          "profile": [
            "http://hl7.eu/fhir/base/StructureDefinition/organization-eu"
          ]
        },
        "identifier": [
          {
            "assigner": {
              "display": "HL7 Europe"
            },
            "system": "urn:oid:2.16.840.1.113883.2.51.999",
            "value": "53cb7d23-e369-4c59-9be8-09ef593b6d8e"
          }
        ],
        "address": [
          {
            "city": "Aberdeen",
            "postalCode": "AB11 6",
            "country": "United Kingdom"
          }
        ],
        "text": {
          "status": "generated",
          "div": "<div xmlns=\"http://www.w3.org/1999/xhtml\">Provider Organization: Aberdeen Community Health and Care Village</div>"
        },
        "name": "Aberdeen Community Health and Care Village"
      }
    },
    {
      "fullUrl": "urn:uuid:0e23c6f1-eafc-481f-916d-32e2daf2075c",
      "resource": {
        "resourceType": "Specimen",
        "id": "0e23c6f1-eafc-481f-916d-32e2daf2075c",
        "meta": {
          "profile": [
            "http://hl7.eu/fhir/laboratory/StructureDefinition/Specimen-eu-lab"
          ]
        },
        "collection": {
          "collectedDateTime": "2018-07-05"
        },
        "text": {
          "status": "generated",
          "div": "<div xmlns=\"http://www.w3.org/1999/xhtml\"><table class=\"hl7__eu__lab__report\"><tr><th>Specimen</th><th>Collection Date</th></tr><tr><td>Acellular blood (serum or plasma) specimen</td><td><span class=\"nb\">05-Jul-2018</span></td></tr></table></div>"
        },
        "type": {
          "coding": [
            {
              "code": "122592007",
              "system": "http://snomed.info/sct",
              "display": "Acellular blood (serum or plasma) specimen"
            }
          ]
        }
      }
    },
    {
      "fullUrl": "urn:uuid:e18742b1-b5e0-4f8b-a6d1-572519cdcc50",
      "resource": {
        "resourceType": "Specimen",
        "id": "e18742b1-b5e0-4f8b-a6d1-572519cdcc50",
        "meta": {
          "profile": [
            "http://hl7.eu/fhir/laboratory/StructureDefinition/Specimen-eu-lab"
          ]
        },
        "collection": {
          "collectedDateTime": "2018-07-05"
        },
        "text": {
          "status": "generated",
          "div": "<div xmlns=\"http://www.w3.org/1999/xhtml\"><table class=\"hl7__eu__lab__report\"><tr><th>Specimen</th><th>Collection Date</th></tr><tr><td>Urine specimen</td><td><span class=\"nb\">05-Jul-2018</span></td></tr></table></div>"
        },
        "type": {
          "coding": [
            {
              "code": "122575003",
              "system": "http://snomed.info/sct",
              "display": "Urine specimen"
            }
          ]
        }
      }
    },
    {
      "fullUrl": "urn:uuid:b3c7a222-363f-4b5c-b08d-656f462f86b3",
      "resource": {
        "resourceType": "Specimen",
        "id": "b3c7a222-363f-4b5c-b08d-656f462f86b3",
        "meta": {
          "profile": [
            "http://hl7.eu/fhir/laboratory/StructureDefinition/Specimen-eu-lab"
          ]
        },
        "collection": {
          "collectedDateTime": "2018-07-05"
        },
        "text": {
          "status": "generated",
          "div": "<div xmlns=\"http://www.w3.org/1999/xhtml\"><table class=\"hl7__eu__lab__report\"><tr><th>Specimen</th><th>Collection Date</th></tr><tr><td>Whole blood specimen (specimen)</td><td><span class=\"nb\">05-Jul-2018</span></td></tr></table></div>"
        },
        "type": {
          "coding": [
            {
              "code": "258580003",
              "system": "http://snomed.info/sct",
              "display": "Whole blood specimen (specimen)"
            }
          ]
        }
      }
    },
    {
      "fullUrl": "urn:uuid:5f95e520-a048-44e7-968b-66a3c99d47c3",
      "resource": {
        "resourceType": "Observation",
        "id": "5f95e520-a048-44e7-968b-66a3c99d47c3",
        "meta": {
          "profile": [
            "http://hl7.eu/fhir/laboratory/StructureDefinition/Observation-resultslab-eu-lab"
          ]
        },
        "performer": [
          {
            "display": "The Central European Lab"
          }
        ],
        "category": [
          {
            "coding": [
              {
                "system": "http://terminology.hl7.org/CodeSystem/observation-category",
                "code": "laboratory"
              }
            ]
          }
        ],
        "code": {
          "coding": [
            {
              "code": "2345-7",
              "system": "http://loinc.org",
              "display": "Glucose [Mass/volume] in Serum or Plasma"
            }
          ],
          "text": "Glucose [Mass/volume] in Serum or Plasma"
        },
        "valueQuantity": {
          "system": "http://unitsofmeasure.org",
          "value": 66.3,
          "unit": "mg/dL",
          "code": "mg/dL"
        },
        "referenceRange": [
          {
            "low": {
              "value": 70,
              "code": "mg/dL",
              "system": "http://unitsofmeasure.org"
            }
          },
          {
            "high": {
              "value": 139,
              "code": "mg/dL",
              "system": "http://unitsofmeasure.org"
            }
          }
        ],
        "interpretation": [
          {
            "coding": [
              {
                "code": "L",
                "system": "http://terminology.hl7.org/CodeSystem/v3-ObservationInterpretation",
                "display": "Low"
              }
            ]
          }
        ],
        "text": {
          "status": "generated",
          "div": "<div xmlns=\"http://www.w3.org/1999/xhtml\"><table class=\"hl7__eu__lab__report\"><tr><th>Test</th><th>05-Jul-2018</th><th>Reference&#xA0;Range</th><th>Unit</th></tr><tr><td>Glucose [Mass/volume] in Serum or Plasma</td><td>66.3</td><td>70 - 139</td><td>L</td><td>mg/dL</td></tr></table></div>"
        },
        "status": "final",
        "subject": {
          "reference": "urn:uuid:6e8480c9-e162-40de-aa91-ad3f7288b80d",
          "display": "Molly Jenkins"
        },
        "effectiveDateTime": "2018-07-05T14:42:11Z",
        "specimen": {
          "reference": "urn:uuid:0e23c6f1-eafc-481f-916d-32e2daf2075c"
        }
      }
    },
    {
      "fullUrl": "urn:uuid:118bd2d8-c85e-4306-baca-d3c008a70ca8",
      "resource": {
        "resourceType": "Observation",
        "id": "118bd2d8-c85e-4306-baca-d3c008a70ca8",
        "meta": {
          "profile": [
            "http://hl7.eu/fhir/laboratory/StructureDefinition/Observation-resultslab-eu-lab"
          ]
        },
        "performer": [
          {
            "display": "The Central European Lab"
          }
        ],
        "category": [
          {
            "coding": [
              {
                "system": "http://terminology.hl7.org/CodeSystem/observation-category",
                "code": "laboratory"
              }
            ]
          }
        ],
        "code": {
          "coding": [
            {
              "code": "3094-0",
              "system": "http://loinc.org",
              "display": "Urea nitrogen [Mass/volume] in Serum or Plasma"
            }
          ],
          "text": "Urea nitrogen [Mass/volume] in Serum or Plasma"
        },
        "valueQuantity": {
          "system": "http://unitsofmeasure.org",
          "value": 16.9,
          "unit": "mg/dL",
          "code": "mg/dL"
        },
        "referenceRange": [
          {
            "low": {
              "value": 7,
              "code": "mg/dL",
              "system": "http://unitsofmeasure.org"
            }
          },
          {
            "high": {
              "value": 20,
              "code": "mg/dL",
              "system": "http://unitsofmeasure.org"
            }
          }
        ],
        "text": {
          "status": "generated",
          "div": "<div xmlns=\"http://www.w3.org/1999/xhtml\"><table class=\"hl7__eu__lab__report\"><tr><th>Test</th><th>05-Jul-2018</th><th>Reference&#xA0;Range</th><th>Unit</th></tr><tr><td>Urea nitrogen [Mass/volume] in Serum or Plasma</td><td>16.9</td><td>7 - 20</td><td></td><td>mg/dL</td></tr></table></div>"
        },
        "status": "final",
        "subject": {
          "reference": "urn:uuid:6e8480c9-e162-40de-aa91-ad3f7288b80d",
          "display": "Molly Jenkins"
        },
        "effectiveDateTime": "2018-07-05T14:42:11Z",
        "specimen": {
          "reference": "urn:uuid:0e23c6f1-eafc-481f-916d-32e2daf2075c"
        }
      }
    },
    {
      "fullUrl": "urn:uuid:a373be5d-1670-4e11-866a-5e515416619e",
      "resource": {
        "resourceType": "Observation",
        "id": "a373be5d-1670-4e11-866a-5e515416619e",
        "meta": {
          "profile": [
            "http://hl7.eu/fhir/laboratory/StructureDefinition/Observation-resultslab-eu-lab"
          ]
        },
        "performer": [
          {
            "display": "The Central European Lab"
          }
        ],
        "category": [
          {
            "coding": [
              {
                "system": "http://terminology.hl7.org/CodeSystem/observation-category",
                "code": "laboratory"
              }
            ]
          }
        ],
        "code": {
          "coding": [
            {
              "code": "2160-0",
              "system": "http://loinc.org",
              "display": "Creatinine [Mass/volume] in Serum or Plasma"
            }
          ],
          "text": "Creatinine [Mass/volume] in Serum or Plasma"
        },
        "valueQuantity": {
          "system": "http://unitsofmeasure.org",
          "value": 1.9,
          "unit": "mg/dL",
          "code": "mg/dL"
        },
        "referenceRange": [
          {
            "low": {
              "value": 0.6,
              "code": "mg/dL",
              "system": "http://unitsofmeasure.org"
            }
          },
          {
            "high": {
              "value": 1.1,
              "code": "mg/dL",
              "system": "http://unitsofmeasure.org"
            }
          }
        ],
        "interpretation": [
          {
            "coding": [
              {
                "code": "H",
                "system": "http://terminology.hl7.org/CodeSystem/v3-ObservationInterpretation",
                "display": "High"
              }
            ]
          }
        ],
        "text": {
          "status": "generated",
          "div": "<div xmlns=\"http://www.w3.org/1999/xhtml\"><table class=\"hl7__eu__lab__report\"><tr><th>Test</th><th>05-Jul-2018</th><th>Reference&#xA0;Range</th><th>Unit</th></tr><tr><td>Creatinine [Mass/volume] in Serum or Plasma</td><td>1.9</td><td>0.6 - 1.1</td><td>H</td><td>mg/dL</td></tr></table></div>"
        },
        "status": "final",
        "subject": {
          "reference": "urn:uuid:6e8480c9-e162-40de-aa91-ad3f7288b80d",
          "display": "Molly Jenkins"
        },
        "effectiveDateTime": "2018-07-05T14:42:11Z",
        "specimen": {
          "reference": "urn:uuid:0e23c6f1-eafc-481f-916d-32e2daf2075c"
        }
      }
    },
    {
      "fullUrl": "urn:uuid:3c9b4f48-3307-4706-b4e8-c5cf22e21e8e",
      "resource": {
        "resourceType": "Observation",
        "id": "3c9b4f48-3307-4706-b4e8-c5cf22e21e8e",
        "meta": {
          "profile": [
            "http://hl7.eu/fhir/laboratory/StructureDefinition/Observation-resultslab-eu-lab"
          ]
        },
        "performer": [
          {
            "display": "The Central European Lab"
          }
        ],
        "category": [
          {
            "coding": [
              {
                "system": "http://terminology.hl7.org/CodeSystem/observation-category",
                "code": "laboratory"
              }
            ]
          }
        ],
        "code": {
          "coding": [
            {
              "code": "17861-6",
              "system": "http://loinc.org",
              "display": "Calcium [Mass/volume] in Serum or Plasma"
            }
          ],
          "text": "Calcium [Mass/volume] in Serum or Plasma"
        },
        "valueQuantity": {
          "system": "http://unitsofmeasure.org",
          "value": 9.4,
          "unit": "mg/dL",
          "code": "mg/dL"
        },
        "referenceRange": [
          {
            "low": {
              "value": 8.5,
              "code": "mg/dL",
              "system": "http://unitsofmeasure.org"
            }
          },
          {
            "high": {
              "value": 10.4,
              "code": "mg/dL",
              "system": "http://unitsofmeasure.org"
            }
          }
        ],
        "text": {
          "status": "generated",
          "div": "<div xmlns=\"http://www.w3.org/1999/xhtml\"><table class=\"hl7__eu__lab__report\"><tr><th>Test</th><th>05-Jul-2018</th><th>Reference&#xA0;Range</th><th>Unit</th></tr><tr><td>Calcium [Mass/volume] in Serum or Plasma</td><td>9.4</td><td>8.5 - 10.4</td><td></td><td>mg/dL</td></tr></table></div>"
        },
        "status": "final",
        "subject": {
          "reference": "urn:uuid:6e8480c9-e162-40de-aa91-ad3f7288b80d",
          "display": "Molly Jenkins"
        },
        "effectiveDateTime": "2018-07-05T14:42:11Z",
        "specimen": {
          "reference": "urn:uuid:0e23c6f1-eafc-481f-916d-32e2daf2075c"
        }
      }
    },
    {
      "fullUrl": "urn:uuid:a84dd28b-d4cf-47cb-a2f8-da28be58be98",
      "resource": {
        "resourceType": "Observation",
        "id": "a84dd28b-d4cf-47cb-a2f8-da28be58be98",
        "meta": {
          "profile": [
            "http://hl7.eu/fhir/laboratory/StructureDefinition/Observation-resultslab-eu-lab"
          ]
        },
        "performer": [
          {
            "display": "The Central European Lab"
          }
        ],
        "category": [
          {
            "coding": [
              {
                "system": "http://terminology.hl7.org/CodeSystem/observation-category",
                "code": "laboratory"
              }
            ]
          }
        ],
        "code": {
          "coding": [
            {
              "code": "2951-2",
              "system": "http://loinc.org",
              "display": "Sodium [Moles/volume] in Serum or Plasma"
            }
          ],
          "text": "Sodium [Moles/volume] in Serum or Plasma"
        },
        "valueQuantity": {
          "system": "http://unitsofmeasure.org",
          "value": 137.2,
          "unit": "mmol/L",
          "code": "mmol/L"
        },
        "referenceRange": [
          {
            "low": {
              "value": 135,
              "code": "mmol/L",
              "system": "http://unitsofmeasure.org"
            }
          },
          {
            "high": {
              "value": 145,
              "code": "mmol/L",
              "system": "http://unitsofmeasure.org"
            }
          }
        ],
        "text": {
          "status": "generated",
          "div": "<div xmlns=\"http://www.w3.org/1999/xhtml\"><table class=\"hl7__eu__lab__report\"><tr><th>Test</th><th>05-Jul-2018</th><th>Reference&#xA0;Range</th><th>Unit</th></tr><tr><td>Sodium [Moles/volume] in Serum or Plasma</td><td>137.2</td><td>135 - 145</td><td></td><td>mmol/L</td></tr></table></div>"
        },
        "status": "final",
        "subject": {
          "reference": "urn:uuid:6e8480c9-e162-40de-aa91-ad3f7288b80d",
          "display": "Molly Jenkins"
        },
        "effectiveDateTime": "2018-07-05T14:42:11Z",
        "specimen": {
          "reference": "urn:uuid:0e23c6f1-eafc-481f-916d-32e2daf2075c"
        }
      }
    },
    {
      "fullUrl": "urn:uuid:951c023b-74b0-45a4-a261-92072d1eee99",
      "resource": {
        "resourceType": "Observation",
        "id": "951c023b-74b0-45a4-a261-92072d1eee99",
        "meta": {
          "profile": [
            "http://hl7.eu/fhir/laboratory/StructureDefinition/Observation-resultslab-eu-lab"
          ]
        },
        "performer": [
          {
            "display": "The Central European Lab"
          }
        ],
        "category": [
          {
            "coding": [
              {
                "system": "http://terminology.hl7.org/CodeSystem/observation-category",
                "code": "laboratory"
              }
            ]
          }
        ],
        "code": {
          "coding": [
            {
              "code": "2823-3",
              "system": "http://loinc.org",
              "display": "Potassium [Moles/volume] in Serum or Plasma"
            }
          ],
          "text": "Potassium [Moles/volume] in Serum or Plasma"
        },
        "valueQuantity": {
          "system": "http://unitsofmeasure.org",
          "value": 5.1,
          "unit": "mmol/L",
          "code": "mmol/L"
        },
        "referenceRange": [
          {
            "low": {
              "value": 3.5,
              "code": "mmol/L",
              "system": "http://unitsofmeasure.org"
            }
          },
          {
            "high": {
              "value": 5.1,
              "code": "mmol/L",
              "system": "http://unitsofmeasure.org"
            }
          }
        ],
        "text": {
          "status": "generated",
          "div": "<div xmlns=\"http://www.w3.org/1999/xhtml\"><table class=\"hl7__eu__lab__report\"><tr><th>Test</th><th>05-Jul-2018</th><th>Reference&#xA0;Range</th><th>Unit</th></tr><tr><td>Potassium [Moles/volume] in Serum or Plasma</td><td>5.1</td><td>3.5 - 5.1</td><td></td><td>mmol/L</td></tr></table></div>"
        },
        "status": "final",
        "subject": {
          "reference": "urn:uuid:6e8480c9-e162-40de-aa91-ad3f7288b80d",
          "display": "Molly Jenkins"
        },
        "effectiveDateTime": "2018-07-05T14:42:11Z",
        "specimen": {
          "reference": "urn:uuid:0e23c6f1-eafc-481f-916d-32e2daf2075c"
        }
      }
    },
    {
      "fullUrl": "urn:uuid:35e7d11f-444e-4182-a0ae-d8ee2aa959fd",
      "resource": {
        "resourceType": "Observation",
        "id": "35e7d11f-444e-4182-a0ae-d8ee2aa959fd",
        "meta": {
          "profile": [
            "http://hl7.eu/fhir/laboratory/StructureDefinition/Observation-resultslab-eu-lab"
          ]
        },
        "performer": [
          {
            "display": "The Central European Lab"
          }
        ],
        "category": [
          {
            "coding": [
              {
                "system": "http://terminology.hl7.org/CodeSystem/observation-category",
                "code": "laboratory"
              }
            ]
          }
        ],
        "code": {
          "coding": [
            {
              "code": "2075-0",
              "system": "http://loinc.org",
              "display": "Chloride [Moles/volume] in Serum or Plasma"
            }
          ],
          "text": "Chloride [Moles/volume] in Serum or Plasma"
        },
        "valueQuantity": {
          "system": "http://unitsofmeasure.org",
          "value": 110.1,
          "unit": "mmol/L",
          "code": "mmol/L"
        },
        "referenceRange": [
          {
            "low": {
              "value": 98,
              "code": "mmol/L",
              "system": "http://unitsofmeasure.org"
            }
          },
          {
            "high": {
              "value": 110,
              "code": "mmol/L",
              "system": "http://unitsofmeasure.org"
            }
          }
        ],
        "interpretation": [
          {
            "coding": [
              {
                "code": "H",
                "system": "http://terminology.hl7.org/CodeSystem/v3-ObservationInterpretation",
                "display": "High"
              }
            ]
          }
        ],
        "text": {
          "status": "generated",
          "div": "<div xmlns=\"http://www.w3.org/1999/xhtml\"><table class=\"hl7__eu__lab__report\"><tr><th>Test</th><th>05-Jul-2018</th><th>Reference&#xA0;Range</th><th>Unit</th></tr><tr><td>Chloride [Moles/volume] in Serum or Plasma</td><td>110.1</td><td>98 - 110</td><td>H</td><td>mmol/L</td></tr></table></div>"
        },
        "status": "final",
        "subject": {
          "reference": "urn:uuid:6e8480c9-e162-40de-aa91-ad3f7288b80d",
          "display": "Molly Jenkins"
        },
        "effectiveDateTime": "2018-07-05T14:42:11Z",
        "specimen": {
          "reference": "urn:uuid:0e23c6f1-eafc-481f-916d-32e2daf2075c"
        }
      }
    },
    {
      "fullUrl": "urn:uuid:fd8ad82a-68c9-4115-8c41-eb75c17bf711",
      "resource": {
        "resourceType": "Observation",
        "id": "fd8ad82a-68c9-4115-8c41-eb75c17bf711",
        "meta": {
          "profile": [
            "http://hl7.eu/fhir/laboratory/StructureDefinition/Observation-resultslab-eu-lab"
          ]
        },
        "performer": [
          {
            "display": "The Central European Lab"
          }
        ],
        "category": [
          {
            "coding": [
              {
                "system": "http://terminology.hl7.org/CodeSystem/observation-category",
                "code": "laboratory"
              }
            ]
          }
        ],
        "code": {
          "coding": [
            {
              "code": "2028-9",
              "system": "http://loinc.org",
              "display": "Carbon dioxide, total [Moles/volume] in Serum or Plasma"
            }
          ],
          "text": "Carbon dioxide, total [Moles/volume] in Serum or Plasma"
        },
        "valueQuantity": {
          "system": "http://unitsofmeasure.org",
          "value": 22.5,
          "unit": "mmol/L",
          "code": "mmol/L"
        },
        "referenceRange": [
          {
            "low": {
              "value": 22,
              "code": "mmol/L",
              "system": "http://unitsofmeasure.org"
            }
          },
          {
            "high": {
              "value": 32,
              "code": "mmol/L",
              "system": "http://unitsofmeasure.org"
            }
          }
        ],
        "text": {
          "status": "generated",
          "div": "<div xmlns=\"http://www.w3.org/1999/xhtml\"><table class=\"hl7__eu__lab__report\"><tr><th>Test</th><th>05-Jul-2018</th><th>Reference&#xA0;Range</th><th>Unit</th></tr><tr><td>Carbon dioxide, total [Moles/volume] in Serum or Plasma</td><td>22.5</td><td>22 - 32</td><td></td><td>mmol/L</td></tr></table></div>"
        },
        "status": "final",
        "subject": {
          "reference": "urn:uuid:6e8480c9-e162-40de-aa91-ad3f7288b80d",
          "display": "Molly Jenkins"
        },
        "effectiveDateTime": "2018-07-05T14:42:11Z",
        "specimen": {
          "reference": "urn:uuid:0e23c6f1-eafc-481f-916d-32e2daf2075c"
        }
      }
    },
    {
      "fullUrl": "urn:uuid:158feb9b-4d8d-4b2f-a878-25407b4f4e6e",
      "resource": {
        "resourceType": "Observation",
        "id": "158feb9b-4d8d-4b2f-a878-25407b4f4e6e",
        "meta": {
          "profile": [
            "http://hl7.eu/fhir/laboratory/StructureDefinition/Observation-resultslab-eu-lab"
          ]
        },
        "performer": [
          {
            "display": "The Central European Lab"
          }
        ],
        "category": [
          {
            "coding": [
              {
                "system": "http://terminology.hl7.org/CodeSystem/observation-category",
                "code": "laboratory"
              }
            ]
          }
        ],
        "code": {
          "coding": [
            {
              "code": "5767-9",
              "system": "http://loinc.org",
              "display": "Appearance of Urine"
            }
          ],
          "text": "Appearance of Urine"
        },
        "text": {
          "status": "generated",
          "div": "<div xmlns=\"http://www.w3.org/1999/xhtml\"><table class=\"hl7__eu__lab__report\"><tr><th>Test</th><th>05-Jul-2018</th><th>Reference&#xA0;Range</th><th>Unit</th></tr><tr><td>Appearance of Urine</td></tr></table></div>"
        },
        "status": "final",
        "subject": {
          "reference": "urn:uuid:6e8480c9-e162-40de-aa91-ad3f7288b80d",
          "display": "Molly Jenkins"
        },
        "effectiveDateTime": "2018-07-05T14:42:11Z",
        "specimen": {
          "reference": "urn:uuid:e18742b1-b5e0-4f8b-a6d1-572519cdcc50"
        }
      }
    },
    {
      "fullUrl": "urn:uuid:c2df9001-430a-4378-826a-9c9f098e7d64",
      "resource": {
        "resourceType": "Observation",
        "id": "c2df9001-430a-4378-826a-9c9f098e7d64",
        "meta": {
          "profile": [
            "http://hl7.eu/fhir/laboratory/StructureDefinition/Observation-resultslab-eu-lab"
          ]
        },
        "performer": [
          {
            "display": "The Central European Lab"
          }
        ],
        "category": [
          {
            "coding": [
              {
                "system": "http://terminology.hl7.org/CodeSystem/observation-category",
                "code": "laboratory"
              }
            ]
          }
        ],
        "code": {
          "coding": [
            {
              "code": "34533-0",
              "system": "http://loinc.org",
              "display": "Odor of Urine"
            }
          ],
          "text": "Odor of Urine"
        },
        "text": {
          "status": "generated",
          "div": "<div xmlns=\"http://www.w3.org/1999/xhtml\"><table class=\"hl7__eu__lab__report\"><tr><th>Test</th><th>05-Jul-2018</th><th>Reference&#xA0;Range</th><th>Unit</th></tr><tr><td>Odor of Urine</td></tr></table></div>"
        },
        "status": "final",
        "subject": {
          "reference": "urn:uuid:6e8480c9-e162-40de-aa91-ad3f7288b80d",
          "display": "Molly Jenkins"
        },
        "effectiveDateTime": "2018-07-05T14:42:11Z",
        "specimen": {
          "reference": "urn:uuid:e18742b1-b5e0-4f8b-a6d1-572519cdcc50"
        }
      }
    },
    {
      "fullUrl": "urn:uuid:77e6f4b0-15bf-4002-ad82-8197ba8250e9",
      "resource": {
        "resourceType": "Observation",
        "id": "77e6f4b0-15bf-4002-ad82-8197ba8250e9",
        "meta": {
          "profile": [
            "http://hl7.eu/fhir/laboratory/StructureDefinition/Observation-resultslab-eu-lab"
          ]
        },
        "performer": [
          {
            "display": "The Central European Lab"
          }
        ],
        "category": [
          {
            "coding": [
              {
                "system": "http://terminology.hl7.org/CodeSystem/observation-category",
                "code": "laboratory"
              }
            ]
          }
        ],
        "code": {
          "coding": [
            {
              "code": "32167-9",
              "system": "http://loinc.org",
              "display": "Clarity of Urine"
            }
          ],
          "text": "Clarity of Urine"
        },
        "text": {
          "status": "generated",
          "div": "<div xmlns=\"http://www.w3.org/1999/xhtml\"><table class=\"hl7__eu__lab__report\"><tr><th>Test</th><th>05-Jul-2018</th><th>Reference&#xA0;Range</th><th>Unit</th></tr><tr><td>Clarity of Urine</td></tr></table></div>"
        },
        "status": "final",
        "subject": {
          "reference": "urn:uuid:6e8480c9-e162-40de-aa91-ad3f7288b80d",
          "display": "Molly Jenkins"
        },
        "effectiveDateTime": "2018-07-05T14:42:11Z",
        "specimen": {
          "reference": "urn:uuid:e18742b1-b5e0-4f8b-a6d1-572519cdcc50"
        }
      }
    },
    {
      "fullUrl": "urn:uuid:3ad90d64-0794-4667-b0c8-26f259a8f0b2",
      "resource": {
        "resourceType": "Observation",
        "id": "3ad90d64-0794-4667-b0c8-26f259a8f0b2",
        "meta": {
          "profile": [
            "http://hl7.eu/fhir/laboratory/StructureDefinition/Observation-resultslab-eu-lab"
          ]
        },
        "performer": [
          {
            "display": "The Central European Lab"
          }
        ],
        "category": [
          {
            "coding": [
              {
                "system": "http://terminology.hl7.org/CodeSystem/observation-category",
                "code": "laboratory"
              }
            ]
          }
        ],
        "code": {
          "coding": [
            {
              "code": "5778-6",
              "system": "http://loinc.org",
              "display": "Color of Urine"
            }
          ],
          "text": "Color of Urine"
        },
        "text": {
          "status": "generated",
          "div": "<div xmlns=\"http://www.w3.org/1999/xhtml\"><table class=\"hl7__eu__lab__report\"><tr><th>Test</th><th>05-Jul-2018</th><th>Reference&#xA0;Range</th><th>Unit</th></tr><tr><td>Color of Urine</td></tr></table></div>"
        },
        "status": "final",
        "subject": {
          "reference": "urn:uuid:6e8480c9-e162-40de-aa91-ad3f7288b80d",
          "display": "Molly Jenkins"
        },
        "effectiveDateTime": "2018-07-05T14:42:11Z",
        "specimen": {
          "reference": "urn:uuid:e18742b1-b5e0-4f8b-a6d1-572519cdcc50"
        }
      }
    },
    {
      "fullUrl": "urn:uuid:1ffe0ada-95e9-4a7c-b093-e9041696c8fd",
      "resource": {
        "resourceType": "Observation",
        "id": "1ffe0ada-95e9-4a7c-b093-e9041696c8fd",
        "meta": {
          "profile": [
            "http://hl7.eu/fhir/laboratory/StructureDefinition/Observation-resultslab-eu-lab"
          ]
        },
        "performer": [
          {
            "display": "The Central European Lab"
          }
        ],
        "category": [
          {
            "coding": [
              {
                "system": "http://terminology.hl7.org/CodeSystem/observation-category",
                "code": "laboratory"
              }
            ]
          }
        ],
        "code": {
          "coding": [
            {
              "code": "5792-7",
              "system": "http://loinc.org",
              "display": "Glucose [Mass/volume] in Urine by Test strip"
            }
          ],
          "text": "Glucose [Mass/volume] in Urine by Test strip"
        },
        "valueQuantity": {
          "system": "http://unitsofmeasure.org",
          "value": 1.9,
          "unit": "mg/dL",
          "code": "mg/dL"
        },
        "referenceRange": [
          {
            "low": {
              "value": 0,
              "code": "mg/dL",
              "system": "http://unitsofmeasure.org"
            }
          },
          {
            "high": {
              "value": 0,
              "code": "mg/dL",
              "system": "http://unitsofmeasure.org"
            }
          }
        ],
        "interpretation": [
          {
            "coding": [
              {
                "code": "H",
                "system": "http://terminology.hl7.org/CodeSystem/v3-ObservationInterpretation",
                "display": "High"
              }
            ]
          }
        ],
        "text": {
          "status": "generated",
          "div": "<div xmlns=\"http://www.w3.org/1999/xhtml\"><table class=\"hl7__eu__lab__report\"><tr><th>Test</th><th>05-Jul-2018</th><th>Reference&#xA0;Range</th><th>Unit</th></tr><tr><td>Glucose [Mass/volume] in Urine by Test strip</td><td>1.9</td><td>0 - 0</td><td>H</td><td>mg/dL</td></tr></table></div>"
        },
        "status": "final",
        "subject": {
          "reference": "urn:uuid:6e8480c9-e162-40de-aa91-ad3f7288b80d",
          "display": "Molly Jenkins"
        },
        "effectiveDateTime": "2018-07-05T14:42:11Z",
        "specimen": {
          "reference": "urn:uuid:e18742b1-b5e0-4f8b-a6d1-572519cdcc50"
        }
      }
    },
    {
      "fullUrl": "urn:uuid:d934ada7-ec45-4740-98f0-3deecd334230",
      "resource": {
        "resourceType": "Observation",
        "id": "d934ada7-ec45-4740-98f0-3deecd334230",
        "meta": {
          "profile": [
            "http://hl7.eu/fhir/laboratory/StructureDefinition/Observation-resultslab-eu-lab"
          ]
        },
        "performer": [
          {
            "display": "The Central European Lab"
          }
        ],
        "category": [
          {
            "coding": [
              {
                "system": "http://terminology.hl7.org/CodeSystem/observation-category",
                "code": "laboratory"
              }
            ]
          }
        ],
        "code": {
          "coding": [
            {
              "code": "25428-4",
              "system": "http://loinc.org",
              "display": "Glucose [Presence] in Urine by Test strip"
            }
          ],
          "text": "Glucose [Presence] in Urine by Test strip"
        },
        "text": {
          "status": "generated",
          "div": "<div xmlns=\"http://www.w3.org/1999/xhtml\"><table class=\"hl7__eu__lab__report\"><tr><th>Test</th><th>05-Jul-2018</th><th>Reference&#xA0;Range</th><th>Unit</th></tr><tr><td>Glucose [Presence] in Urine by Test strip</td></tr></table></div>"
        },
        "status": "final",
        "subject": {
          "reference": "urn:uuid:6e8480c9-e162-40de-aa91-ad3f7288b80d",
          "display": "Molly Jenkins"
        },
        "effectiveDateTime": "2018-07-05T14:42:11Z",
        "specimen": {
          "reference": "urn:uuid:e18742b1-b5e0-4f8b-a6d1-572519cdcc50"
        }
      }
    },
    {
      "fullUrl": "urn:uuid:71fe6e69-9101-4592-b63e-58860b2a8a32",
      "resource": {
        "resourceType": "Observation",
        "id": "71fe6e69-9101-4592-b63e-58860b2a8a32",
        "meta": {
          "profile": [
            "http://hl7.eu/fhir/laboratory/StructureDefinition/Observation-resultslab-eu-lab"
          ]
        },
        "performer": [
          {
            "display": "The Central European Lab"
          }
        ],
        "category": [
          {
            "coding": [
              {
                "system": "http://terminology.hl7.org/CodeSystem/observation-category",
                "code": "laboratory"
              }
            ]
          }
        ],
        "code": {
          "coding": [
            {
              "code": "20505-4",
              "system": "http://loinc.org",
              "display": "Bilirubin.total [Mass/volume] in Urine by Test strip"
            }
          ],
          "text": "Bilirubin.total [Mass/volume] in Urine by Test strip"
        },
        "valueQuantity": {
          "system": "http://unitsofmeasure.org",
          "value": 0.9,
          "unit": "mg/dL",
          "code": "mg/dL"
        },
        "referenceRange": [
          {
            "low": {
              "value": 0,
              "code": "mg/dL",
              "system": "http://unitsofmeasure.org"
            }
          },
          {
            "high": {
              "value": 1.6,
              "code": "mg/dL",
              "system": "http://unitsofmeasure.org"
            }
          }
        ],
        "text": {
          "status": "generated",
          "div": "<div xmlns=\"http://www.w3.org/1999/xhtml\"><table class=\"hl7__eu__lab__report\"><tr><th>Test</th><th>05-Jul-2018</th><th>Reference&#xA0;Range</th><th>Unit</th></tr><tr><td>Bilirubin.total [Mass/volume] in Urine by Test strip</td><td>0.9</td><td>0 - 1.6</td><td></td><td>mg/dL</td></tr></table></div>"
        },
        "status": "final",
        "subject": {
          "reference": "urn:uuid:6e8480c9-e162-40de-aa91-ad3f7288b80d",
          "display": "Molly Jenkins"
        },
        "effectiveDateTime": "2018-07-05T14:42:11Z",
        "specimen": {
          "reference": "urn:uuid:e18742b1-b5e0-4f8b-a6d1-572519cdcc50"
        }
      }
    },
    {
      "fullUrl": "urn:uuid:ffa427e7-d033-4559-a83b-2bd030f3f610",
      "resource": {
        "resourceType": "Observation",
        "id": "ffa427e7-d033-4559-a83b-2bd030f3f610",
        "meta": {
          "profile": [
            "http://hl7.eu/fhir/laboratory/StructureDefinition/Observation-resultslab-eu-lab"
          ]
        },
        "performer": [
          {
            "display": "The Central European Lab"
          }
        ],
        "category": [
          {
            "coding": [
              {
                "system": "http://terminology.hl7.org/CodeSystem/observation-category",
                "code": "laboratory"
              }
            ]
          }
        ],
        "code": {
          "coding": [
            {
              "code": "5770-3",
              "system": "http://loinc.org",
              "display": "Bilirubin.total [Presence] in Urine by Test strip"
            }
          ],
          "text": "Bilirubin.total [Presence] in Urine by Test strip"
        },
        "text": {
          "status": "generated",
          "div": "<div xmlns=\"http://www.w3.org/1999/xhtml\"><table class=\"hl7__eu__lab__report\"><tr><th>Test</th><th>05-Jul-2018</th><th>Reference&#xA0;Range</th><th>Unit</th></tr><tr><td>Bilirubin.total [Presence] in Urine by Test strip</td></tr></table></div>"
        },
        "status": "final",
        "subject": {
          "reference": "urn:uuid:6e8480c9-e162-40de-aa91-ad3f7288b80d",
          "display": "Molly Jenkins"
        },
        "effectiveDateTime": "2018-07-05T14:42:11Z",
        "specimen": {
          "reference": "urn:uuid:e18742b1-b5e0-4f8b-a6d1-572519cdcc50"
        }
      }
    },
    {
      "fullUrl": "urn:uuid:0b97d536-faeb-486b-a3ca-b7922b2f4610",
      "resource": {
        "resourceType": "Observation",
        "id": "0b97d536-faeb-486b-a3ca-b7922b2f4610",
        "meta": {
          "profile": [
            "http://hl7.eu/fhir/laboratory/StructureDefinition/Observation-resultslab-eu-lab"
          ]
        },
        "performer": [
          {
            "display": "The Central European Lab"
          }
        ],
        "category": [
          {
            "coding": [
              {
                "system": "http://terminology.hl7.org/CodeSystem/observation-category",
                "code": "laboratory"
              }
            ]
          }
        ],
        "code": {
          "coding": [
            {
              "code": "5797-6",
              "system": "http://loinc.org",
              "display": "Ketones [Mass/volume] in Urine by Test strip"
            }
          ],
          "text": "Ketones [Mass/volume] in Urine by Test strip"
        },
        "valueQuantity": {
          "system": "http://unitsofmeasure.org",
          "value": 17.3,
          "unit": "mg/dL",
          "code": "mg/dL"
        },
        "referenceRange": [
          {
            "low": {
              "value": 0,
              "code": "mg/dL",
              "system": "http://unitsofmeasure.org"
            }
          },
          {
            "high": {
              "value": 0.5,
              "code": "mg/dL",
              "system": "http://unitsofmeasure.org"
            }
          }
        ],
        "interpretation": [
          {
            "coding": [
              {
                "code": "H",
                "system": "http://terminology.hl7.org/CodeSystem/v3-ObservationInterpretation",
                "display": "High"
              }
            ]
          }
        ],
        "text": {
          "status": "generated",
          "div": "<div xmlns=\"http://www.w3.org/1999/xhtml\"><table class=\"hl7__eu__lab__report\"><tr><th>Test</th><th>05-Jul-2018</th><th>Reference&#xA0;Range</th><th>Unit</th></tr><tr><td>Ketones [Mass/volume] in Urine by Test strip</td><td>17.3</td><td>0 - 0.5</td><td>H</td><td>mg/dL</td></tr></table></div>"
        },
        "status": "final",
        "subject": {
          "reference": "urn:uuid:6e8480c9-e162-40de-aa91-ad3f7288b80d",
          "display": "Molly Jenkins"
        },
        "effectiveDateTime": "2018-07-05T14:42:11Z",
        "specimen": {
          "reference": "urn:uuid:e18742b1-b5e0-4f8b-a6d1-572519cdcc50"
        }
      }
    },
    {
      "fullUrl": "urn:uuid:e72263b5-2f84-4d29-91a6-05b13c523531",
      "resource": {
        "resourceType": "Observation",
        "id": "e72263b5-2f84-4d29-91a6-05b13c523531",
        "meta": {
          "profile": [
            "http://hl7.eu/fhir/laboratory/StructureDefinition/Observation-resultslab-eu-lab"
          ]
        },
        "performer": [
          {
            "display": "The Central European Lab"
          }
        ],
        "category": [
          {
            "coding": [
              {
                "system": "http://terminology.hl7.org/CodeSystem/observation-category",
                "code": "laboratory"
              }
            ]
          }
        ],
        "code": {
          "coding": [
            {
              "code": "2514-8",
              "system": "http://loinc.org",
              "display": "Ketones [Presence] in Urine by Test strip"
            }
          ],
          "text": "Ketones [Presence] in Urine by Test strip"
        },
        "text": {
          "status": "generated",
          "div": "<div xmlns=\"http://www.w3.org/1999/xhtml\"><table class=\"hl7__eu__lab__report\"><tr><th>Test</th><th>05-Jul-2018</th><th>Reference&#xA0;Range</th><th>Unit</th></tr><tr><td>Ketones [Presence] in Urine by Test strip</td></tr></table></div>"
        },
        "status": "final",
        "subject": {
          "reference": "urn:uuid:6e8480c9-e162-40de-aa91-ad3f7288b80d",
          "display": "Molly Jenkins"
        },
        "effectiveDateTime": "2018-07-05T14:42:11Z",
        "specimen": {
          "reference": "urn:uuid:e18742b1-b5e0-4f8b-a6d1-572519cdcc50"
        }
      }
    },
    {
      "fullUrl": "urn:uuid:6b0d3aea-0acc-4854-85ea-37a84a57836b",
      "resource": {
        "resourceType": "Observation",
        "id": "6b0d3aea-0acc-4854-85ea-37a84a57836b",
        "meta": {
          "profile": [
            "http://hl7.eu/fhir/laboratory/StructureDefinition/Observation-resultslab-eu-lab"
          ]
        },
        "performer": [
          {
            "display": "The Central European Lab"
          }
        ],
        "category": [
          {
            "coding": [
              {
                "system": "http://terminology.hl7.org/CodeSystem/observation-category",
                "code": "laboratory"
              }
            ]
          }
        ],
        "code": {
          "coding": [
            {
              "code": "5811-5",
              "system": "http://loinc.org",
              "display": "Specific gravity of Urine by Test strip"
            }
          ],
          "text": "Specific gravity of Urine by Test strip"
        },
        "valueQuantity": {
          "system": "http://unitsofmeasure.org",
          "value": 1,
          "unit": "{nominal}",
          "code": "{nominal}"
        },
        "referenceRange": [
          {
            "low": {
              "value": 1.005,
              "code": "g/mL",
              "system": "http://unitsofmeasure.org"
            }
          },
          {
            "high": {
              "value": 1.03,
              "code": "g/mL",
              "system": "http://unitsofmeasure.org"
            }
          }
        ],
        "interpretation": [
          {
            "coding": [
              {
                "code": "L",
                "system": "http://terminology.hl7.org/CodeSystem/v3-ObservationInterpretation",
                "display": "Low"
              }
            ]
          }
        ],
        "text": {
          "status": "generated",
          "div": "<div xmlns=\"http://www.w3.org/1999/xhtml\"><table class=\"hl7__eu__lab__report\"><tr><th>Test</th><th>05-Jul-2018</th><th>Reference&#xA0;Range</th><th>Unit</th></tr><tr><td>Specific gravity of Urine by Test strip</td><td>1.0</td><td>1.005 - 1.03</td><td>L</td><td>{nominal}</td></tr></table></div>"
        },
        "status": "final",
        "subject": {
          "reference": "urn:uuid:6e8480c9-e162-40de-aa91-ad3f7288b80d",
          "display": "Molly Jenkins"
        },
        "effectiveDateTime": "2018-07-05T14:42:11Z",
        "specimen": {
          "reference": "urn:uuid:e18742b1-b5e0-4f8b-a6d1-572519cdcc50"
        }
      }
    },
    {
      "fullUrl": "urn:uuid:622862be-d003-4ea2-aa6e-00d1896a4367",
      "resource": {
        "resourceType": "Observation",
        "id": "622862be-d003-4ea2-aa6e-00d1896a4367",
        "meta": {
          "profile": [
            "http://hl7.eu/fhir/laboratory/StructureDefinition/Observation-resultslab-eu-lab"
          ]
        },
        "performer": [
          {
            "display": "The Central European Lab"
          }
        ],
        "category": [
          {
            "coding": [
              {
                "system": "http://terminology.hl7.org/CodeSystem/observation-category",
                "code": "laboratory"
              }
            ]
          }
        ],
        "code": {
          "coding": [
            {
              "code": "5803-2",
              "system": "http://loinc.org",
              "display": "pH of Urine by Test strip"
            }
          ],
          "text": "pH of Urine by Test strip"
        },
        "valueQuantity": {
          "system": "http://unitsofmeasure.org",
          "value": 5.4,
          "unit": "pH",
          "code": "pH"
        },
        "referenceRange": [
          {
            "low": {
              "value": 4.5,
              "code": "pH",
              "system": "http://unitsofmeasure.org"
            }
          },
          {
            "high": {
              "value": 7.5,
              "code": "pH",
              "system": "http://unitsofmeasure.org"
            }
          }
        ],
        "text": {
          "status": "generated",
          "div": "<div xmlns=\"http://www.w3.org/1999/xhtml\"><table class=\"hl7__eu__lab__report\"><tr><th>Test</th><th>05-Jul-2018</th><th>Reference&#xA0;Range</th><th>Unit</th></tr><tr><td>pH of Urine by Test strip</td><td>5.4</td><td>4.5 - 7.5</td><td></td><td>pH</td></tr></table></div>"
        },
        "status": "final",
        "subject": {
          "reference": "urn:uuid:6e8480c9-e162-40de-aa91-ad3f7288b80d",
          "display": "Molly Jenkins"
        },
        "effectiveDateTime": "2018-07-05T14:42:11Z",
        "specimen": {
          "reference": "urn:uuid:e18742b1-b5e0-4f8b-a6d1-572519cdcc50"
        }
      }
    },
    {
      "fullUrl": "urn:uuid:4e18ff0b-b6b7-40dd-85c7-2b89e0beace0",
      "resource": {
        "resourceType": "Observation",
        "id": "4e18ff0b-b6b7-40dd-85c7-2b89e0beace0",
        "meta": {
          "profile": [
            "http://hl7.eu/fhir/laboratory/StructureDefinition/Observation-resultslab-eu-lab"
          ]
        },
        "performer": [
          {
            "display": "The Central European Lab"
          }
        ],
        "category": [
          {
            "coding": [
              {
                "system": "http://terminology.hl7.org/CodeSystem/observation-category",
                "code": "laboratory"
              }
            ]
          }
        ],
        "code": {
          "coding": [
            {
              "code": "5804-0",
              "system": "http://loinc.org",
              "display": "Protein [Mass/volume] in Urine by Test strip"
            }
          ],
          "text": "Protein [Mass/volume] in Urine by Test strip"
        },
        "valueQuantity": {
          "system": "http://unitsofmeasure.org",
          "value": 192.4,
          "unit": "mg/dL",
          "code": "mg/dL"
        },
        "referenceRange": [
          {
            "low": {
              "value": 0,
              "code": "mg/dL",
              "system": "http://unitsofmeasure.org"
            }
          },
          {
            "high": {
              "value": 15,
              "code": "mg/dL",
              "system": "http://unitsofmeasure.org"
            }
          }
        ],
        "interpretation": [
          {
            "coding": [
              {
                "code": "H",
                "system": "http://terminology.hl7.org/CodeSystem/v3-ObservationInterpretation",
                "display": "High"
              }
            ]
          }
        ],
        "text": {
          "status": "generated",
          "div": "<div xmlns=\"http://www.w3.org/1999/xhtml\"><table class=\"hl7__eu__lab__report\"><tr><th>Test</th><th>05-Jul-2018</th><th>Reference&#xA0;Range</th><th>Unit</th></tr><tr><td>Protein [Mass/volume] in Urine by Test strip</td><td>192.4</td><td>0 - 15</td><td>H</td><td>mg/dL</td></tr></table></div>"
        },
        "status": "final",
        "subject": {
          "reference": "urn:uuid:6e8480c9-e162-40de-aa91-ad3f7288b80d",
          "display": "Molly Jenkins"
        },
        "effectiveDateTime": "2018-07-05T14:42:11Z",
        "specimen": {
          "reference": "urn:uuid:e18742b1-b5e0-4f8b-a6d1-572519cdcc50"
        }
      }
    },
    {
      "fullUrl": "urn:uuid:314393eb-081f-470f-8f89-e699f077a581",
      "resource": {
        "resourceType": "Observation",
        "id": "314393eb-081f-470f-8f89-e699f077a581",
        "meta": {
          "profile": [
            "http://hl7.eu/fhir/laboratory/StructureDefinition/Observation-resultslab-eu-lab"
          ]
        },
        "performer": [
          {
            "display": "The Central European Lab"
          }
        ],
        "category": [
          {
            "coding": [
              {
                "system": "http://terminology.hl7.org/CodeSystem/observation-category",
                "code": "laboratory"
              }
            ]
          }
        ],
        "code": {
          "coding": [
            {
              "code": "20454-5",
              "system": "http://loinc.org",
              "display": "Protein [Presence] in Urine by Test strip"
            }
          ],
          "text": "Protein [Presence] in Urine by Test strip"
        },
        "text": {
          "status": "generated",
          "div": "<div xmlns=\"http://www.w3.org/1999/xhtml\"><table class=\"hl7__eu__lab__report\"><tr><th>Test</th><th>05-Jul-2018</th><th>Reference&#xA0;Range</th><th>Unit</th></tr><tr><td>Protein [Presence] in Urine by Test strip</td></tr></table></div>"
        },
        "status": "final",
        "subject": {
          "reference": "urn:uuid:6e8480c9-e162-40de-aa91-ad3f7288b80d",
          "display": "Molly Jenkins"
        },
        "effectiveDateTime": "2018-07-05T14:42:11Z",
        "specimen": {
          "reference": "urn:uuid:e18742b1-b5e0-4f8b-a6d1-572519cdcc50"
        }
      }
    },
    {
      "fullUrl": "urn:uuid:6e455db3-94ee-490f-aedc-f00b6f29ceb8",
      "resource": {
        "resourceType": "Observation",
        "id": "6e455db3-94ee-490f-aedc-f00b6f29ceb8",
        "meta": {
          "profile": [
            "http://hl7.eu/fhir/laboratory/StructureDefinition/Observation-resultslab-eu-lab"
          ]
        },
        "performer": [
          {
            "display": "The Central European Lab"
          }
        ],
        "category": [
          {
            "coding": [
              {
                "system": "http://terminology.hl7.org/CodeSystem/observation-category",
                "code": "laboratory"
              }
            ]
          }
        ],
        "code": {
          "coding": [
            {
              "code": "5802-4",
              "system": "http://loinc.org",
              "display": "Nitrite [Presence] in Urine by Test strip"
            }
          ],
          "text": "Nitrite [Presence] in Urine by Test strip"
        },
        "text": {
          "status": "generated",
          "div": "<div xmlns=\"http://www.w3.org/1999/xhtml\"><table class=\"hl7__eu__lab__report\"><tr><th>Test</th><th>05-Jul-2018</th><th>Reference&#xA0;Range</th><th>Unit</th></tr><tr><td>Nitrite [Presence] in Urine by Test strip</td></tr></table></div>"
        },
        "status": "final",
        "subject": {
          "reference": "urn:uuid:6e8480c9-e162-40de-aa91-ad3f7288b80d",
          "display": "Molly Jenkins"
        },
        "effectiveDateTime": "2018-07-05T14:42:11Z",
        "specimen": {
          "reference": "urn:uuid:e18742b1-b5e0-4f8b-a6d1-572519cdcc50"
        }
      }
    },
    {
      "fullUrl": "urn:uuid:1cc54d19-3fcd-4b95-aae2-6c0c43ddef80",
      "resource": {
        "resourceType": "Observation",
        "id": "1cc54d19-3fcd-4b95-aae2-6c0c43ddef80",
        "meta": {
          "profile": [
            "http://hl7.eu/fhir/laboratory/StructureDefinition/Observation-resultslab-eu-lab"
          ]
        },
        "performer": [
          {
            "display": "The Central European Lab"
          }
        ],
        "category": [
          {
            "coding": [
              {
                "system": "http://terminology.hl7.org/CodeSystem/observation-category",
                "code": "laboratory"
              }
            ]
          }
        ],
        "code": {
          "coding": [
            {
              "code": "5794-3",
              "system": "http://loinc.org",
              "display": "Hemoglobin [Presence] in Urine by Test strip"
            }
          ],
          "text": "Hemoglobin [Presence] in Urine by Test strip"
        },
        "text": {
          "status": "generated",
          "div": "<div xmlns=\"http://www.w3.org/1999/xhtml\"><table class=\"hl7__eu__lab__report\"><tr><th>Test</th><th>05-Jul-2018</th><th>Reference&#xA0;Range</th><th>Unit</th></tr><tr><td>Hemoglobin [Presence] in Urine by Test strip</td></tr></table></div>"
        },
        "status": "final",
        "subject": {
          "reference": "urn:uuid:6e8480c9-e162-40de-aa91-ad3f7288b80d",
          "display": "Molly Jenkins"
        },
        "effectiveDateTime": "2018-07-05T14:42:11Z",
        "specimen": {
          "reference": "urn:uuid:e18742b1-b5e0-4f8b-a6d1-572519cdcc50"
        }
      }
    },
    {
      "fullUrl": "urn:uuid:97ccbc0b-346a-411f-a88a-c796af563bad",
      "resource": {
        "resourceType": "Observation",
        "id": "97ccbc0b-346a-411f-a88a-c796af563bad",
        "meta": {
          "profile": [
            "http://hl7.eu/fhir/laboratory/StructureDefinition/Observation-resultslab-eu-lab"
          ]
        },
        "performer": [
          {
            "display": "The Central European Lab"
          }
        ],
        "category": [
          {
            "coding": [
              {
                "system": "http://terminology.hl7.org/CodeSystem/observation-category",
                "code": "laboratory"
              }
            ]
          }
        ],
        "code": {
          "coding": [
            {
              "code": "5799-2",
              "system": "http://loinc.org",
              "display": "Leukocyte esterase [Presence] in Urine by Test strip"
            }
          ],
          "text": "Leukocyte esterase [Presence] in Urine by Test strip"
        },
        "text": {
          "status": "generated",
          "div": "<div xmlns=\"http://www.w3.org/1999/xhtml\"><table class=\"hl7__eu__lab__report\"><tr><th>Test</th><th>05-Jul-2018</th><th>Reference&#xA0;Range</th><th>Unit</th></tr><tr><td>Leukocyte esterase [Presence] in Urine by Test strip</td></tr></table></div>"
        },
        "status": "final",
        "subject": {
          "reference": "urn:uuid:6e8480c9-e162-40de-aa91-ad3f7288b80d",
          "display": "Molly Jenkins"
        },
        "effectiveDateTime": "2018-07-05T14:42:11Z",
        "specimen": {
          "reference": "urn:uuid:e18742b1-b5e0-4f8b-a6d1-572519cdcc50"
        }
      }
    },
    {
      "fullUrl": "urn:uuid:a2028ef9-0c72-4794-b9e6-071b4de237c6",
      "resource": {
        "resourceType": "Observation",
        "id": "a2028ef9-0c72-4794-b9e6-071b4de237c6",
        "meta": {
          "profile": [
            "http://hl7.eu/fhir/laboratory/StructureDefinition/Observation-resultslab-eu-lab"
          ]
        },
        "performer": [
          {
            "display": "The Central European Lab"
          }
        ],
        "category": [
          {
            "coding": [
              {
                "system": "http://terminology.hl7.org/CodeSystem/observation-category",
                "code": "laboratory"
              }
            ]
          }
        ],
        "code": {
          "coding": [
            {
              "code": "4548-4",
              "system": "http://loinc.org",
              "display": "Hemoglobin A1c/Hemoglobin.total in Blood"
            }
          ],
          "text": "Hemoglobin A1c/Hemoglobin.total in Blood"
        },
        "valueQuantity": {
          "system": "http://unitsofmeasure.org",
          "value": 3.1,
          "unit": "%",
          "code": "%"
        },
        "referenceRange": [
          {
            "low": {
              "value": 4,
              "code": "%",
              "system": "http://unitsofmeasure.org"
            }
          },
          {
            "high": {
              "value": 6,
              "code": "%",
              "system": "http://unitsofmeasure.org"
            }
          }
        ],
        "interpretation": [
          {
            "coding": [
              {
                "code": "L",
                "system": "http://terminology.hl7.org/CodeSystem/v3-ObservationInterpretation",
                "display": "Low"
              }
            ]
          }
        ],
        "text": {
          "status": "generated",
          "div": "<div xmlns=\"http://www.w3.org/1999/xhtml\"><table class=\"hl7__eu__lab__report\"><tr><th>Test</th><th>05-Jul-2018</th><th>Reference&#xA0;Range</th><th>Unit</th></tr><tr><td>Hemoglobin A1c/Hemoglobin.total in Blood</td><td>3.1</td><td>4 - 6</td><td>L</td><td>%</td></tr></table></div>"
        },
        "status": "final",
        "subject": {
          "reference": "urn:uuid:6e8480c9-e162-40de-aa91-ad3f7288b80d",
          "display": "Molly Jenkins"
        },
        "effectiveDateTime": "2018-07-05T14:42:11Z",
        "specimen": {
          "reference": "urn:uuid:b3c7a222-363f-4b5c-b08d-656f462f86b3"
        }
      }
    },
    {
      "fullUrl": "urn:uuid:b7c07e67-0088-4595-9228-5fba3ce4651a",
      "resource": {
        "resourceType": "Observation",
        "id": "b7c07e67-0088-4595-9228-5fba3ce4651a",
        "meta": {
          "profile": [
            "http://hl7.eu/fhir/laboratory/StructureDefinition/Observation-resultslab-eu-lab"
          ]
        },
        "performer": [
          {
            "display": "The Central European Lab"
          }
        ],
        "category": [
          {
            "coding": [
              {
                "system": "http://terminology.hl7.org/CodeSystem/observation-category",
                "code": "laboratory"
              }
            ]
          }
        ],
        "code": {
          "coding": [
            {
              "code": "2339-0",
              "system": "http://loinc.org",
              "display": "Glucose [Mass/volume] in Blood"
            }
          ],
          "text": "Glucose [Mass/volume] in Blood"
        },
        "valueQuantity": {
          "system": "http://unitsofmeasure.org",
          "value": 66.3,
          "unit": "mg/dL",
          "code": "mg/dL"
        },
        "referenceRange": [
          {
            "low": {
              "value": 70,
              "code": "mg/dL",
              "system": "http://unitsofmeasure.org"
            }
          },
          {
            "high": {
              "value": 100,
              "code": "mg/dL",
              "system": "http://unitsofmeasure.org"
            }
          }
        ],
        "interpretation": [
          {
            "coding": [
              {
                "code": "L",
                "system": "http://terminology.hl7.org/CodeSystem/v3-ObservationInterpretation",
                "display": "Low"
              }
            ]
          }
        ],
        "text": {
          "status": "generated",
          "div": "<div xmlns=\"http://www.w3.org/1999/xhtml\"><table class=\"hl7__eu__lab__report\"><tr><th>Test</th><th>05-Jul-2018</th><th>Reference&#xA0;Range</th><th>Unit</th></tr><tr><td>Glucose [Mass/volume] in Blood</td><td>66.3</td><td>70 - 100</td><td>L</td><td>mg/dL</td></tr></table></div>"
        },
        "status": "final",
        "subject": {
          "reference": "urn:uuid:6e8480c9-e162-40de-aa91-ad3f7288b80d",
          "display": "Molly Jenkins"
        },
        "effectiveDateTime": "2018-07-05T14:42:11Z",
        "specimen": {
          "reference": "urn:uuid:b3c7a222-363f-4b5c-b08d-656f462f86b3"
        }
      }
    },
    {
      "fullUrl": "urn:uuid:0e1df258-b902-4f48-ba13-ccde563e9c26",
      "resource": {
        "resourceType": "Observation",
        "id": "0e1df258-b902-4f48-ba13-ccde563e9c26",
        "meta": {
          "profile": [
            "http://hl7.eu/fhir/laboratory/StructureDefinition/Observation-resultslab-eu-lab"
          ]
        },
        "performer": [
          {
            "display": "The Central European Lab"
          }
        ],
        "category": [
          {
            "coding": [
              {
                "system": "http://terminology.hl7.org/CodeSystem/observation-category",
                "code": "laboratory"
              }
            ]
          }
        ],
        "code": {
          "coding": [
            {
              "code": "6299-2",
              "system": "http://loinc.org",
              "display": "Urea nitrogen [Mass/volume] in Blood"
            }
          ],
          "text": "Urea nitrogen [Mass/volume] in Blood"
        },
        "valueQuantity": {
          "system": "http://unitsofmeasure.org",
          "value": 16.9,
          "unit": "mg/dL",
          "code": "mg/dL"
        },
        "referenceRange": [
          {
            "low": {
              "value": 7,
              "code": "mg/dL",
              "system": "http://unitsofmeasure.org"
            }
          },
          {
            "high": {
              "value": 20,
              "code": "mg/dL",
              "system": "http://unitsofmeasure.org"
            }
          }
        ],
        "text": {
          "status": "generated",
          "div": "<div xmlns=\"http://www.w3.org/1999/xhtml\"><table class=\"hl7__eu__lab__report\"><tr><th>Test</th><th>05-Jul-2018</th><th>Reference&#xA0;Range</th><th>Unit</th></tr><tr><td>Urea nitrogen [Mass/volume] in Blood</td><td>16.9</td><td>7 - 20</td><td></td><td>mg/dL</td></tr></table></div>"
        },
        "status": "final",
        "subject": {
          "reference": "urn:uuid:6e8480c9-e162-40de-aa91-ad3f7288b80d",
          "display": "Molly Jenkins"
        },
        "effectiveDateTime": "2018-07-05T14:42:11Z",
        "specimen": {
          "reference": "urn:uuid:b3c7a222-363f-4b5c-b08d-656f462f86b3"
        }
      }
    },
    {
      "fullUrl": "urn:uuid:7814aaee-8b59-419d-bd9d-3a5a346e7f44",
      "resource": {
        "resourceType": "Observation",
        "id": "7814aaee-8b59-419d-bd9d-3a5a346e7f44",
        "meta": {
          "profile": [
            "http://hl7.eu/fhir/laboratory/StructureDefinition/Observation-resultslab-eu-lab"
          ]
        },
        "performer": [
          {
            "display": "The Central European Lab"
          }
        ],
        "category": [
          {
            "coding": [
              {
                "system": "http://terminology.hl7.org/CodeSystem/observation-category",
                "code": "laboratory"
              }
            ]
          }
        ],
        "code": {
          "coding": [
            {
              "code": "38483-4",
              "system": "http://loinc.org",
              "display": "Creatinine [Mass/volume] in Blood"
            }
          ],
          "text": "Creatinine [Mass/volume] in Blood"
        },
        "valueQuantity": {
          "system": "http://unitsofmeasure.org",
          "value": 1.3,
          "unit": "mg/dL",
          "code": "mg/dL"
        },
        "referenceRange": [
          {
            "low": {
              "value": 0.6,
              "code": "mg/dL",
              "system": "http://unitsofmeasure.org"
            }
          },
          {
            "high": {
              "value": 1.3,
              "code": "mg/dL",
              "system": "http://unitsofmeasure.org"
            }
          }
        ],
        "text": {
          "status": "generated",
          "div": "<div xmlns=\"http://www.w3.org/1999/xhtml\"><table class=\"hl7__eu__lab__report\"><tr><th>Test</th><th>05-Jul-2018</th><th>Reference&#xA0;Range</th><th>Unit</th></tr><tr><td>Creatinine [Mass/volume] in Blood</td><td>1.3</td><td>0.6 - 1.3</td><td></td><td>mg/dL</td></tr></table></div>"
        },
        "status": "final",
        "subject": {
          "reference": "urn:uuid:6e8480c9-e162-40de-aa91-ad3f7288b80d",
          "display": "Molly Jenkins"
        },
        "effectiveDateTime": "2018-07-05T14:42:11Z",
        "specimen": {
          "reference": "urn:uuid:b3c7a222-363f-4b5c-b08d-656f462f86b3"
        }
      }
    },
    {
      "fullUrl": "urn:uuid:6a4be0c8-9283-4f03-bdc6-4d06e5065274",
      "resource": {
        "resourceType": "Observation",
        "id": "6a4be0c8-9283-4f03-bdc6-4d06e5065274",
        "meta": {
          "profile": [
            "http://hl7.eu/fhir/laboratory/StructureDefinition/Observation-resultslab-eu-lab"
          ]
        },
        "performer": [
          {
            "display": "The Central European Lab"
          }
        ],
        "category": [
          {
            "coding": [
              {
                "system": "http://terminology.hl7.org/CodeSystem/observation-category",
                "code": "laboratory"
              }
            ]
          }
        ],
        "code": {
          "coding": [
            {
              "code": "49765-1",
              "system": "http://loinc.org",
              "display": "Calcium [Mass/volume] in Blood"
            }
          ],
          "text": "Calcium [Mass/volume] in Blood"
        },
        "valueQuantity": {
          "system": "http://unitsofmeasure.org",
          "value": 9.4,
          "unit": "mg/dL",
          "code": "mg/dL"
        },
        "referenceRange": [
          {
            "low": {
              "value": 8.6,
              "code": "mg/dL",
              "system": "http://unitsofmeasure.org"
            }
          },
          {
            "high": {
              "value": 10.4,
              "code": "mg/dL",
              "system": "http://unitsofmeasure.org"
            }
          }
        ],
        "text": {
          "status": "generated",
          "div": "<div xmlns=\"http://www.w3.org/1999/xhtml\"><table class=\"hl7__eu__lab__report\"><tr><th>Test</th><th>05-Jul-2018</th><th>Reference&#xA0;Range</th><th>Unit</th></tr><tr><td>Calcium [Mass/volume] in Blood</td><td>9.4</td><td>8.6 - 10.4</td><td></td><td>mg/dL</td></tr></table></div>"
        },
        "status": "final",
        "subject": {
          "reference": "urn:uuid:6e8480c9-e162-40de-aa91-ad3f7288b80d",
          "display": "Molly Jenkins"
        },
        "effectiveDateTime": "2018-07-05T14:42:11Z",
        "specimen": {
          "reference": "urn:uuid:b3c7a222-363f-4b5c-b08d-656f462f86b3"
        }
      }
    },
    {
      "fullUrl": "urn:uuid:e13d5af4-da85-4c0d-8394-5ef64cd8b9ba",
      "resource": {
        "resourceType": "Observation",
        "id": "e13d5af4-da85-4c0d-8394-5ef64cd8b9ba",
        "meta": {
          "profile": [
            "http://hl7.eu/fhir/laboratory/StructureDefinition/Observation-resultslab-eu-lab"
          ]
        },
        "performer": [
          {
            "display": "The Central European Lab"
          }
        ],
        "category": [
          {
            "coding": [
              {
                "system": "http://terminology.hl7.org/CodeSystem/observation-category",
                "code": "laboratory"
              }
            ]
          }
        ],
        "code": {
          "coding": [
            {
              "code": "2947-0",
              "system": "http://loinc.org",
              "display": "Sodium [Moles/volume] in Blood"
            }
          ],
          "text": "Sodium [Moles/volume] in Blood"
        },
        "valueQuantity": {
          "system": "http://unitsofmeasure.org",
          "value": 137.2,
          "unit": "mmol/L",
          "code": "mmol/L"
        },
        "referenceRange": [
          {
            "low": {
              "value": 135,
              "code": "mmol/L",
              "system": "http://unitsofmeasure.org"
            }
          },
          {
            "high": {
              "value": 145,
              "code": "mmol/L",
              "system": "http://unitsofmeasure.org"
            }
          }
        ],
        "text": {
          "status": "generated",
          "div": "<div xmlns=\"http://www.w3.org/1999/xhtml\"><table class=\"hl7__eu__lab__report\"><tr><th>Test</th><th>05-Jul-2018</th><th>Reference&#xA0;Range</th><th>Unit</th></tr><tr><td>Sodium [Moles/volume] in Blood</td><td>137.2</td><td>135 - 145</td><td></td><td>mmol/L</td></tr></table></div>"
        },
        "status": "final",
        "subject": {
          "reference": "urn:uuid:6e8480c9-e162-40de-aa91-ad3f7288b80d",
          "display": "Molly Jenkins"
        },
        "effectiveDateTime": "2018-07-05T14:42:11Z",
        "specimen": {
          "reference": "urn:uuid:b3c7a222-363f-4b5c-b08d-656f462f86b3"
        }
      }
    },
    {
      "fullUrl": "urn:uuid:742e94b7-35d2-4eab-93fe-21d23604c490",
      "resource": {
        "resourceType": "Observation",
        "id": "742e94b7-35d2-4eab-93fe-21d23604c490",
        "meta": {
          "profile": [
            "http://hl7.eu/fhir/laboratory/StructureDefinition/Observation-resultslab-eu-lab"
          ]
        },
        "performer": [
          {
            "display": "The Central European Lab"
          }
        ],
        "category": [
          {
            "coding": [
              {
                "system": "http://terminology.hl7.org/CodeSystem/observation-category",
                "code": "laboratory"
              }
            ]
          }
        ],
        "code": {
          "coding": [
            {
              "code": "6298-4",
              "system": "http://loinc.org",
              "display": "Potassium [Moles/volume] in Blood"
            }
          ],
          "text": "Potassium [Moles/volume] in Blood"
        },
        "valueQuantity": {
          "system": "http://unitsofmeasure.org",
          "value": 5.1,
          "unit": "mmol/L",
          "code": "mmol/L"
        },
        "referenceRange": [
          {
            "low": {
              "value": 3.5,
              "code": "mmol/L",
              "system": "http://unitsofmeasure.org"
            }
          },
          {
            "high": {
              "value": 5.1,
              "code": "mmol/L",
              "system": "http://unitsofmeasure.org"
            }
          }
        ],
        "text": {
          "status": "generated",
          "div": "<div xmlns=\"http://www.w3.org/1999/xhtml\"><table class=\"hl7__eu__lab__report\"><tr><th>Test</th><th>05-Jul-2018</th><th>Reference&#xA0;Range</th><th>Unit</th></tr><tr><td>Potassium [Moles/volume] in Blood</td><td>5.1</td><td>3.5 - 5.1</td><td></td><td>mmol/L</td></tr></table></div>"
        },
        "status": "final",
        "subject": {
          "reference": "urn:uuid:6e8480c9-e162-40de-aa91-ad3f7288b80d",
          "display": "Molly Jenkins"
        },
        "effectiveDateTime": "2018-07-05T14:42:11Z",
        "specimen": {
          "reference": "urn:uuid:b3c7a222-363f-4b5c-b08d-656f462f86b3"
        }
      }
    },
    {
      "fullUrl": "urn:uuid:761081f1-6072-4d75-826d-b853c3b306ab",
      "resource": {
        "resourceType": "Observation",
        "id": "761081f1-6072-4d75-826d-b853c3b306ab",
        "meta": {
          "profile": [
            "http://hl7.eu/fhir/laboratory/StructureDefinition/Observation-resultslab-eu-lab"
          ]
        },
        "performer": [
          {
            "display": "The Central European Lab"
          }
        ],
        "category": [
          {
            "coding": [
              {
                "system": "http://terminology.hl7.org/CodeSystem/observation-category",
                "code": "laboratory"
              }
            ]
          }
        ],
        "code": {
          "coding": [
            {
              "code": "2069-3",
              "system": "http://loinc.org",
              "display": "Chloride [Moles/volume] in Blood"
            }
          ],
          "text": "Chloride [Moles/volume] in Blood"
        },
        "valueQuantity": {
          "system": "http://unitsofmeasure.org",
          "value": 110.1,
          "unit": "mmol/L",
          "code": "mmol/L"
        },
        "referenceRange": [
          {
            "low": {
              "value": 98,
              "code": "mmol/L",
              "system": "http://unitsofmeasure.org"
            }
          },
          {
            "high": {
              "value": 110,
              "code": "mmol/L",
              "system": "http://unitsofmeasure.org"
            }
          }
        ],
        "interpretation": [
          {
            "coding": [
              {
                "code": "H",
                "system": "http://terminology.hl7.org/CodeSystem/v3-ObservationInterpretation",
                "display": "High"
              }
            ]
          }
        ],
        "text": {
          "status": "generated",
          "div": "<div xmlns=\"http://www.w3.org/1999/xhtml\"><table class=\"hl7__eu__lab__report\"><tr><th>Test</th><th>05-Jul-2018</th><th>Reference&#xA0;Range</th><th>Unit</th></tr><tr><td>Chloride [Moles/volume] in Blood</td><td>110.1</td><td>98 - 110</td><td>H</td><td>mmol/L</td></tr></table></div>"
        },
        "status": "final",
        "subject": {
          "reference": "urn:uuid:6e8480c9-e162-40de-aa91-ad3f7288b80d",
          "display": "Molly Jenkins"
        },
        "effectiveDateTime": "2018-07-05T14:42:11Z",
        "specimen": {
          "reference": "urn:uuid:b3c7a222-363f-4b5c-b08d-656f462f86b3"
        }
      }
    },
    {
      "fullUrl": "urn:uuid:2801667c-b637-4160-a7a6-f9e95b604a08",
      "resource": {
        "resourceType": "Observation",
        "id": "2801667c-b637-4160-a7a6-f9e95b604a08",
        "meta": {
          "profile": [
            "http://hl7.eu/fhir/laboratory/StructureDefinition/Observation-resultslab-eu-lab"
          ]
        },
        "performer": [
          {
            "display": "The Central European Lab"
          }
        ],
        "category": [
          {
            "coding": [
              {
                "system": "http://terminology.hl7.org/CodeSystem/observation-category",
                "code": "laboratory"
              }
            ]
          }
        ],
        "code": {
          "coding": [
            {
              "code": "20565-8",
              "system": "http://loinc.org",
              "display": "Carbon dioxide, total [Moles/volume] in Blood"
            }
          ],
          "text": "Carbon dioxide, total [Moles/volume] in Blood"
        },
        "valueQuantity": {
          "system": "http://unitsofmeasure.org",
          "value": 22.5,
          "unit": "mmol/L",
          "code": "mmol/L"
        },
        "referenceRange": [
          {
            "low": {
              "value": 22,
              "code": "mmol/L",
              "system": "http://unitsofmeasure.org"
            }
          },
          {
            "high": {
              "value": 29,
              "code": "mmol/L",
              "system": "http://unitsofmeasure.org"
            }
          }
        ],
        "text": {
          "status": "generated",
          "div": "<div xmlns=\"http://www.w3.org/1999/xhtml\"><table class=\"hl7__eu__lab__report\"><tr><th>Test</th><th>05-Jul-2018</th><th>Reference&#xA0;Range</th><th>Unit</th></tr><tr><td>Carbon dioxide, total [Moles/volume] in Blood</td><td>22.5</td><td>22 - 29</td><td></td><td>mmol/L</td></tr></table></div>"
        },
        "status": "final",
        "subject": {
          "reference": "urn:uuid:6e8480c9-e162-40de-aa91-ad3f7288b80d",
          "display": "Molly Jenkins"
        },
        "effectiveDateTime": "2018-07-05T14:42:11Z",
        "specimen": {
          "reference": "urn:uuid:b3c7a222-363f-4b5c-b08d-656f462f86b3"
        }
      }
    },
    {
      "fullUrl": "urn:uuid:2f783bb0-c92d-4f28-bf65-4bd859e9ea2f",
      "resource": {
        "resourceType": "Observation",
        "id": "2f783bb0-c92d-4f28-bf65-4bd859e9ea2f",
        "meta": {
          "profile": [
            "http://hl7.eu/fhir/laboratory/StructureDefinition/Observation-resultslab-eu-lab"
          ]
        },
        "performer": [
          {
            "display": "The Central European Lab"
          }
        ],
        "category": [
          {
            "coding": [
              {
                "system": "http://terminology.hl7.org/CodeSystem/observation-category",
                "code": "laboratory"
              }
            ]
          }
        ],
        "code": {
          "coding": [
            {
              "code": "2093-3",
              "system": "http://loinc.org",
              "display": "Cholesterol [Mass/volume] in Serum or Plasma"
            }
          ],
          "text": "Cholesterol [Mass/volume] in Serum or Plasma"
        },
        "valueQuantity": {
          "system": "http://unitsofmeasure.org",
          "value": 178.5,
          "unit": "mg/dL",
          "code": "mg/dL"
        },
        "referenceRange": [
          {
            "low": {
              "value": 125,
              "code": "mg/dL",
              "system": "http://unitsofmeasure.org"
            }
          },
          {
            "high": {
              "value": 200,
              "code": "mg/dL",
              "system": "http://unitsofmeasure.org"
            }
          }
        ],
        "text": {
          "status": "generated",
          "div": "<div xmlns=\"http://www.w3.org/1999/xhtml\"><table class=\"hl7__eu__lab__report\"><tr><th>Test</th><th>05-Jul-2018</th><th>Reference&#xA0;Range</th><th>Unit</th></tr><tr><td>Cholesterol [Mass/volume] in Serum or Plasma</td><td>178.5</td><td>125 - 200</td><td></td><td>mg/dL</td></tr></table></div>"
        },
        "status": "final",
        "subject": {
          "reference": "urn:uuid:6e8480c9-e162-40de-aa91-ad3f7288b80d",
          "display": "Molly Jenkins"
        },
        "effectiveDateTime": "2018-07-05T14:42:11Z",
        "specimen": {
          "reference": "urn:uuid:0e23c6f1-eafc-481f-916d-32e2daf2075c"
        }
      }
    },
    {
      "fullUrl": "urn:uuid:9b2c3b9e-6266-4c9a-a283-d80eb2f277f4",
      "resource": {
        "resourceType": "Observation",
        "id": "9b2c3b9e-6266-4c9a-a283-d80eb2f277f4",
        "meta": {
          "profile": [
            "http://hl7.eu/fhir/laboratory/StructureDefinition/Observation-resultslab-eu-lab"
          ]
        },
        "performer": [
          {
            "display": "The Central European Lab"
          }
        ],
        "category": [
          {
            "coding": [
              {
                "system": "http://terminology.hl7.org/CodeSystem/observation-category",
                "code": "laboratory"
              }
            ]
          }
        ],
        "code": {
          "coding": [
            {
              "code": "2571-8",
              "system": "http://loinc.org",
              "display": "Triglyceride [Mass/volume] in Serum or Plasma"
            }
          ],
          "text": "Triglyceride [Mass/volume] in Serum or Plasma"
        },
        "valueQuantity": {
          "system": "http://unitsofmeasure.org",
          "value": 101.7,
          "unit": "mg/dL",
          "code": "mg/dL"
        },
        "referenceRange": [
          {
            "low": {
              "value": 35,
              "code": "mg/dL",
              "system": "http://unitsofmeasure.org"
            }
          },
          {
            "high": {
              "value": 150,
              "code": "mg/dL",
              "system": "http://unitsofmeasure.org"
            }
          }
        ],
        "text": {
          "status": "generated",
          "div": "<div xmlns=\"http://www.w3.org/1999/xhtml\"><table class=\"hl7__eu__lab__report\"><tr><th>Test</th><th>05-Jul-2018</th><th>Reference&#xA0;Range</th><th>Unit</th></tr><tr><td>Triglyceride [Mass/volume] in Serum or Plasma</td><td>101.7</td><td>35 - 150</td><td></td><td>mg/dL</td></tr></table></div>"
        },
        "status": "final",
        "subject": {
          "reference": "urn:uuid:6e8480c9-e162-40de-aa91-ad3f7288b80d",
          "display": "Molly Jenkins"
        },
        "effectiveDateTime": "2018-07-05T14:42:11Z",
        "specimen": {
          "reference": "urn:uuid:0e23c6f1-eafc-481f-916d-32e2daf2075c"
        }
      }
    },
    {
      "fullUrl": "urn:uuid:cc6834e4-53e8-45df-abca-a427d1036605",
      "resource": {
        "resourceType": "Observation",
        "id": "cc6834e4-53e8-45df-abca-a427d1036605",
        "meta": {
          "profile": [
            "http://hl7.eu/fhir/laboratory/StructureDefinition/Observation-resultslab-eu-lab"
          ]
        },
        "performer": [
          {
            "display": "The Central European Lab"
          }
        ],
        "category": [
          {
            "coding": [
              {
                "system": "http://terminology.hl7.org/CodeSystem/observation-category",
                "code": "laboratory"
              }
            ]
          }
        ],
        "code": {
          "coding": [
            {
              "code": "18262-6",
              "system": "http://loinc.org",
              "display": "Cholesterol in LDL [Mass/volume] in Serum or Plasma by Direct assay"
            }
          ],
          "text": "Cholesterol in LDL [Mass/volume] in Serum or Plasma by Direct assay"
        },
        "valueQuantity": {
          "system": "http://unitsofmeasure.org",
          "value": 100.3,
          "unit": "mg/dL",
          "code": "mg/dL"
        },
        "referenceRange": [
          {
            "low": {
              "value": 0,
              "code": "mg/dL",
              "system": "http://unitsofmeasure.org"
            }
          },
          {
            "high": {
              "value": 130,
              "code": "mg/dL",
              "system": "http://unitsofmeasure.org"
            }
          }
        ],
        "text": {
          "status": "generated",
          "div": "<div xmlns=\"http://www.w3.org/1999/xhtml\"><table class=\"hl7__eu__lab__report\"><tr><th>Test</th><th>05-Jul-2018</th><th>Reference&#xA0;Range</th><th>Unit</th></tr><tr><td>Cholesterol in LDL [Mass/volume] in Serum or Plasma by Direct assay</td><td>100.3</td><td>0 - 130</td><td></td><td>mg/dL</td></tr></table></div>"
        },
        "status": "final",
        "subject": {
          "reference": "urn:uuid:6e8480c9-e162-40de-aa91-ad3f7288b80d",
          "display": "Molly Jenkins"
        },
        "effectiveDateTime": "2018-07-05T14:42:11Z",
        "specimen": {
          "reference": "urn:uuid:0e23c6f1-eafc-481f-916d-32e2daf2075c"
        }
      }
    },
    {
      "fullUrl": "urn:uuid:1436f14f-2938-4b28-a84a-d3a7bbfca083",
      "resource": {
        "resourceType": "Observation",
        "id": "1436f14f-2938-4b28-a84a-d3a7bbfca083",
        "meta": {
          "profile": [
            "http://hl7.eu/fhir/laboratory/StructureDefinition/Observation-resultslab-eu-lab"
          ]
        },
        "performer": [
          {
            "display": "The Central European Lab"
          }
        ],
        "category": [
          {
            "coding": [
              {
                "system": "http://terminology.hl7.org/CodeSystem/observation-category",
                "code": "laboratory"
              }
            ]
          }
        ],
        "code": {
          "coding": [
            {
              "code": "2085-9",
              "system": "http://loinc.org",
              "display": "Cholesterol in HDL [Mass/volume] in Serum or Plasma"
            }
          ],
          "text": "Cholesterol in HDL [Mass/volume] in Serum or Plasma"
        },
        "valueQuantity": {
          "system": "http://unitsofmeasure.org",
          "value": 57.9,
          "unit": "mg/dL",
          "code": "mg/dL"
        },
        "referenceRange": [
          {
            "low": {
              "value": 46,
              "code": "mg/dL",
              "system": "http://unitsofmeasure.org"
            }
          },
          {
            "high": {
              "value": 82,
              "code": "mg/dL",
              "system": "http://unitsofmeasure.org"
            }
          }
        ],
        "text": {
          "status": "generated",
          "div": "<div xmlns=\"http://www.w3.org/1999/xhtml\"><table class=\"hl7__eu__lab__report\"><tr><th>Test</th><th>05-Jul-2018</th><th>Reference&#xA0;Range</th><th>Unit</th></tr><tr><td>Cholesterol in HDL [Mass/volume] in Serum or Plasma</td><td>57.9</td><td>46 - 82</td><td></td><td>mg/dL</td></tr></table></div>"
        },
        "status": "final",
        "subject": {
          "reference": "urn:uuid:6e8480c9-e162-40de-aa91-ad3f7288b80d",
          "display": "Molly Jenkins"
        },
        "effectiveDateTime": "2018-07-05T14:42:11Z",
        "specimen": {
          "reference": "urn:uuid:0e23c6f1-eafc-481f-916d-32e2daf2075c"
        }
      }
    },
    {
      "fullUrl": "urn:uuid:e0052133-9c85-475c-9829-81289ce55513",
      "resource": {
        "resourceType": "Device",
        "id": "e0052133-9c85-475c-9829-81289ce55513",
        "deviceName": [
          {
            "name": "SYNDERAI Synthetic Generator",
            "type": "manufacturer-name"
          }
        ],
        "version": [
          {
            "value": "5.0"
          }
        ],
        "text": {
          "status": "generated",
          "div": "<div xmlns=\"http://www.w3.org/1999/xhtml\">SYNDERAI Synthetic Generator v5.0</div>"
        },
        "status": "active\"",
        "distinctIdentifier": "synderai-generator-50",
        "manufacturer": "SYNDERAI Project"
      }
    },
    {
      "fullUrl": "urn:uuid:bd9ef2f2-ce7c-494c-959a-63facb1b63e3",
      "resource": {
        "resourceType": "Provenance",
        "id": "bd9ef2f2-ce7c-494c-959a-63facb1b63e3",
        "target": [
          {
            "reference": "Patient/6e8480c9-e162-40de-aa91-ad3f7288b80d"
          },
          {
            "reference": "Bundle/bdde258d-bd90-445a-ac15-8e2319f24de6"
          },
          {
            "reference": "Composition/0431de2c-bc6b-4a34-9de4-b2671904e295"
          },
          {
            "reference": "PractitionerRole/e9af27eb-ba00-49e1-bf3b-ad993a04bd06"
          },
          {
            "reference": "Practitioner/247153de-bdb8-4a43-9ebb-8ef7933fa8e6"
          },
          {
            "reference": "PractitionerRole/1c403c40-abac-4499-aa25-36024fdf1d36"
          },
          {
            "reference": "Organization/bf757de5-0280-4fa1-b699-385466586f30"
          }
        ],
        "activity": {
          "text": "Synthetic Example Data Generation"
        },
        "policy": [
          "https://synderai.net/synderai-synthetic-data-policy"
        ],
        "agent": [
          {
            "type": {
              "text": "author"
            },
            "who": {
              "reference": "Device/e0052133-9c85-475c-9829-81289ce55513"
            }
          }
        ],
        "reason": [
          {
            "text": "Interoperability Testing and Training (non-clinical use)"
          }
        ],
        "text": {
          "status": "generated",
          "div": "<div xmlns=\"http://www.w3.org/1999/xhtml\">Provenance for SYNDERAI Synthetic Example Data Resource</div>"
        },
        "recorded": "2018-07-05T16:42:11Z"
      }
    },
    {
      "fullUrl": "urn:uuid:e9af27eb-ba00-49e1-bf3b-ad993a04bd06",
      "resource": {
        "resourceType": "PractitionerRole",
        "id": "e9af27eb-ba00-49e1-bf3b-ad993a04bd06",
        "meta": {
          "profile": [
            "http://hl7.eu/fhir/base/StructureDefinition/practitionerRole-eu"
          ]
        },
        "text": {
          "status": "generated",
          "div": "<div xmlns=\"http://www.w3.org/1999/xhtml\">Laboratory Role Id: e9af27eb-ba00-49e1-bf3b-ad993a04bd06</div>"
        },
        "practitioner": {
          "reference": "urn:uuid:247153de-bdb8-4a43-9ebb-8ef7933fa8e6"
        }
      }
    },
    {
      "fullUrl": "urn:uuid:247153de-bdb8-4a43-9ebb-8ef7933fa8e6",
      "resource": {
        "resourceType": "Practitioner",
        "id": "247153de-bdb8-4a43-9ebb-8ef7933fa8e6",
        "meta": {
          "profile": [
            "http://hl7.eu/fhir/base/StructureDefinition/practitioner-eu"
          ]
        },
        "identifier": [
          {
            "assigner": {
              "display": "HL7 Europe"
            },
            "system": "urn:oid:2.16.840.1.113883.2.51.999",
            "value": "2ce3a90a-7025-448a-9eed-446000d50c17"
          }
        ],
        "name": [
          {
            "prefix": [
              "dr"
            ],
            "given": [
              "Ex"
            ],
            "family": "Ample"
          }
        ],
        "address": [
          {
            "line": [
              "Laboratoire Central Europenne",
              "Boulevard du Jardin Botanique 32"
            ],
            "postalCode": "1000",
            "city": "Brussels",
            "country": "Belgium"
          }
        ],
        "text": {
          "status": "generated",
          "div": "<div xmlns=\"http://www.w3.org/1999/xhtml\">Laboratory: Laboratoire Central Europenne, 1000 Brussels, Belgium</div>"
        }
      }
    }
  ],
  "type": "document",
  "timestamp": "2018-07-05T16:42:11Z"
}
