{
  "resourceType": "Bundle",
  "id": "40120a11-f34f-400b-82e2-66203389178a",
  "meta": {
    "profile": [
      "http://hl7.eu/fhir/laboratory/StructureDefinition/Bundle-eu-lab"
    ]
  },
  "identifier": {
    "assigner": {
      "display": "HL7 Europe"
    },
    "system": "urn:oid:2.16.840.1.113883.2.51.999",
    "value": "7285616b-e177-4320-82f3-fe3fbfbc951b"
  },
  "entry": [
    {
      "fullUrl": "urn:uuid:bb118bf4-2f6c-4409-bd87-e9d8c1057f6a",
      "resource": {
        "resourceType": "Composition",
        "id": "bb118bf4-2f6c-4409-bd87-e9d8c1057f6a",
        "meta": {
          "profile": [
            "http://hl7.eu/fhir/laboratory/StructureDefinition/Composition-eu-lab"
          ]
        },
        "identifier": {
          "assigner": {
            "display": "HL7 Europe"
          },
          "system": "urn:oid:2.16.840.1.113883.2.51.999",
          "value": "b927e757-abc5-4f02-86d1-1371a0a9237b"
        },
        "author": [
          {
            "reference": "urn:uuid:a01c284a-9d26-47da-a7af-c9f88a6e16a2"
          }
        ],
        "category": [
          {
            "coding": [
              {
                "code": "26436-6",
                "system": "http://loinc.org",
                "display": "Laboratory studies (set)"
              }
            ]
          }
        ],
        "type": {
          "coding": [
            {
              "code": "11502-2",
              "system": "http://loinc.org",
              "display": "Laboratory report"
            }
          ],
          "text": "Laboratory Report"
        },
        "section": [
          {
            "code": {
              "coding": [
                {
                  "code": "26436-6",
                  "system": "http://loinc.org",
                  "display": "Laboratory studies (set)"
                }
              ],
              "text": "Laboratory studies"
            },
            "section": [
              {
                "code": {
                  "coding": [
                    {
                      "code": "$18719-5",
                      "system": "http://loinc.org",
                      "display": "Chemistry studies (set)"
                    }
                  ],
                  "text": "Chemistry"
                },
                "entry": [
                  {
                    "reference": "urn:uuid:1cc1d4ea-3091-464c-8ff6-7089b5265782"
                  },
                  {
                    "reference": "urn:uuid:7adc118d-f085-4af4-9599-063597133b02"
                  },
                  {
                    "reference": "urn:uuid:edde2314-2564-4486-9e14-d74a522cb00c"
                  },
                  {
                    "reference": "urn:uuid:a01349fe-d1a3-4bfd-a092-35ecc4c6b0d5"
                  },
                  {
                    "reference": "urn:uuid:28b0cbe8-0a32-4bee-aefe-67d697c0f4d4"
                  },
                  {
                    "reference": "urn:uuid:77e7e068-9091-46e8-a670-a4c0b26749d7"
                  },
                  {
                    "reference": "urn:uuid:1b57a649-d004-4537-a686-51b8566c909c"
                  },
                  {
                    "reference": "urn:uuid:18304fd0-3caf-4706-857e-71972c2aab90"
                  },
                  {
                    "reference": "urn:uuid:09b33121-d667-4e25-ad74-d3d580ed3eaa"
                  },
                  {
                    "reference": "urn:uuid:e42d87ca-f9da-436c-8e2d-c11ade1a00a1"
                  },
                  {
                    "reference": "urn:uuid:6ee6e92a-42ab-4e9c-a3c6-d41bffa3a715"
                  },
                  {
                    "reference": "urn:uuid:66f65237-8e43-40a4-8a6e-a49fc806a759"
                  },
                  {
                    "reference": "urn:uuid:e6b388e0-1134-465d-a6cf-6a480348e9e0"
                  },
                  {
                    "reference": "urn:uuid:830e8e5b-7ac4-4bd7-8dae-ce87e2fc9bc0"
                  },
                  {
                    "reference": "urn:uuid:c2189d91-b79a-445d-9024-8eda5e5e8cb9"
                  },
                  {
                    "reference": "urn:uuid:6e9144fa-d226-46fc-a482-32b71f59318f"
                  },
                  {
                    "reference": "urn:uuid:2eee84b4-8ded-4f9f-8f47-a04961d1abb3"
                  },
                  {
                    "reference": "urn:uuid:5c7efca8-3781-42e8-8533-924485b384e6"
                  }
                ],
                "text": {
                  "status": "generated",
                  "div": "<div xmlns=\"http://www.w3.org/1999/xhtml\"><h3>Chemistry</h3><table class=\"hl7__eu__lab__report\"><thead><tr><th>Test</th><th>23-OCT-2024</th><th>Reference&#xA0;Range</th><th>Unit</th></tr></thead><tbody><tr><td>Glucose [Mass/volume] in Serum or Plasma</td><td>73.9</td><td>70 - 140</td><td>mg/dL</td></tr><tr><td>Urea nitrogen [Mass/volume] in Serum or Plasma</td><td>7.8</td><td>7 - 20</td><td>mg/dL</td></tr><tr><td>Creatinine [Mass/volume] in Serum or Plasma</td><td><strong>2.0 H</strong></td><td>0.9 - 1.3</td><td>mg/dL</td></tr><tr><td>Calcium [Mass/volume] in Serum or Plasma</td><td>8.5</td><td>8.5 - 10.5</td><td>mg/dL</td></tr><tr><td>Sodium [Moles/volume] in Serum or Plasma</td><td>139.9</td><td>135 - 145</td><td>mmol/L</td></tr><tr><td>Potassium [Moles/volume] in Serum or Plasma</td><td>4.5</td><td>3.5 - 5</td><td>mmol/L</td></tr><tr><td>Chloride [Moles/volume] in Serum or Plasma</td><td><strong>110.1 H</strong></td><td>98 - 108</td><td>mmol/L</td></tr><tr><td>Carbon dioxide, total [Moles/volume] in Serum or Plasma</td><td><strong>21.9 L</strong></td><td>22 - 29</td><td>mmol/L</td></tr><tr><td>Ketones [Presence] in Urine by Test strip</td><td>Urine ketone test = ++</td><td></td><td></td></tr><tr><td>Hemoglobin A1c/Hemoglobin.total in Blood</td><td><strong>3.3 L</strong></td><td>4.3 - 6.4</td><td>%</td></tr><tr><td>Glucose [Mass/volume] in Blood</td><td>73.9</td><td>70 - 140</td><td>mg/dL</td></tr><tr><td>Urea nitrogen [Mass/volume] in Blood</td><td>7.8</td><td>7 - 20</td><td>mg/dL</td></tr><tr><td>Creatinine [Mass/volume] in Blood</td><td><strong>6.0 H</strong></td><td>0.6 - 1.3</td><td>mg/dL</td></tr><tr><td>Calcium [Mass/volume] in Blood</td><td>8.5</td><td>8.5 - 10.5</td><td>mg/dL</td></tr><tr><td>Sodium [Moles/volume] in Blood</td><td>139.9</td><td>135 - 145</td><td>mmol/L</td></tr><tr><td>Potassium [Moles/volume] in Blood</td><td>4.5</td><td>3.5 - 5.3</td><td>mmol/L</td></tr><tr><td>Chloride [Moles/volume] in Blood</td><td><strong>110.1 H</strong></td><td>98 - 110</td><td>mmol/L</td></tr><tr><td>Carbon dioxide, total [Moles/volume] in Blood</td><td><strong>21.9 L</strong></td><td>22 - 29</td><td>mmol/L</td></tr></tbody></table></div>"
                },
                "title": "Chemistry"
              },
              {
                "code": {
                  "coding": [
                    {
                      "code": "$18729-4",
                      "system": "http://loinc.org",
                      "display": "Urinalysis studies (set)"
                    }
                  ],
                  "text": "Urinalysis"
                },
                "entry": [
                  {
                    "reference": "urn:uuid:701f90a5-2251-4c4f-bc5f-2dbcbf7c04d6"
                  },
                  {
                    "reference": "urn:uuid:47c12d0e-716a-4b03-ba2c-5b58cbb183bd"
                  },
                  {
                    "reference": "urn:uuid:f7a14901-31ba-4df2-8f83-8a4ae766d43d"
                  },
                  {
                    "reference": "urn:uuid:ee2d3468-f0d2-4b92-b71c-088f2c36cde7"
                  },
                  {
                    "reference": "urn:uuid:60ae9160-8167-4dd2-ab25-ac184c241cf0"
                  },
                  {
                    "reference": "urn:uuid:c7b43c6a-9b30-4ef2-844f-6cf7d3ebee61"
                  },
                  {
                    "reference": "urn:uuid:bc5f5788-22a3-45a2-a4fa-1aa38dbb729f"
                  },
                  {
                    "reference": "urn:uuid:f4801914-47f2-429b-9539-7d6c597b8e89"
                  },
                  {
                    "reference": "urn:uuid:f27f6f22-85ba-4348-afa1-51f4b4920af9"
                  },
                  {
                    "reference": "urn:uuid:39b16028-6d97-452b-b354-5ad9c3f6b5a7"
                  },
                  {
                    "reference": "urn:uuid:ad391c30-b1c2-466a-9bfd-326d255b70cd"
                  },
                  {
                    "reference": "urn:uuid:a959ad69-d37d-47e4-9d78-ab314ac5f853"
                  }
                ],
                "text": {
                  "status": "generated",
                  "div": "<div xmlns=\"http://www.w3.org/1999/xhtml\"><h3>Urinalysis</h3><table class=\"hl7__eu__lab__report\"><thead><tr><th>Test</th><th>23-OCT-2024</th><th>Reference&#xA0;Range</th><th>Unit</th></tr></thead><tbody><tr><td>Glucose [Mass/volume] in Urine by Test strip</td><td><strong>1.7 H</strong></td><td>0 - 0.8</td><td>mg/dL</td></tr><tr><td>Glucose [Presence] in Urine by Test strip</td><td>++</td><td></td><td></td></tr><tr><td>Bilirubin.total [Mass/volume] in Urine by Test strip</td><td><strong>1.2 H</strong></td><td>0.2 - 1</td><td>mg/dL</td></tr><tr><td>Bilirubin.total [Presence] in Urine by Test strip</td><td>Finding of bilirubin in urine</td><td></td><td></td></tr><tr><td>Ketones [Mass/volume] in Urine by Test strip</td><td>0.3</td><td>0 - 5</td><td>mg/dL</td></tr><tr><td>Specific gravity of Urine by Test strip</td><td><strong>1.0 L</strong></td><td>1.005 - 1.03</td><td>{nominal}</td></tr><tr><td>pH of Urine by Test strip</td><td>6.4</td><td>4.6 - 7</td><td>pH</td></tr><tr><td>Protein [Mass/volume] in Urine by Test strip</td><td><strong>369.4 H</strong></td><td>0 - 150</td><td>mg/dL</td></tr><tr><td>Protein [Presence] in Urine by Test strip</td><td>Urine protein test = ++</td><td></td><td></td></tr><tr><td>Nitrite [Presence] in Urine by Test strip</td><td>Urine nitrite negative</td><td></td><td></td></tr><tr><td>Hemoglobin [Presence] in Urine by Test strip</td><td>Urine blood test = negative</td><td></td><td></td></tr><tr><td>Leukocyte esterase [Presence] in Urine by Test strip</td><td>Urine leukocyte test negative</td><td></td><td></td></tr></tbody></table></div>"
                },
                "title": "Urinalysis"
              },
              {
                "code": {
                  "coding": [
                    {
                      "code": "$LP7846-1",
                      "system": "http://loinc.org",
                      "display": "Specimen information"
                    }
                  ],
                  "text": "Specimen information"
                },
                "entry": [
                  {
                    "reference": "urn:uuid:f20d1ddd-c224-4110-94b9-68ac47301379"
                  },
                  {
                    "reference": "urn:uuid:940e3ba8-a30b-43c0-8030-982771fd383c"
                  },
                  {
                    "reference": "urn:uuid:3fef332c-d603-4cb4-839e-53ea06edb3c0"
                  },
                  {
                    "reference": "urn:uuid:dc58cafe-1ed3-4285-b9c3-91679ecfec85"
                  }
                ],
                "text": {
                  "status": "generated",
                  "div": "<div xmlns=\"http://www.w3.org/1999/xhtml\"><h3>Specimen information</h3><table class=\"hl7__eu__lab__report\"><thead><tr><th>Test</th><th>23-OCT-2024</th><th>Specimen</th><th></th></tr></thead><tbody><tr><td>Appearance of Urine</td><td>Cloudy urine</td><td>Urine</td><td></td></tr><tr><td>Odor of Urine</td><td>Urine smell ammoniacal</td><td>Urine</td><td></td></tr><tr><td>Clarity of Urine</td><td>Translucent</td><td>Urine</td><td></td></tr><tr><td>Color of Urine</td><td>Brown color</td><td>Urine</td><td></td></tr></tbody></table></div>"
                },
                "title": "Specimen information"
              }
            ],
            "title": "Laboratory Report"
          },
          {
            "text": {
              "status": "generated",
              "div": "<div xmlns=\"http://www.w3.org/1999/xhtml\"><h3>Annotation</h3><table class=\"hl7__eu__lab__report\"><tr><th>Conclusion and Recommendations based on this report and previous findings known to us</th></tr><tr><td>The patient shows markedly elevated creatinine, proteinuria, glucosuria, and bilirubinuria, with low-normal glucose and low HbA1c, suggesting significant renal dysfunction (possibly acute or chronic kidney disease) with impaired filtration and possible tubular damage. Urine findings (cloudy, brown, ammoniacal) further support renal pathology. Mild metabolic acidosis (low CO₂), hyperchloremia, and low urine specific gravity are also present. Prompt nephrology evaluation is recommended.</td></tr></table></div>"
            },
            "code": {
              "coding": [
                {
                  "system": "http://loinc.org",
                  "code": "48767-8",
                  "display": "Annotation comment"
                }
              ]
            },
            "title": "Annotation comment"
          }
        ],
        "status": "final",
        "subject": {
          "reference": "urn:uuid:f5ffc23c-b56c-45f0-b1f4-c4126ad3b428",
          "display": "Θεμιστοκλής Λιναρδάκη"
        },
        "date": "2024-10-23T08:16:00Z",
        "title": "Laboratory Report",
        "confidentiality": "N"
      }
    },
    {
      "fullUrl": "urn:uuid:cfcb6f71-657d-49fd-9478-bb5ced7e652d",
      "resource": {
        "resourceType": "DiagnosticReport",
        "id": "cfcb6f71-657d-49fd-9478-bb5ced7e652d",
        "meta": {
          "profile": [
            "http://hl7.eu/fhir/laboratory/StructureDefinition/DiagnosticReport-eu-lab"
          ]
        },
        "identifier": [
          {
            "assigner": {
              "display": "HL7 Europe"
            },
            "system": "urn:oid:2.16.840.1.113883.2.51.999",
            "value": "1ade951d-f97d-4b2e-afd9-d43074e6058e"
          }
        ],
        "extension": [
          {
            "url": "http://hl7.org/fhir/5.0/StructureDefinition/extension-DiagnosticReport.composition",
            "valueReference": {
              "reference": "urn:uuid:b927e757-abc5-4f02-86d1-1371a0a9237b"
            }
          }
        ],
        "category": [
          {
            "coding": [
              {
                "code": "26436-6",
                "system": "http://loinc.org",
                "display": "Laboratory studies (set)"
              }
            ]
          }
        ],
        "specimen": [
          {
            "reference": "urn:uuid:01e1134c-b6de-4dac-9912-2872554855a8"
          },
          {
            "reference": "urn:uuid:6bde3f83-ca12-4485-a339-31d9f678155f"
          },
          {
            "reference": "urn:uuid:5f2e5f86-12a9-4ef9-ad9e-ed2c04f38054"
          }
        ],
        "result": [
          {
            "reference": "urn:uuid:1cc1d4ea-3091-464c-8ff6-7089b5265782"
          },
          {
            "reference": "urn:uuid:7adc118d-f085-4af4-9599-063597133b02"
          },
          {
            "reference": "urn:uuid:edde2314-2564-4486-9e14-d74a522cb00c"
          },
          {
            "reference": "urn:uuid:a01349fe-d1a3-4bfd-a092-35ecc4c6b0d5"
          },
          {
            "reference": "urn:uuid:28b0cbe8-0a32-4bee-aefe-67d697c0f4d4"
          },
          {
            "reference": "urn:uuid:77e7e068-9091-46e8-a670-a4c0b26749d7"
          },
          {
            "reference": "urn:uuid:1b57a649-d004-4537-a686-51b8566c909c"
          },
          {
            "reference": "urn:uuid:18304fd0-3caf-4706-857e-71972c2aab90"
          },
          {
            "reference": "urn:uuid:f20d1ddd-c224-4110-94b9-68ac47301379"
          },
          {
            "reference": "urn:uuid:940e3ba8-a30b-43c0-8030-982771fd383c"
          },
          {
            "reference": "urn:uuid:3fef332c-d603-4cb4-839e-53ea06edb3c0"
          },
          {
            "reference": "urn:uuid:dc58cafe-1ed3-4285-b9c3-91679ecfec85"
          },
          {
            "reference": "urn:uuid:701f90a5-2251-4c4f-bc5f-2dbcbf7c04d6"
          },
          {
            "reference": "urn:uuid:47c12d0e-716a-4b03-ba2c-5b58cbb183bd"
          },
          {
            "reference": "urn:uuid:f7a14901-31ba-4df2-8f83-8a4ae766d43d"
          },
          {
            "reference": "urn:uuid:ee2d3468-f0d2-4b92-b71c-088f2c36cde7"
          },
          {
            "reference": "urn:uuid:60ae9160-8167-4dd2-ab25-ac184c241cf0"
          },
          {
            "reference": "urn:uuid:09b33121-d667-4e25-ad74-d3d580ed3eaa"
          },
          {
            "reference": "urn:uuid:c7b43c6a-9b30-4ef2-844f-6cf7d3ebee61"
          },
          {
            "reference": "urn:uuid:bc5f5788-22a3-45a2-a4fa-1aa38dbb729f"
          },
          {
            "reference": "urn:uuid:f4801914-47f2-429b-9539-7d6c597b8e89"
          },
          {
            "reference": "urn:uuid:f27f6f22-85ba-4348-afa1-51f4b4920af9"
          },
          {
            "reference": "urn:uuid:39b16028-6d97-452b-b354-5ad9c3f6b5a7"
          },
          {
            "reference": "urn:uuid:ad391c30-b1c2-466a-9bfd-326d255b70cd"
          },
          {
            "reference": "urn:uuid:a959ad69-d37d-47e4-9d78-ab314ac5f853"
          },
          {
            "reference": "urn:uuid:e42d87ca-f9da-436c-8e2d-c11ade1a00a1"
          },
          {
            "reference": "urn:uuid:6ee6e92a-42ab-4e9c-a3c6-d41bffa3a715"
          },
          {
            "reference": "urn:uuid:66f65237-8e43-40a4-8a6e-a49fc806a759"
          },
          {
            "reference": "urn:uuid:e6b388e0-1134-465d-a6cf-6a480348e9e0"
          },
          {
            "reference": "urn:uuid:830e8e5b-7ac4-4bd7-8dae-ce87e2fc9bc0"
          },
          {
            "reference": "urn:uuid:c2189d91-b79a-445d-9024-8eda5e5e8cb9"
          },
          {
            "reference": "urn:uuid:6e9144fa-d226-46fc-a482-32b71f59318f"
          },
          {
            "reference": "urn:uuid:2eee84b4-8ded-4f9f-8f47-a04961d1abb3"
          },
          {
            "reference": "urn:uuid:5c7efca8-3781-42e8-8533-924485b384e6"
          }
        ],
        "status": "registered",
        "code": {
          "coding": [
            {
              "code": "11502-2",
              "system": "http://loinc.org",
              "display": "Laboratory report"
            }
          ]
        },
        "subject": {
          "reference": "urn:uuid:f5ffc23c-b56c-45f0-b1f4-c4126ad3b428",
          "display": "Θεμιστοκλής Λιναρδάκη"
        }
      }
    },
    {
      "fullUrl": "urn:uuid:f5ffc23c-b56c-45f0-b1f4-c4126ad3b428",
      "resource": {
        "resourceType": "Patient",
        "id": "f5ffc23c-b56c-45f0-b1f4-c4126ad3b428",
        "meta": {
          "security": [
            {
              "system": "http://terminology.hl7.org/CodeSystem/v3-ActReason",
              "code": "HTEST"
            },
            {
              "system": "http://terminology.hl7.org/CodeSystem/v3-ActReason",
              "code": "TRAIN"
            }
          ],
          "tag": [
            {
              "system": "https://synderai.net/fhir/CodeSystem/tags",
              "code": "synthetic",
              "display": "SYNDERAI Synthetic data"
            }
          ],
          "profile": [
            "http://hl7.eu/fhir/base/StructureDefinition/patient-eu-core"
          ]
        },
        "identifier": [
          {
            "type": {
              "coding": [
                {
                  "code": "PT",
                  "system": "http://terminology.hl7.org/CodeSystem/v2-0203"
                }
              ]
            },
            "system": "http://ec.europa.eu/identifier/eci",
            "value": "5962-476889-7"
          },
          {
            "type": {
              "coding": [
                {
                  "code": "MR",
                  "system": "http://terminology.hl7.org/CodeSystem/v2-0203"
                }
              ]
            },
            "system": "http://local.setting.eu/identifier",
            "value": "925e2603-2ef9-6bdf-1330-2ebf526636c4"
          }
        ],
        "name": [
          {
            "family": "Λιναρδάκη"
          },
          {
            "given": [
              "Θεμιστοκλής"
            ]
          },
          {
            "text": "Θεμιστοκλής Λιναρδάκη"
          }
        ],
        "address": [
          {
            "line": [
              "Αμαρύνθου 54-58"
            ],
            "use": "home",
            "type": "physical",
            "postalCode": "262 21",
            "city": "Πάτρα",
            "country": "Greece"
          }
        ],
        "telecom": [
          {
            "system": "phone",
            "value": "+302226364480"
          }
        ],
        "extension": [
          {
            "url": "http://hl7.org/fhir/StructureDefinition/patient-nationality",
            "valueCodeableConcept": {
              "coding": [
                {
                  "code": "GR",
                  "system": "http://hl7.org/fhir/ValueSet/country"
                }
              ]
            }
          }
        ],
        "text": {
          "status": "generated",
          "div": "<div xmlns=\"http://www.w3.org/1999/xhtml\"><table class=\"hl7__ips\"><tr><td>Θεμιστοκλής Λιναρδάκη</td><td>male</td><td>21-Jan-1974</td></tr></table></div>"
        },
        "gender": "male",
        "birthDate": "1974-01-21"
      }
    },
    {
      "fullUrl": "urn:uuid:d759ca3b-bd8e-4a06-9dfc-619cad657432",
      "resource": {
        "resourceType": "ServiceRequest",
        "id": "d759ca3b-bd8e-4a06-9dfc-619cad657432",
        "meta": {
          "profile": [
            "http://hl7.eu/fhir/laboratory/StructureDefinition/ServiceRequest-eu-lab"
          ]
        },
        "identifier": [
          {
            "system": "http://example.org",
            "value": "52a009d3-49b2-4aeb-9d75-58f99acb7e1a"
          }
        ],
        "specimen": [
          {
            "reference": "urn:uuid:01e1134c-b6de-4dac-9912-2872554855a8"
          },
          {
            "reference": "urn:uuid:6bde3f83-ca12-4485-a339-31d9f678155f"
          },
          {
            "reference": "urn:uuid:5f2e5f86-12a9-4ef9-ad9e-ed2c04f38054"
          }
        ],
        "reasonCode": [
          {
            "coding": [
              {
                "code": "237602007",
                "system": "http://snomed.info/sct",
                "display": "Metabolic syndrome X"
              }
            ]
          },
          {
            "coding": [
              {
                "code": "433144002",
                "system": "http://snomed.info/sct",
                "display": "Chronic kidney disease stage 3"
              }
            ]
          },
          {
            "coding": [
              {
                "code": "157141000119108",
                "system": "http://snomed.info/sct",
                "display": "Proteinuria due to type 2 diabetes mellitus"
              }
            ]
          },
          {
            "coding": [
              {
                "code": "431856006",
                "system": "http://snomed.info/sct",
                "display": "Chronic kidney disease stage 2"
              }
            ]
          },
          {
            "coding": [
              {
                "code": "90781000119102",
                "system": "http://snomed.info/sct",
                "display": "Microalbuminuria due to type 2 diabetes mellitus"
              }
            ]
          },
          {
            "coding": [
              {
                "code": "127013003",
                "system": "http://snomed.info/sct",
                "display": "Disorder of kidney due to diabetes mellitus"
              }
            ]
          },
          {
            "coding": [
              {
                "code": "431855005",
                "system": "http://snomed.info/sct",
                "display": "Chronic kidney disease stage 1"
              }
            ]
          },
          {
            "coding": [
              {
                "code": "59621000",
                "system": "http://snomed.info/sct",
                "display": "Essential hypertension"
              }
            ]
          },
          {
            "coding": [
              {
                "code": "15777000",
                "system": "http://snomed.info/sct",
                "display": "Prediabetes"
              }
            ]
          },
          {
            "coding": [
              {
                "code": "271737000",
                "system": "http://snomed.info/sct",
                "display": "Anemia"
              }
            ]
          }
        ],
        "status": "active",
        "intent": "order",
        "code": {
          "coding": [
            {
              "code": "108252007",
              "system": "http://snomed.info/sct",
              "display": "Laboratory procedure"
            }
          ]
        },
        "subject": {
          "reference": "urn:uuid:f5ffc23c-b56c-45f0-b1f4-c4126ad3b428",
          "display": "Θεμιστοκλής Λιναρδάκη"
        },
        "requester": {
          "reference": "urn:uuid:667459b3-f612-4a0c-b2ba-9b98460cadec"
        }
      }
    },
    {
      "fullUrl": "urn:uuid:667459b3-f612-4a0c-b2ba-9b98460cadec",
      "resource": {
        "resourceType": "PractitionerRole",
        "id": "667459b3-f612-4a0c-b2ba-9b98460cadec",
        "meta": {
          "profile": [
            "http://hl7.eu/fhir/base/StructureDefinition/practitionerRole-eu"
          ]
        },
        "text": {
          "status": "generated",
          "div": "<div xmlns=\"http://www.w3.org/1999/xhtml\">Provider Role Id: 667459b3-f612-4a0c-b2ba-9b98460cadec</div>"
        },
        "organization": {
          "reference": "urn:uuid:ccc54ca6-c6a5-47ea-9ae7-7d2d50e4641f"
        }
      }
    },
    {
      "fullUrl": "urn:uuid:ccc54ca6-c6a5-47ea-9ae7-7d2d50e4641f",
      "resource": {
        "resourceType": "Organization",
        "id": "ccc54ca6-c6a5-47ea-9ae7-7d2d50e4641f",
        "meta": {
          "profile": [
            "http://hl7.eu/fhir/base/StructureDefinition/organization-eu"
          ]
        },
        "identifier": [
          {
            "assigner": {
              "display": "HL7 Europe"
            },
            "system": "urn:oid:2.16.840.1.113883.2.51.999",
            "value": "988ea59c-45a5-4ebd-ad1d-b3d222b81fe5"
          }
        ],
        "address": [
          {
            "line": [
              "211 Odós Filellinon"
            ],
            "city": "Patras",
            "postalCode": "262 21",
            "country": "Greece"
          }
        ],
        "text": {
          "status": "generated",
          "div": "<div xmlns=\"http://www.w3.org/1999/xhtml\">Provider Organization: Dr. Dimitris Economou</div>"
        },
        "name": "Dr. Dimitris Economou"
      }
    },
    {
      "fullUrl": "urn:uuid:01e1134c-b6de-4dac-9912-2872554855a8",
      "resource": {
        "resourceType": "Specimen",
        "id": "01e1134c-b6de-4dac-9912-2872554855a8",
        "meta": {
          "profile": [
            "http://hl7.eu/fhir/laboratory/StructureDefinition/Specimen-eu-lab"
          ]
        },
        "collection": {
          "collectedDateTime": "2024-10-23"
        },
        "text": {
          "status": "generated",
          "div": "<div xmlns=\"http://www.w3.org/1999/xhtml\"><table class=\"hl7__eu__lab__report\"><tr><th>Specimen</th><th>Collection Date</th></tr><tr><td>Acellular blood (serum or plasma) specimen</td><td><span class=\"nb\">23-Oct-2024</span></td></tr></table></div>"
        },
        "type": {
          "coding": [
            {
              "code": "122592007",
              "system": "http://snomed.info/sct",
              "display": "Acellular blood (serum or plasma) specimen"
            }
          ]
        }
      }
    },
    {
      "fullUrl": "urn:uuid:6bde3f83-ca12-4485-a339-31d9f678155f",
      "resource": {
        "resourceType": "Specimen",
        "id": "6bde3f83-ca12-4485-a339-31d9f678155f",
        "meta": {
          "profile": [
            "http://hl7.eu/fhir/laboratory/StructureDefinition/Specimen-eu-lab"
          ]
        },
        "collection": {
          "collectedDateTime": "2024-10-23"
        },
        "text": {
          "status": "generated",
          "div": "<div xmlns=\"http://www.w3.org/1999/xhtml\"><table class=\"hl7__eu__lab__report\"><tr><th>Specimen</th><th>Collection Date</th></tr><tr><td>Urine specimen</td><td><span class=\"nb\">23-Oct-2024</span></td></tr></table></div>"
        },
        "type": {
          "coding": [
            {
              "code": "122575003",
              "system": "http://snomed.info/sct",
              "display": "Urine specimen"
            }
          ]
        }
      }
    },
    {
      "fullUrl": "urn:uuid:5f2e5f86-12a9-4ef9-ad9e-ed2c04f38054",
      "resource": {
        "resourceType": "Specimen",
        "id": "5f2e5f86-12a9-4ef9-ad9e-ed2c04f38054",
        "meta": {
          "profile": [
            "http://hl7.eu/fhir/laboratory/StructureDefinition/Specimen-eu-lab"
          ]
        },
        "collection": {
          "collectedDateTime": "2024-10-23"
        },
        "text": {
          "status": "generated",
          "div": "<div xmlns=\"http://www.w3.org/1999/xhtml\"><table class=\"hl7__eu__lab__report\"><tr><th>Specimen</th><th>Collection Date</th></tr><tr><td>Whole blood specimen (specimen)</td><td><span class=\"nb\">23-Oct-2024</span></td></tr></table></div>"
        },
        "type": {
          "coding": [
            {
              "code": "258580003",
              "system": "http://snomed.info/sct",
              "display": "Whole blood specimen (specimen)"
            }
          ]
        }
      }
    },
    {
      "fullUrl": "urn:uuid:1cc1d4ea-3091-464c-8ff6-7089b5265782",
      "resource": {
        "resourceType": "Observation",
        "id": "1cc1d4ea-3091-464c-8ff6-7089b5265782",
        "meta": {
          "profile": [
            "http://hl7.eu/fhir/laboratory/StructureDefinition/Observation-resultslab-eu-lab"
          ]
        },
        "performer": [
          {
            "display": "The Central European Lab"
          }
        ],
        "category": [
          {
            "coding": [
              {
                "system": "http://terminology.hl7.org/CodeSystem/observation-category",
                "code": "laboratory"
              }
            ]
          }
        ],
        "code": {
          "coding": [
            {
              "code": "2345-7",
              "system": "http://loinc.org",
              "display": "Glucose [Mass/volume] in Serum or Plasma"
            }
          ],
          "text": "Glucose [Mass/volume] in Serum or Plasma"
        },
        "valueQuantity": {
          "system": "http://unitsofmeasure.org",
          "value": 73.9,
          "unit": "mg/dL",
          "code": "mg/dL"
        },
        "referenceRange": [
          {
            "low": {
              "value": 70,
              "code": "mg/dL",
              "system": "http://unitsofmeasure.org"
            }
          },
          {
            "high": {
              "value": 140,
              "code": "mg/dL",
              "system": "http://unitsofmeasure.org"
            }
          }
        ],
        "text": {
          "status": "generated",
          "div": "<div xmlns=\"http://www.w3.org/1999/xhtml\"><table class=\"hl7__eu__lab__report\"><tr><th>Test</th><th>23-Oct-2024</th><th>Reference&#xA0;Range</th><th>Unit</th></tr><tr><td>Glucose [Mass/volume] in Serum or Plasma</td><td>73.9</td><td>70 - 140</td><td></td><td>mg/dL</td></tr></table></div>"
        },
        "status": "final",
        "subject": {
          "reference": "urn:uuid:f5ffc23c-b56c-45f0-b1f4-c4126ad3b428",
          "display": "Θεμιστοκλής Λιναρδάκη"
        },
        "effectiveDateTime": "2024-10-23T06:16:00Z",
        "specimen": {
          "reference": "urn:uuid:01e1134c-b6de-4dac-9912-2872554855a8"
        }
      }
    },
    {
      "fullUrl": "urn:uuid:7adc118d-f085-4af4-9599-063597133b02",
      "resource": {
        "resourceType": "Observation",
        "id": "7adc118d-f085-4af4-9599-063597133b02",
        "meta": {
          "profile": [
            "http://hl7.eu/fhir/laboratory/StructureDefinition/Observation-resultslab-eu-lab"
          ]
        },
        "performer": [
          {
            "display": "The Central European Lab"
          }
        ],
        "category": [
          {
            "coding": [
              {
                "system": "http://terminology.hl7.org/CodeSystem/observation-category",
                "code": "laboratory"
              }
            ]
          }
        ],
        "code": {
          "coding": [
            {
              "code": "3094-0",
              "system": "http://loinc.org",
              "display": "Urea nitrogen [Mass/volume] in Serum or Plasma"
            }
          ],
          "text": "Urea nitrogen [Mass/volume] in Serum or Plasma"
        },
        "valueQuantity": {
          "system": "http://unitsofmeasure.org",
          "value": 7.8,
          "unit": "mg/dL",
          "code": "mg/dL"
        },
        "referenceRange": [
          {
            "low": {
              "value": 7,
              "code": "mg/dL",
              "system": "http://unitsofmeasure.org"
            }
          },
          {
            "high": {
              "value": 20,
              "code": "mg/dL",
              "system": "http://unitsofmeasure.org"
            }
          }
        ],
        "text": {
          "status": "generated",
          "div": "<div xmlns=\"http://www.w3.org/1999/xhtml\"><table class=\"hl7__eu__lab__report\"><tr><th>Test</th><th>23-Oct-2024</th><th>Reference&#xA0;Range</th><th>Unit</th></tr><tr><td>Urea nitrogen [Mass/volume] in Serum or Plasma</td><td>7.8</td><td>7 - 20</td><td></td><td>mg/dL</td></tr></table></div>"
        },
        "status": "final",
        "subject": {
          "reference": "urn:uuid:f5ffc23c-b56c-45f0-b1f4-c4126ad3b428",
          "display": "Θεμιστοκλής Λιναρδάκη"
        },
        "effectiveDateTime": "2024-10-23T06:16:00Z",
        "specimen": {
          "reference": "urn:uuid:01e1134c-b6de-4dac-9912-2872554855a8"
        }
      }
    },
    {
      "fullUrl": "urn:uuid:edde2314-2564-4486-9e14-d74a522cb00c",
      "resource": {
        "resourceType": "Observation",
        "id": "edde2314-2564-4486-9e14-d74a522cb00c",
        "meta": {
          "profile": [
            "http://hl7.eu/fhir/laboratory/StructureDefinition/Observation-resultslab-eu-lab"
          ]
        },
        "performer": [
          {
            "display": "The Central European Lab"
          }
        ],
        "category": [
          {
            "coding": [
              {
                "system": "http://terminology.hl7.org/CodeSystem/observation-category",
                "code": "laboratory"
              }
            ]
          }
        ],
        "code": {
          "coding": [
            {
              "code": "2160-0",
              "system": "http://loinc.org",
              "display": "Creatinine [Mass/volume] in Serum or Plasma"
            }
          ],
          "text": "Creatinine [Mass/volume] in Serum or Plasma"
        },
        "valueQuantity": {
          "system": "http://unitsofmeasure.org",
          "value": 2,
          "unit": "mg/dL",
          "code": "mg/dL"
        },
        "referenceRange": [
          {
            "low": {
              "value": 0.9,
              "code": "mg/dL",
              "system": "http://unitsofmeasure.org"
            }
          },
          {
            "high": {
              "value": 1.3,
              "code": "mg/dL",
              "system": "http://unitsofmeasure.org"
            }
          }
        ],
        "interpretation": [
          {
            "coding": [
              {
                "code": "H",
                "system": "http://terminology.hl7.org/CodeSystem/v3-ObservationInterpretation",
                "display": "High"
              }
            ]
          }
        ],
        "text": {
          "status": "generated",
          "div": "<div xmlns=\"http://www.w3.org/1999/xhtml\"><table class=\"hl7__eu__lab__report\"><tr><th>Test</th><th>23-Oct-2024</th><th>Reference&#xA0;Range</th><th>Unit</th></tr><tr><td>Creatinine [Mass/volume] in Serum or Plasma</td><td>2.0</td><td>0.9 - 1.3</td><td>H</td><td>mg/dL</td></tr></table></div>"
        },
        "status": "final",
        "subject": {
          "reference": "urn:uuid:f5ffc23c-b56c-45f0-b1f4-c4126ad3b428",
          "display": "Θεμιστοκλής Λιναρδάκη"
        },
        "effectiveDateTime": "2024-10-23T06:16:00Z",
        "specimen": {
          "reference": "urn:uuid:01e1134c-b6de-4dac-9912-2872554855a8"
        }
      }
    },
    {
      "fullUrl": "urn:uuid:a01349fe-d1a3-4bfd-a092-35ecc4c6b0d5",
      "resource": {
        "resourceType": "Observation",
        "id": "a01349fe-d1a3-4bfd-a092-35ecc4c6b0d5",
        "meta": {
          "profile": [
            "http://hl7.eu/fhir/laboratory/StructureDefinition/Observation-resultslab-eu-lab"
          ]
        },
        "performer": [
          {
            "display": "The Central European Lab"
          }
        ],
        "category": [
          {
            "coding": [
              {
                "system": "http://terminology.hl7.org/CodeSystem/observation-category",
                "code": "laboratory"
              }
            ]
          }
        ],
        "code": {
          "coding": [
            {
              "code": "17861-6",
              "system": "http://loinc.org",
              "display": "Calcium [Mass/volume] in Serum or Plasma"
            }
          ],
          "text": "Calcium [Mass/volume] in Serum or Plasma"
        },
        "valueQuantity": {
          "system": "http://unitsofmeasure.org",
          "value": 8.5,
          "unit": "mg/dL",
          "code": "mg/dL"
        },
        "referenceRange": [
          {
            "low": {
              "value": 8.5,
              "code": "mg/dL",
              "system": "http://unitsofmeasure.org"
            }
          },
          {
            "high": {
              "value": 10.5,
              "code": "mg/dL",
              "system": "http://unitsofmeasure.org"
            }
          }
        ],
        "text": {
          "status": "generated",
          "div": "<div xmlns=\"http://www.w3.org/1999/xhtml\"><table class=\"hl7__eu__lab__report\"><tr><th>Test</th><th>23-Oct-2024</th><th>Reference&#xA0;Range</th><th>Unit</th></tr><tr><td>Calcium [Mass/volume] in Serum or Plasma</td><td>8.5</td><td>8.5 - 10.5</td><td></td><td>mg/dL</td></tr></table></div>"
        },
        "status": "final",
        "subject": {
          "reference": "urn:uuid:f5ffc23c-b56c-45f0-b1f4-c4126ad3b428",
          "display": "Θεμιστοκλής Λιναρδάκη"
        },
        "effectiveDateTime": "2024-10-23T06:16:00Z",
        "specimen": {
          "reference": "urn:uuid:01e1134c-b6de-4dac-9912-2872554855a8"
        }
      }
    },
    {
      "fullUrl": "urn:uuid:28b0cbe8-0a32-4bee-aefe-67d697c0f4d4",
      "resource": {
        "resourceType": "Observation",
        "id": "28b0cbe8-0a32-4bee-aefe-67d697c0f4d4",
        "meta": {
          "profile": [
            "http://hl7.eu/fhir/laboratory/StructureDefinition/Observation-resultslab-eu-lab"
          ]
        },
        "performer": [
          {
            "display": "The Central European Lab"
          }
        ],
        "category": [
          {
            "coding": [
              {
                "system": "http://terminology.hl7.org/CodeSystem/observation-category",
                "code": "laboratory"
              }
            ]
          }
        ],
        "code": {
          "coding": [
            {
              "code": "2951-2",
              "system": "http://loinc.org",
              "display": "Sodium [Moles/volume] in Serum or Plasma"
            }
          ],
          "text": "Sodium [Moles/volume] in Serum or Plasma"
        },
        "valueQuantity": {
          "system": "http://unitsofmeasure.org",
          "value": 139.9,
          "unit": "mmol/L",
          "code": "mmol/L"
        },
        "referenceRange": [
          {
            "low": {
              "value": 135,
              "code": "mmol/L",
              "system": "http://unitsofmeasure.org"
            }
          },
          {
            "high": {
              "value": 145,
              "code": "mmol/L",
              "system": "http://unitsofmeasure.org"
            }
          }
        ],
        "text": {
          "status": "generated",
          "div": "<div xmlns=\"http://www.w3.org/1999/xhtml\"><table class=\"hl7__eu__lab__report\"><tr><th>Test</th><th>23-Oct-2024</th><th>Reference&#xA0;Range</th><th>Unit</th></tr><tr><td>Sodium [Moles/volume] in Serum or Plasma</td><td>139.9</td><td>135 - 145</td><td></td><td>mmol/L</td></tr></table></div>"
        },
        "status": "final",
        "subject": {
          "reference": "urn:uuid:f5ffc23c-b56c-45f0-b1f4-c4126ad3b428",
          "display": "Θεμιστοκλής Λιναρδάκη"
        },
        "effectiveDateTime": "2024-10-23T06:16:00Z",
        "specimen": {
          "reference": "urn:uuid:01e1134c-b6de-4dac-9912-2872554855a8"
        }
      }
    },
    {
      "fullUrl": "urn:uuid:77e7e068-9091-46e8-a670-a4c0b26749d7",
      "resource": {
        "resourceType": "Observation",
        "id": "77e7e068-9091-46e8-a670-a4c0b26749d7",
        "meta": {
          "profile": [
            "http://hl7.eu/fhir/laboratory/StructureDefinition/Observation-resultslab-eu-lab"
          ]
        },
        "performer": [
          {
            "display": "The Central European Lab"
          }
        ],
        "category": [
          {
            "coding": [
              {
                "system": "http://terminology.hl7.org/CodeSystem/observation-category",
                "code": "laboratory"
              }
            ]
          }
        ],
        "code": {
          "coding": [
            {
              "code": "2823-3",
              "system": "http://loinc.org",
              "display": "Potassium [Moles/volume] in Serum or Plasma"
            }
          ],
          "text": "Potassium [Moles/volume] in Serum or Plasma"
        },
        "valueQuantity": {
          "system": "http://unitsofmeasure.org",
          "value": 4.5,
          "unit": "mmol/L",
          "code": "mmol/L"
        },
        "referenceRange": [
          {
            "low": {
              "value": 3.5,
              "code": "mmol/L",
              "system": "http://unitsofmeasure.org"
            }
          },
          {
            "high": {
              "value": 5,
              "code": "mmol/L",
              "system": "http://unitsofmeasure.org"
            }
          }
        ],
        "text": {
          "status": "generated",
          "div": "<div xmlns=\"http://www.w3.org/1999/xhtml\"><table class=\"hl7__eu__lab__report\"><tr><th>Test</th><th>23-Oct-2024</th><th>Reference&#xA0;Range</th><th>Unit</th></tr><tr><td>Potassium [Moles/volume] in Serum or Plasma</td><td>4.5</td><td>3.5 - 5</td><td></td><td>mmol/L</td></tr></table></div>"
        },
        "status": "final",
        "subject": {
          "reference": "urn:uuid:f5ffc23c-b56c-45f0-b1f4-c4126ad3b428",
          "display": "Θεμιστοκλής Λιναρδάκη"
        },
        "effectiveDateTime": "2024-10-23T06:16:00Z",
        "specimen": {
          "reference": "urn:uuid:01e1134c-b6de-4dac-9912-2872554855a8"
        }
      }
    },
    {
      "fullUrl": "urn:uuid:1b57a649-d004-4537-a686-51b8566c909c",
      "resource": {
        "resourceType": "Observation",
        "id": "1b57a649-d004-4537-a686-51b8566c909c",
        "meta": {
          "profile": [
            "http://hl7.eu/fhir/laboratory/StructureDefinition/Observation-resultslab-eu-lab"
          ]
        },
        "performer": [
          {
            "display": "The Central European Lab"
          }
        ],
        "category": [
          {
            "coding": [
              {
                "system": "http://terminology.hl7.org/CodeSystem/observation-category",
                "code": "laboratory"
              }
            ]
          }
        ],
        "code": {
          "coding": [
            {
              "code": "2075-0",
              "system": "http://loinc.org",
              "display": "Chloride [Moles/volume] in Serum or Plasma"
            }
          ],
          "text": "Chloride [Moles/volume] in Serum or Plasma"
        },
        "valueQuantity": {
          "system": "http://unitsofmeasure.org",
          "value": 110.1,
          "unit": "mmol/L",
          "code": "mmol/L"
        },
        "referenceRange": [
          {
            "low": {
              "value": 98,
              "code": "mmol/L",
              "system": "http://unitsofmeasure.org"
            }
          },
          {
            "high": {
              "value": 108,
              "code": "mmol/L",
              "system": "http://unitsofmeasure.org"
            }
          }
        ],
        "interpretation": [
          {
            "coding": [
              {
                "code": "H",
                "system": "http://terminology.hl7.org/CodeSystem/v3-ObservationInterpretation",
                "display": "High"
              }
            ]
          }
        ],
        "text": {
          "status": "generated",
          "div": "<div xmlns=\"http://www.w3.org/1999/xhtml\"><table class=\"hl7__eu__lab__report\"><tr><th>Test</th><th>23-Oct-2024</th><th>Reference&#xA0;Range</th><th>Unit</th></tr><tr><td>Chloride [Moles/volume] in Serum or Plasma</td><td>110.1</td><td>98 - 108</td><td>H</td><td>mmol/L</td></tr></table></div>"
        },
        "status": "final",
        "subject": {
          "reference": "urn:uuid:f5ffc23c-b56c-45f0-b1f4-c4126ad3b428",
          "display": "Θεμιστοκλής Λιναρδάκη"
        },
        "effectiveDateTime": "2024-10-23T06:16:00Z",
        "specimen": {
          "reference": "urn:uuid:01e1134c-b6de-4dac-9912-2872554855a8"
        }
      }
    },
    {
      "fullUrl": "urn:uuid:18304fd0-3caf-4706-857e-71972c2aab90",
      "resource": {
        "resourceType": "Observation",
        "id": "18304fd0-3caf-4706-857e-71972c2aab90",
        "meta": {
          "profile": [
            "http://hl7.eu/fhir/laboratory/StructureDefinition/Observation-resultslab-eu-lab"
          ]
        },
        "performer": [
          {
            "display": "The Central European Lab"
          }
        ],
        "category": [
          {
            "coding": [
              {
                "system": "http://terminology.hl7.org/CodeSystem/observation-category",
                "code": "laboratory"
              }
            ]
          }
        ],
        "code": {
          "coding": [
            {
              "code": "2028-9",
              "system": "http://loinc.org",
              "display": "Carbon dioxide, total [Moles/volume] in Serum or Plasma"
            }
          ],
          "text": "Carbon dioxide, total [Moles/volume] in Serum or Plasma"
        },
        "valueQuantity": {
          "system": "http://unitsofmeasure.org",
          "value": 21.9,
          "unit": "mmol/L",
          "code": "mmol/L"
        },
        "referenceRange": [
          {
            "low": {
              "value": 22,
              "code": "mmol/L",
              "system": "http://unitsofmeasure.org"
            }
          },
          {
            "high": {
              "value": 29,
              "code": "mmol/L",
              "system": "http://unitsofmeasure.org"
            }
          }
        ],
        "interpretation": [
          {
            "coding": [
              {
                "code": "L",
                "system": "http://terminology.hl7.org/CodeSystem/v3-ObservationInterpretation",
                "display": "Low"
              }
            ]
          }
        ],
        "text": {
          "status": "generated",
          "div": "<div xmlns=\"http://www.w3.org/1999/xhtml\"><table class=\"hl7__eu__lab__report\"><tr><th>Test</th><th>23-Oct-2024</th><th>Reference&#xA0;Range</th><th>Unit</th></tr><tr><td>Carbon dioxide, total [Moles/volume] in Serum or Plasma</td><td>21.9</td><td>22 - 29</td><td>L</td><td>mmol/L</td></tr></table></div>"
        },
        "status": "final",
        "subject": {
          "reference": "urn:uuid:f5ffc23c-b56c-45f0-b1f4-c4126ad3b428",
          "display": "Θεμιστοκλής Λιναρδάκη"
        },
        "effectiveDateTime": "2024-10-23T06:16:00Z",
        "specimen": {
          "reference": "urn:uuid:01e1134c-b6de-4dac-9912-2872554855a8"
        }
      }
    },
    {
      "fullUrl": "urn:uuid:f20d1ddd-c224-4110-94b9-68ac47301379",
      "resource": {
        "resourceType": "Observation",
        "id": "f20d1ddd-c224-4110-94b9-68ac47301379",
        "meta": {
          "profile": [
            "http://hl7.eu/fhir/laboratory/StructureDefinition/Observation-resultslab-eu-lab"
          ]
        },
        "performer": [
          {
            "display": "The Central European Lab"
          }
        ],
        "category": [
          {
            "coding": [
              {
                "system": "http://terminology.hl7.org/CodeSystem/observation-category",
                "code": "laboratory"
              }
            ]
          }
        ],
        "code": {
          "coding": [
            {
              "code": "5767-9",
              "system": "http://loinc.org",
              "display": "Appearance of Urine"
            }
          ],
          "text": "Appearance of Urine"
        },
        "text": {
          "status": "generated",
          "div": "<div xmlns=\"http://www.w3.org/1999/xhtml\"><table class=\"hl7__eu__lab__report\"><tr><th>Test</th><th>23-Oct-2024</th><th>Reference&#xA0;Range</th><th>Unit</th></tr><tr><td>Appearance of Urine</td></tr></table></div>"
        },
        "status": "final",
        "subject": {
          "reference": "urn:uuid:f5ffc23c-b56c-45f0-b1f4-c4126ad3b428",
          "display": "Θεμιστοκλής Λιναρδάκη"
        },
        "effectiveDateTime": "2024-10-23T06:16:00Z",
        "specimen": {
          "reference": "urn:uuid:6bde3f83-ca12-4485-a339-31d9f678155f"
        }
      }
    },
    {
      "fullUrl": "urn:uuid:940e3ba8-a30b-43c0-8030-982771fd383c",
      "resource": {
        "resourceType": "Observation",
        "id": "940e3ba8-a30b-43c0-8030-982771fd383c",
        "meta": {
          "profile": [
            "http://hl7.eu/fhir/laboratory/StructureDefinition/Observation-resultslab-eu-lab"
          ]
        },
        "performer": [
          {
            "display": "The Central European Lab"
          }
        ],
        "category": [
          {
            "coding": [
              {
                "system": "http://terminology.hl7.org/CodeSystem/observation-category",
                "code": "laboratory"
              }
            ]
          }
        ],
        "code": {
          "coding": [
            {
              "code": "34533-0",
              "system": "http://loinc.org",
              "display": "Odor of Urine"
            }
          ],
          "text": "Odor of Urine"
        },
        "text": {
          "status": "generated",
          "div": "<div xmlns=\"http://www.w3.org/1999/xhtml\"><table class=\"hl7__eu__lab__report\"><tr><th>Test</th><th>23-Oct-2024</th><th>Reference&#xA0;Range</th><th>Unit</th></tr><tr><td>Odor of Urine</td></tr></table></div>"
        },
        "status": "final",
        "subject": {
          "reference": "urn:uuid:f5ffc23c-b56c-45f0-b1f4-c4126ad3b428",
          "display": "Θεμιστοκλής Λιναρδάκη"
        },
        "effectiveDateTime": "2024-10-23T06:16:00Z",
        "specimen": {
          "reference": "urn:uuid:6bde3f83-ca12-4485-a339-31d9f678155f"
        }
      }
    },
    {
      "fullUrl": "urn:uuid:3fef332c-d603-4cb4-839e-53ea06edb3c0",
      "resource": {
        "resourceType": "Observation",
        "id": "3fef332c-d603-4cb4-839e-53ea06edb3c0",
        "meta": {
          "profile": [
            "http://hl7.eu/fhir/laboratory/StructureDefinition/Observation-resultslab-eu-lab"
          ]
        },
        "performer": [
          {
            "display": "The Central European Lab"
          }
        ],
        "category": [
          {
            "coding": [
              {
                "system": "http://terminology.hl7.org/CodeSystem/observation-category",
                "code": "laboratory"
              }
            ]
          }
        ],
        "code": {
          "coding": [
            {
              "code": "32167-9",
              "system": "http://loinc.org",
              "display": "Clarity of Urine"
            }
          ],
          "text": "Clarity of Urine"
        },
        "text": {
          "status": "generated",
          "div": "<div xmlns=\"http://www.w3.org/1999/xhtml\"><table class=\"hl7__eu__lab__report\"><tr><th>Test</th><th>23-Oct-2024</th><th>Reference&#xA0;Range</th><th>Unit</th></tr><tr><td>Clarity of Urine</td></tr></table></div>"
        },
        "status": "final",
        "subject": {
          "reference": "urn:uuid:f5ffc23c-b56c-45f0-b1f4-c4126ad3b428",
          "display": "Θεμιστοκλής Λιναρδάκη"
        },
        "effectiveDateTime": "2024-10-23T06:16:00Z",
        "specimen": {
          "reference": "urn:uuid:6bde3f83-ca12-4485-a339-31d9f678155f"
        }
      }
    },
    {
      "fullUrl": "urn:uuid:dc58cafe-1ed3-4285-b9c3-91679ecfec85",
      "resource": {
        "resourceType": "Observation",
        "id": "dc58cafe-1ed3-4285-b9c3-91679ecfec85",
        "meta": {
          "profile": [
            "http://hl7.eu/fhir/laboratory/StructureDefinition/Observation-resultslab-eu-lab"
          ]
        },
        "performer": [
          {
            "display": "The Central European Lab"
          }
        ],
        "category": [
          {
            "coding": [
              {
                "system": "http://terminology.hl7.org/CodeSystem/observation-category",
                "code": "laboratory"
              }
            ]
          }
        ],
        "code": {
          "coding": [
            {
              "code": "5778-6",
              "system": "http://loinc.org",
              "display": "Color of Urine"
            }
          ],
          "text": "Color of Urine"
        },
        "text": {
          "status": "generated",
          "div": "<div xmlns=\"http://www.w3.org/1999/xhtml\"><table class=\"hl7__eu__lab__report\"><tr><th>Test</th><th>23-Oct-2024</th><th>Reference&#xA0;Range</th><th>Unit</th></tr><tr><td>Color of Urine</td></tr></table></div>"
        },
        "status": "final",
        "subject": {
          "reference": "urn:uuid:f5ffc23c-b56c-45f0-b1f4-c4126ad3b428",
          "display": "Θεμιστοκλής Λιναρδάκη"
        },
        "effectiveDateTime": "2024-10-23T06:16:00Z",
        "specimen": {
          "reference": "urn:uuid:6bde3f83-ca12-4485-a339-31d9f678155f"
        }
      }
    },
    {
      "fullUrl": "urn:uuid:701f90a5-2251-4c4f-bc5f-2dbcbf7c04d6",
      "resource": {
        "resourceType": "Observation",
        "id": "701f90a5-2251-4c4f-bc5f-2dbcbf7c04d6",
        "meta": {
          "profile": [
            "http://hl7.eu/fhir/laboratory/StructureDefinition/Observation-resultslab-eu-lab"
          ]
        },
        "performer": [
          {
            "display": "The Central European Lab"
          }
        ],
        "category": [
          {
            "coding": [
              {
                "system": "http://terminology.hl7.org/CodeSystem/observation-category",
                "code": "laboratory"
              }
            ]
          }
        ],
        "code": {
          "coding": [
            {
              "code": "5792-7",
              "system": "http://loinc.org",
              "display": "Glucose [Mass/volume] in Urine by Test strip"
            }
          ],
          "text": "Glucose [Mass/volume] in Urine by Test strip"
        },
        "valueQuantity": {
          "system": "http://unitsofmeasure.org",
          "value": 1.7,
          "unit": "mg/dL",
          "code": "mg/dL"
        },
        "referenceRange": [
          {
            "low": {
              "value": 0,
              "code": "mg/dL",
              "system": "http://unitsofmeasure.org"
            }
          },
          {
            "high": {
              "value": 0.8,
              "code": "mg/dL",
              "system": "http://unitsofmeasure.org"
            }
          }
        ],
        "interpretation": [
          {
            "coding": [
              {
                "code": "H",
                "system": "http://terminology.hl7.org/CodeSystem/v3-ObservationInterpretation",
                "display": "High"
              }
            ]
          }
        ],
        "text": {
          "status": "generated",
          "div": "<div xmlns=\"http://www.w3.org/1999/xhtml\"><table class=\"hl7__eu__lab__report\"><tr><th>Test</th><th>23-Oct-2024</th><th>Reference&#xA0;Range</th><th>Unit</th></tr><tr><td>Glucose [Mass/volume] in Urine by Test strip</td><td>1.7</td><td>0 - 0.8</td><td>H</td><td>mg/dL</td></tr></table></div>"
        },
        "status": "final",
        "subject": {
          "reference": "urn:uuid:f5ffc23c-b56c-45f0-b1f4-c4126ad3b428",
          "display": "Θεμιστοκλής Λιναρδάκη"
        },
        "effectiveDateTime": "2024-10-23T06:16:00Z",
        "specimen": {
          "reference": "urn:uuid:6bde3f83-ca12-4485-a339-31d9f678155f"
        }
      }
    },
    {
      "fullUrl": "urn:uuid:47c12d0e-716a-4b03-ba2c-5b58cbb183bd",
      "resource": {
        "resourceType": "Observation",
        "id": "47c12d0e-716a-4b03-ba2c-5b58cbb183bd",
        "meta": {
          "profile": [
            "http://hl7.eu/fhir/laboratory/StructureDefinition/Observation-resultslab-eu-lab"
          ]
        },
        "performer": [
          {
            "display": "The Central European Lab"
          }
        ],
        "category": [
          {
            "coding": [
              {
                "system": "http://terminology.hl7.org/CodeSystem/observation-category",
                "code": "laboratory"
              }
            ]
          }
        ],
        "code": {
          "coding": [
            {
              "code": "25428-4",
              "system": "http://loinc.org",
              "display": "Glucose [Presence] in Urine by Test strip"
            }
          ],
          "text": "Glucose [Presence] in Urine by Test strip"
        },
        "text": {
          "status": "generated",
          "div": "<div xmlns=\"http://www.w3.org/1999/xhtml\"><table class=\"hl7__eu__lab__report\"><tr><th>Test</th><th>23-Oct-2024</th><th>Reference&#xA0;Range</th><th>Unit</th></tr><tr><td>Glucose [Presence] in Urine by Test strip</td></tr></table></div>"
        },
        "status": "final",
        "subject": {
          "reference": "urn:uuid:f5ffc23c-b56c-45f0-b1f4-c4126ad3b428",
          "display": "Θεμιστοκλής Λιναρδάκη"
        },
        "effectiveDateTime": "2024-10-23T06:16:00Z",
        "specimen": {
          "reference": "urn:uuid:6bde3f83-ca12-4485-a339-31d9f678155f"
        }
      }
    },
    {
      "fullUrl": "urn:uuid:f7a14901-31ba-4df2-8f83-8a4ae766d43d",
      "resource": {
        "resourceType": "Observation",
        "id": "f7a14901-31ba-4df2-8f83-8a4ae766d43d",
        "meta": {
          "profile": [
            "http://hl7.eu/fhir/laboratory/StructureDefinition/Observation-resultslab-eu-lab"
          ]
        },
        "performer": [
          {
            "display": "The Central European Lab"
          }
        ],
        "category": [
          {
            "coding": [
              {
                "system": "http://terminology.hl7.org/CodeSystem/observation-category",
                "code": "laboratory"
              }
            ]
          }
        ],
        "code": {
          "coding": [
            {
              "code": "20505-4",
              "system": "http://loinc.org",
              "display": "Bilirubin.total [Mass/volume] in Urine by Test strip"
            }
          ],
          "text": "Bilirubin.total [Mass/volume] in Urine by Test strip"
        },
        "valueQuantity": {
          "system": "http://unitsofmeasure.org",
          "value": 1.2,
          "unit": "mg/dL",
          "code": "mg/dL"
        },
        "referenceRange": [
          {
            "low": {
              "value": 0.2,
              "code": "mg/dL",
              "system": "http://unitsofmeasure.org"
            }
          },
          {
            "high": {
              "value": 1,
              "code": "mg/dL",
              "system": "http://unitsofmeasure.org"
            }
          }
        ],
        "interpretation": [
          {
            "coding": [
              {
                "code": "H",
                "system": "http://terminology.hl7.org/CodeSystem/v3-ObservationInterpretation",
                "display": "High"
              }
            ]
          }
        ],
        "text": {
          "status": "generated",
          "div": "<div xmlns=\"http://www.w3.org/1999/xhtml\"><table class=\"hl7__eu__lab__report\"><tr><th>Test</th><th>23-Oct-2024</th><th>Reference&#xA0;Range</th><th>Unit</th></tr><tr><td>Bilirubin.total [Mass/volume] in Urine by Test strip</td><td>1.2</td><td>0.2 - 1</td><td>H</td><td>mg/dL</td></tr></table></div>"
        },
        "status": "final",
        "subject": {
          "reference": "urn:uuid:f5ffc23c-b56c-45f0-b1f4-c4126ad3b428",
          "display": "Θεμιστοκλής Λιναρδάκη"
        },
        "effectiveDateTime": "2024-10-23T06:16:00Z",
        "specimen": {
          "reference": "urn:uuid:6bde3f83-ca12-4485-a339-31d9f678155f"
        }
      }
    },
    {
      "fullUrl": "urn:uuid:ee2d3468-f0d2-4b92-b71c-088f2c36cde7",
      "resource": {
        "resourceType": "Observation",
        "id": "ee2d3468-f0d2-4b92-b71c-088f2c36cde7",
        "meta": {
          "profile": [
            "http://hl7.eu/fhir/laboratory/StructureDefinition/Observation-resultslab-eu-lab"
          ]
        },
        "performer": [
          {
            "display": "The Central European Lab"
          }
        ],
        "category": [
          {
            "coding": [
              {
                "system": "http://terminology.hl7.org/CodeSystem/observation-category",
                "code": "laboratory"
              }
            ]
          }
        ],
        "code": {
          "coding": [
            {
              "code": "5770-3",
              "system": "http://loinc.org",
              "display": "Bilirubin.total [Presence] in Urine by Test strip"
            }
          ],
          "text": "Bilirubin.total [Presence] in Urine by Test strip"
        },
        "text": {
          "status": "generated",
          "div": "<div xmlns=\"http://www.w3.org/1999/xhtml\"><table class=\"hl7__eu__lab__report\"><tr><th>Test</th><th>23-Oct-2024</th><th>Reference&#xA0;Range</th><th>Unit</th></tr><tr><td>Bilirubin.total [Presence] in Urine by Test strip</td></tr></table></div>"
        },
        "status": "final",
        "subject": {
          "reference": "urn:uuid:f5ffc23c-b56c-45f0-b1f4-c4126ad3b428",
          "display": "Θεμιστοκλής Λιναρδάκη"
        },
        "effectiveDateTime": "2024-10-23T06:16:00Z",
        "specimen": {
          "reference": "urn:uuid:6bde3f83-ca12-4485-a339-31d9f678155f"
        }
      }
    },
    {
      "fullUrl": "urn:uuid:60ae9160-8167-4dd2-ab25-ac184c241cf0",
      "resource": {
        "resourceType": "Observation",
        "id": "60ae9160-8167-4dd2-ab25-ac184c241cf0",
        "meta": {
          "profile": [
            "http://hl7.eu/fhir/laboratory/StructureDefinition/Observation-resultslab-eu-lab"
          ]
        },
        "performer": [
          {
            "display": "The Central European Lab"
          }
        ],
        "category": [
          {
            "coding": [
              {
                "system": "http://terminology.hl7.org/CodeSystem/observation-category",
                "code": "laboratory"
              }
            ]
          }
        ],
        "code": {
          "coding": [
            {
              "code": "5797-6",
              "system": "http://loinc.org",
              "display": "Ketones [Mass/volume] in Urine by Test strip"
            }
          ],
          "text": "Ketones [Mass/volume] in Urine by Test strip"
        },
        "valueQuantity": {
          "system": "http://unitsofmeasure.org",
          "value": 0.3,
          "unit": "mg/dL",
          "code": "mg/dL"
        },
        "referenceRange": [
          {
            "low": {
              "value": 0,
              "code": "mg/dL",
              "system": "http://unitsofmeasure.org"
            }
          },
          {
            "high": {
              "value": 5,
              "code": "mg/dL",
              "system": "http://unitsofmeasure.org"
            }
          }
        ],
        "text": {
          "status": "generated",
          "div": "<div xmlns=\"http://www.w3.org/1999/xhtml\"><table class=\"hl7__eu__lab__report\"><tr><th>Test</th><th>23-Oct-2024</th><th>Reference&#xA0;Range</th><th>Unit</th></tr><tr><td>Ketones [Mass/volume] in Urine by Test strip</td><td>0.3</td><td>0 - 5</td><td></td><td>mg/dL</td></tr></table></div>"
        },
        "status": "final",
        "subject": {
          "reference": "urn:uuid:f5ffc23c-b56c-45f0-b1f4-c4126ad3b428",
          "display": "Θεμιστοκλής Λιναρδάκη"
        },
        "effectiveDateTime": "2024-10-23T06:16:00Z",
        "specimen": {
          "reference": "urn:uuid:6bde3f83-ca12-4485-a339-31d9f678155f"
        }
      }
    },
    {
      "fullUrl": "urn:uuid:09b33121-d667-4e25-ad74-d3d580ed3eaa",
      "resource": {
        "resourceType": "Observation",
        "id": "09b33121-d667-4e25-ad74-d3d580ed3eaa",
        "meta": {
          "profile": [
            "http://hl7.eu/fhir/laboratory/StructureDefinition/Observation-resultslab-eu-lab"
          ]
        },
        "performer": [
          {
            "display": "The Central European Lab"
          }
        ],
        "category": [
          {
            "coding": [
              {
                "system": "http://terminology.hl7.org/CodeSystem/observation-category",
                "code": "laboratory"
              }
            ]
          }
        ],
        "code": {
          "coding": [
            {
              "code": "2514-8",
              "system": "http://loinc.org",
              "display": "Ketones [Presence] in Urine by Test strip"
            }
          ],
          "text": "Ketones [Presence] in Urine by Test strip"
        },
        "text": {
          "status": "generated",
          "div": "<div xmlns=\"http://www.w3.org/1999/xhtml\"><table class=\"hl7__eu__lab__report\"><tr><th>Test</th><th>23-Oct-2024</th><th>Reference&#xA0;Range</th><th>Unit</th></tr><tr><td>Ketones [Presence] in Urine by Test strip</td></tr></table></div>"
        },
        "status": "final",
        "subject": {
          "reference": "urn:uuid:f5ffc23c-b56c-45f0-b1f4-c4126ad3b428",
          "display": "Θεμιστοκλής Λιναρδάκη"
        },
        "effectiveDateTime": "2024-10-23T06:16:00Z",
        "specimen": {
          "reference": "urn:uuid:6bde3f83-ca12-4485-a339-31d9f678155f"
        }
      }
    },
    {
      "fullUrl": "urn:uuid:c7b43c6a-9b30-4ef2-844f-6cf7d3ebee61",
      "resource": {
        "resourceType": "Observation",
        "id": "c7b43c6a-9b30-4ef2-844f-6cf7d3ebee61",
        "meta": {
          "profile": [
            "http://hl7.eu/fhir/laboratory/StructureDefinition/Observation-resultslab-eu-lab"
          ]
        },
        "performer": [
          {
            "display": "The Central European Lab"
          }
        ],
        "category": [
          {
            "coding": [
              {
                "system": "http://terminology.hl7.org/CodeSystem/observation-category",
                "code": "laboratory"
              }
            ]
          }
        ],
        "code": {
          "coding": [
            {
              "code": "5811-5",
              "system": "http://loinc.org",
              "display": "Specific gravity of Urine by Test strip"
            }
          ],
          "text": "Specific gravity of Urine by Test strip"
        },
        "valueQuantity": {
          "system": "http://unitsofmeasure.org",
          "value": 1,
          "unit": "{nominal}",
          "code": "{nominal}"
        },
        "referenceRange": [
          {
            "low": {
              "value": 1.005,
              "code": "g/mL",
              "system": "http://unitsofmeasure.org"
            }
          },
          {
            "high": {
              "value": 1.03,
              "code": "g/mL",
              "system": "http://unitsofmeasure.org"
            }
          }
        ],
        "interpretation": [
          {
            "coding": [
              {
                "code": "L",
                "system": "http://terminology.hl7.org/CodeSystem/v3-ObservationInterpretation",
                "display": "Low"
              }
            ]
          }
        ],
        "text": {
          "status": "generated",
          "div": "<div xmlns=\"http://www.w3.org/1999/xhtml\"><table class=\"hl7__eu__lab__report\"><tr><th>Test</th><th>23-Oct-2024</th><th>Reference&#xA0;Range</th><th>Unit</th></tr><tr><td>Specific gravity of Urine by Test strip</td><td>1.0</td><td>1.005 - 1.03</td><td>L</td><td>{nominal}</td></tr></table></div>"
        },
        "status": "final",
        "subject": {
          "reference": "urn:uuid:f5ffc23c-b56c-45f0-b1f4-c4126ad3b428",
          "display": "Θεμιστοκλής Λιναρδάκη"
        },
        "effectiveDateTime": "2024-10-23T06:16:00Z",
        "specimen": {
          "reference": "urn:uuid:6bde3f83-ca12-4485-a339-31d9f678155f"
        }
      }
    },
    {
      "fullUrl": "urn:uuid:bc5f5788-22a3-45a2-a4fa-1aa38dbb729f",
      "resource": {
        "resourceType": "Observation",
        "id": "bc5f5788-22a3-45a2-a4fa-1aa38dbb729f",
        "meta": {
          "profile": [
            "http://hl7.eu/fhir/laboratory/StructureDefinition/Observation-resultslab-eu-lab"
          ]
        },
        "performer": [
          {
            "display": "The Central European Lab"
          }
        ],
        "category": [
          {
            "coding": [
              {
                "system": "http://terminology.hl7.org/CodeSystem/observation-category",
                "code": "laboratory"
              }
            ]
          }
        ],
        "code": {
          "coding": [
            {
              "code": "5803-2",
              "system": "http://loinc.org",
              "display": "pH of Urine by Test strip"
            }
          ],
          "text": "pH of Urine by Test strip"
        },
        "valueQuantity": {
          "system": "http://unitsofmeasure.org",
          "value": 6.4,
          "unit": "pH",
          "code": "pH"
        },
        "referenceRange": [
          {
            "low": {
              "value": 4.6,
              "code": "pH",
              "system": "http://unitsofmeasure.org"
            }
          },
          {
            "high": {
              "value": 7,
              "code": "pH",
              "system": "http://unitsofmeasure.org"
            }
          }
        ],
        "text": {
          "status": "generated",
          "div": "<div xmlns=\"http://www.w3.org/1999/xhtml\"><table class=\"hl7__eu__lab__report\"><tr><th>Test</th><th>23-Oct-2024</th><th>Reference&#xA0;Range</th><th>Unit</th></tr><tr><td>pH of Urine by Test strip</td><td>6.4</td><td>4.6 - 7</td><td></td><td>pH</td></tr></table></div>"
        },
        "status": "final",
        "subject": {
          "reference": "urn:uuid:f5ffc23c-b56c-45f0-b1f4-c4126ad3b428",
          "display": "Θεμιστοκλής Λιναρδάκη"
        },
        "effectiveDateTime": "2024-10-23T06:16:00Z",
        "specimen": {
          "reference": "urn:uuid:6bde3f83-ca12-4485-a339-31d9f678155f"
        }
      }
    },
    {
      "fullUrl": "urn:uuid:f4801914-47f2-429b-9539-7d6c597b8e89",
      "resource": {
        "resourceType": "Observation",
        "id": "f4801914-47f2-429b-9539-7d6c597b8e89",
        "meta": {
          "profile": [
            "http://hl7.eu/fhir/laboratory/StructureDefinition/Observation-resultslab-eu-lab"
          ]
        },
        "performer": [
          {
            "display": "The Central European Lab"
          }
        ],
        "category": [
          {
            "coding": [
              {
                "system": "http://terminology.hl7.org/CodeSystem/observation-category",
                "code": "laboratory"
              }
            ]
          }
        ],
        "code": {
          "coding": [
            {
              "code": "5804-0",
              "system": "http://loinc.org",
              "display": "Protein [Mass/volume] in Urine by Test strip"
            }
          ],
          "text": "Protein [Mass/volume] in Urine by Test strip"
        },
        "valueQuantity": {
          "system": "http://unitsofmeasure.org",
          "value": 369.4,
          "unit": "mg/dL",
          "code": "mg/dL"
        },
        "referenceRange": [
          {
            "low": {
              "value": 0,
              "code": "mg/dL",
              "system": "http://unitsofmeasure.org"
            }
          },
          {
            "high": {
              "value": 150,
              "code": "mg/dL",
              "system": "http://unitsofmeasure.org"
            }
          }
        ],
        "interpretation": [
          {
            "coding": [
              {
                "code": "H",
                "system": "http://terminology.hl7.org/CodeSystem/v3-ObservationInterpretation",
                "display": "High"
              }
            ]
          }
        ],
        "text": {
          "status": "generated",
          "div": "<div xmlns=\"http://www.w3.org/1999/xhtml\"><table class=\"hl7__eu__lab__report\"><tr><th>Test</th><th>23-Oct-2024</th><th>Reference&#xA0;Range</th><th>Unit</th></tr><tr><td>Protein [Mass/volume] in Urine by Test strip</td><td>369.4</td><td>0 - 150</td><td>H</td><td>mg/dL</td></tr></table></div>"
        },
        "status": "final",
        "subject": {
          "reference": "urn:uuid:f5ffc23c-b56c-45f0-b1f4-c4126ad3b428",
          "display": "Θεμιστοκλής Λιναρδάκη"
        },
        "effectiveDateTime": "2024-10-23T06:16:00Z",
        "specimen": {
          "reference": "urn:uuid:6bde3f83-ca12-4485-a339-31d9f678155f"
        }
      }
    },
    {
      "fullUrl": "urn:uuid:f27f6f22-85ba-4348-afa1-51f4b4920af9",
      "resource": {
        "resourceType": "Observation",
        "id": "f27f6f22-85ba-4348-afa1-51f4b4920af9",
        "meta": {
          "profile": [
            "http://hl7.eu/fhir/laboratory/StructureDefinition/Observation-resultslab-eu-lab"
          ]
        },
        "performer": [
          {
            "display": "The Central European Lab"
          }
        ],
        "category": [
          {
            "coding": [
              {
                "system": "http://terminology.hl7.org/CodeSystem/observation-category",
                "code": "laboratory"
              }
            ]
          }
        ],
        "code": {
          "coding": [
            {
              "code": "20454-5",
              "system": "http://loinc.org",
              "display": "Protein [Presence] in Urine by Test strip"
            }
          ],
          "text": "Protein [Presence] in Urine by Test strip"
        },
        "text": {
          "status": "generated",
          "div": "<div xmlns=\"http://www.w3.org/1999/xhtml\"><table class=\"hl7__eu__lab__report\"><tr><th>Test</th><th>23-Oct-2024</th><th>Reference&#xA0;Range</th><th>Unit</th></tr><tr><td>Protein [Presence] in Urine by Test strip</td></tr></table></div>"
        },
        "status": "final",
        "subject": {
          "reference": "urn:uuid:f5ffc23c-b56c-45f0-b1f4-c4126ad3b428",
          "display": "Θεμιστοκλής Λιναρδάκη"
        },
        "effectiveDateTime": "2024-10-23T06:16:00Z",
        "specimen": {
          "reference": "urn:uuid:6bde3f83-ca12-4485-a339-31d9f678155f"
        }
      }
    },
    {
      "fullUrl": "urn:uuid:39b16028-6d97-452b-b354-5ad9c3f6b5a7",
      "resource": {
        "resourceType": "Observation",
        "id": "39b16028-6d97-452b-b354-5ad9c3f6b5a7",
        "meta": {
          "profile": [
            "http://hl7.eu/fhir/laboratory/StructureDefinition/Observation-resultslab-eu-lab"
          ]
        },
        "performer": [
          {
            "display": "The Central European Lab"
          }
        ],
        "category": [
          {
            "coding": [
              {
                "system": "http://terminology.hl7.org/CodeSystem/observation-category",
                "code": "laboratory"
              }
            ]
          }
        ],
        "code": {
          "coding": [
            {
              "code": "5802-4",
              "system": "http://loinc.org",
              "display": "Nitrite [Presence] in Urine by Test strip"
            }
          ],
          "text": "Nitrite [Presence] in Urine by Test strip"
        },
        "text": {
          "status": "generated",
          "div": "<div xmlns=\"http://www.w3.org/1999/xhtml\"><table class=\"hl7__eu__lab__report\"><tr><th>Test</th><th>23-Oct-2024</th><th>Reference&#xA0;Range</th><th>Unit</th></tr><tr><td>Nitrite [Presence] in Urine by Test strip</td></tr></table></div>"
        },
        "status": "final",
        "subject": {
          "reference": "urn:uuid:f5ffc23c-b56c-45f0-b1f4-c4126ad3b428",
          "display": "Θεμιστοκλής Λιναρδάκη"
        },
        "effectiveDateTime": "2024-10-23T06:16:00Z",
        "specimen": {
          "reference": "urn:uuid:6bde3f83-ca12-4485-a339-31d9f678155f"
        }
      }
    },
    {
      "fullUrl": "urn:uuid:ad391c30-b1c2-466a-9bfd-326d255b70cd",
      "resource": {
        "resourceType": "Observation",
        "id": "ad391c30-b1c2-466a-9bfd-326d255b70cd",
        "meta": {
          "profile": [
            "http://hl7.eu/fhir/laboratory/StructureDefinition/Observation-resultslab-eu-lab"
          ]
        },
        "performer": [
          {
            "display": "The Central European Lab"
          }
        ],
        "category": [
          {
            "coding": [
              {
                "system": "http://terminology.hl7.org/CodeSystem/observation-category",
                "code": "laboratory"
              }
            ]
          }
        ],
        "code": {
          "coding": [
            {
              "code": "5794-3",
              "system": "http://loinc.org",
              "display": "Hemoglobin [Presence] in Urine by Test strip"
            }
          ],
          "text": "Hemoglobin [Presence] in Urine by Test strip"
        },
        "text": {
          "status": "generated",
          "div": "<div xmlns=\"http://www.w3.org/1999/xhtml\"><table class=\"hl7__eu__lab__report\"><tr><th>Test</th><th>23-Oct-2024</th><th>Reference&#xA0;Range</th><th>Unit</th></tr><tr><td>Hemoglobin [Presence] in Urine by Test strip</td></tr></table></div>"
        },
        "status": "final",
        "subject": {
          "reference": "urn:uuid:f5ffc23c-b56c-45f0-b1f4-c4126ad3b428",
          "display": "Θεμιστοκλής Λιναρδάκη"
        },
        "effectiveDateTime": "2024-10-23T06:16:00Z",
        "specimen": {
          "reference": "urn:uuid:6bde3f83-ca12-4485-a339-31d9f678155f"
        }
      }
    },
    {
      "fullUrl": "urn:uuid:a959ad69-d37d-47e4-9d78-ab314ac5f853",
      "resource": {
        "resourceType": "Observation",
        "id": "a959ad69-d37d-47e4-9d78-ab314ac5f853",
        "meta": {
          "profile": [
            "http://hl7.eu/fhir/laboratory/StructureDefinition/Observation-resultslab-eu-lab"
          ]
        },
        "performer": [
          {
            "display": "The Central European Lab"
          }
        ],
        "category": [
          {
            "coding": [
              {
                "system": "http://terminology.hl7.org/CodeSystem/observation-category",
                "code": "laboratory"
              }
            ]
          }
        ],
        "code": {
          "coding": [
            {
              "code": "5799-2",
              "system": "http://loinc.org",
              "display": "Leukocyte esterase [Presence] in Urine by Test strip"
            }
          ],
          "text": "Leukocyte esterase [Presence] in Urine by Test strip"
        },
        "text": {
          "status": "generated",
          "div": "<div xmlns=\"http://www.w3.org/1999/xhtml\"><table class=\"hl7__eu__lab__report\"><tr><th>Test</th><th>23-Oct-2024</th><th>Reference&#xA0;Range</th><th>Unit</th></tr><tr><td>Leukocyte esterase [Presence] in Urine by Test strip</td></tr></table></div>"
        },
        "status": "final",
        "subject": {
          "reference": "urn:uuid:f5ffc23c-b56c-45f0-b1f4-c4126ad3b428",
          "display": "Θεμιστοκλής Λιναρδάκη"
        },
        "effectiveDateTime": "2024-10-23T06:16:00Z",
        "specimen": {
          "reference": "urn:uuid:6bde3f83-ca12-4485-a339-31d9f678155f"
        }
      }
    },
    {
      "fullUrl": "urn:uuid:e42d87ca-f9da-436c-8e2d-c11ade1a00a1",
      "resource": {
        "resourceType": "Observation",
        "id": "e42d87ca-f9da-436c-8e2d-c11ade1a00a1",
        "meta": {
          "profile": [
            "http://hl7.eu/fhir/laboratory/StructureDefinition/Observation-resultslab-eu-lab"
          ]
        },
        "performer": [
          {
            "display": "The Central European Lab"
          }
        ],
        "category": [
          {
            "coding": [
              {
                "system": "http://terminology.hl7.org/CodeSystem/observation-category",
                "code": "laboratory"
              }
            ]
          }
        ],
        "code": {
          "coding": [
            {
              "code": "4548-4",
              "system": "http://loinc.org",
              "display": "Hemoglobin A1c/Hemoglobin.total in Blood"
            }
          ],
          "text": "Hemoglobin A1c/Hemoglobin.total in Blood"
        },
        "valueQuantity": {
          "system": "http://unitsofmeasure.org",
          "value": 3.3,
          "unit": "%",
          "code": "%"
        },
        "referenceRange": [
          {
            "low": {
              "value": 4.3,
              "code": "%",
              "system": "http://unitsofmeasure.org"
            }
          },
          {
            "high": {
              "value": 6.4,
              "code": "%",
              "system": "http://unitsofmeasure.org"
            }
          }
        ],
        "interpretation": [
          {
            "coding": [
              {
                "code": "L",
                "system": "http://terminology.hl7.org/CodeSystem/v3-ObservationInterpretation",
                "display": "Low"
              }
            ]
          }
        ],
        "text": {
          "status": "generated",
          "div": "<div xmlns=\"http://www.w3.org/1999/xhtml\"><table class=\"hl7__eu__lab__report\"><tr><th>Test</th><th>23-Oct-2024</th><th>Reference&#xA0;Range</th><th>Unit</th></tr><tr><td>Hemoglobin A1c/Hemoglobin.total in Blood</td><td>3.3</td><td>4.3 - 6.4</td><td>L</td><td>%</td></tr></table></div>"
        },
        "status": "final",
        "subject": {
          "reference": "urn:uuid:f5ffc23c-b56c-45f0-b1f4-c4126ad3b428",
          "display": "Θεμιστοκλής Λιναρδάκη"
        },
        "effectiveDateTime": "2024-10-23T06:16:00Z",
        "specimen": {
          "reference": "urn:uuid:5f2e5f86-12a9-4ef9-ad9e-ed2c04f38054"
        }
      }
    },
    {
      "fullUrl": "urn:uuid:6ee6e92a-42ab-4e9c-a3c6-d41bffa3a715",
      "resource": {
        "resourceType": "Observation",
        "id": "6ee6e92a-42ab-4e9c-a3c6-d41bffa3a715",
        "meta": {
          "profile": [
            "http://hl7.eu/fhir/laboratory/StructureDefinition/Observation-resultslab-eu-lab"
          ]
        },
        "performer": [
          {
            "display": "The Central European Lab"
          }
        ],
        "category": [
          {
            "coding": [
              {
                "system": "http://terminology.hl7.org/CodeSystem/observation-category",
                "code": "laboratory"
              }
            ]
          }
        ],
        "code": {
          "coding": [
            {
              "code": "2339-0",
              "system": "http://loinc.org",
              "display": "Glucose [Mass/volume] in Blood"
            }
          ],
          "text": "Glucose [Mass/volume] in Blood"
        },
        "valueQuantity": {
          "system": "http://unitsofmeasure.org",
          "value": 73.9,
          "unit": "mg/dL",
          "code": "mg/dL"
        },
        "referenceRange": [
          {
            "low": {
              "value": 70,
              "code": "mg/dL",
              "system": "http://unitsofmeasure.org"
            }
          },
          {
            "high": {
              "value": 140,
              "code": "mg/dL",
              "system": "http://unitsofmeasure.org"
            }
          }
        ],
        "text": {
          "status": "generated",
          "div": "<div xmlns=\"http://www.w3.org/1999/xhtml\"><table class=\"hl7__eu__lab__report\"><tr><th>Test</th><th>23-Oct-2024</th><th>Reference&#xA0;Range</th><th>Unit</th></tr><tr><td>Glucose [Mass/volume] in Blood</td><td>73.9</td><td>70 - 140</td><td></td><td>mg/dL</td></tr></table></div>"
        },
        "status": "final",
        "subject": {
          "reference": "urn:uuid:f5ffc23c-b56c-45f0-b1f4-c4126ad3b428",
          "display": "Θεμιστοκλής Λιναρδάκη"
        },
        "effectiveDateTime": "2024-10-23T06:16:00Z",
        "specimen": {
          "reference": "urn:uuid:5f2e5f86-12a9-4ef9-ad9e-ed2c04f38054"
        }
      }
    },
    {
      "fullUrl": "urn:uuid:66f65237-8e43-40a4-8a6e-a49fc806a759",
      "resource": {
        "resourceType": "Observation",
        "id": "66f65237-8e43-40a4-8a6e-a49fc806a759",
        "meta": {
          "profile": [
            "http://hl7.eu/fhir/laboratory/StructureDefinition/Observation-resultslab-eu-lab"
          ]
        },
        "performer": [
          {
            "display": "The Central European Lab"
          }
        ],
        "category": [
          {
            "coding": [
              {
                "system": "http://terminology.hl7.org/CodeSystem/observation-category",
                "code": "laboratory"
              }
            ]
          }
        ],
        "code": {
          "coding": [
            {
              "code": "6299-2",
              "system": "http://loinc.org",
              "display": "Urea nitrogen [Mass/volume] in Blood"
            }
          ],
          "text": "Urea nitrogen [Mass/volume] in Blood"
        },
        "valueQuantity": {
          "system": "http://unitsofmeasure.org",
          "value": 7.8,
          "unit": "mg/dL",
          "code": "mg/dL"
        },
        "referenceRange": [
          {
            "low": {
              "value": 7,
              "code": "mg/dL",
              "system": "http://unitsofmeasure.org"
            }
          },
          {
            "high": {
              "value": 20,
              "code": "mg/dL",
              "system": "http://unitsofmeasure.org"
            }
          }
        ],
        "text": {
          "status": "generated",
          "div": "<div xmlns=\"http://www.w3.org/1999/xhtml\"><table class=\"hl7__eu__lab__report\"><tr><th>Test</th><th>23-Oct-2024</th><th>Reference&#xA0;Range</th><th>Unit</th></tr><tr><td>Urea nitrogen [Mass/volume] in Blood</td><td>7.8</td><td>7 - 20</td><td></td><td>mg/dL</td></tr></table></div>"
        },
        "status": "final",
        "subject": {
          "reference": "urn:uuid:f5ffc23c-b56c-45f0-b1f4-c4126ad3b428",
          "display": "Θεμιστοκλής Λιναρδάκη"
        },
        "effectiveDateTime": "2024-10-23T06:16:00Z",
        "specimen": {
          "reference": "urn:uuid:5f2e5f86-12a9-4ef9-ad9e-ed2c04f38054"
        }
      }
    },
    {
      "fullUrl": "urn:uuid:e6b388e0-1134-465d-a6cf-6a480348e9e0",
      "resource": {
        "resourceType": "Observation",
        "id": "e6b388e0-1134-465d-a6cf-6a480348e9e0",
        "meta": {
          "profile": [
            "http://hl7.eu/fhir/laboratory/StructureDefinition/Observation-resultslab-eu-lab"
          ]
        },
        "performer": [
          {
            "display": "The Central European Lab"
          }
        ],
        "category": [
          {
            "coding": [
              {
                "system": "http://terminology.hl7.org/CodeSystem/observation-category",
                "code": "laboratory"
              }
            ]
          }
        ],
        "code": {
          "coding": [
            {
              "code": "38483-4",
              "system": "http://loinc.org",
              "display": "Creatinine [Mass/volume] in Blood"
            }
          ],
          "text": "Creatinine [Mass/volume] in Blood"
        },
        "valueQuantity": {
          "system": "http://unitsofmeasure.org",
          "value": 6,
          "unit": "mg/dL",
          "code": "mg/dL"
        },
        "referenceRange": [
          {
            "low": {
              "value": 0.6,
              "code": "mg/dL",
              "system": "http://unitsofmeasure.org"
            }
          },
          {
            "high": {
              "value": 1.3,
              "code": "mg/dL",
              "system": "http://unitsofmeasure.org"
            }
          }
        ],
        "interpretation": [
          {
            "coding": [
              {
                "code": "H",
                "system": "http://terminology.hl7.org/CodeSystem/v3-ObservationInterpretation",
                "display": "High"
              }
            ]
          }
        ],
        "text": {
          "status": "generated",
          "div": "<div xmlns=\"http://www.w3.org/1999/xhtml\"><table class=\"hl7__eu__lab__report\"><tr><th>Test</th><th>23-Oct-2024</th><th>Reference&#xA0;Range</th><th>Unit</th></tr><tr><td>Creatinine [Mass/volume] in Blood</td><td>6.0</td><td>0.6 - 1.3</td><td>H</td><td>mg/dL</td></tr></table></div>"
        },
        "status": "final",
        "subject": {
          "reference": "urn:uuid:f5ffc23c-b56c-45f0-b1f4-c4126ad3b428",
          "display": "Θεμιστοκλής Λιναρδάκη"
        },
        "effectiveDateTime": "2024-10-23T06:16:00Z",
        "specimen": {
          "reference": "urn:uuid:5f2e5f86-12a9-4ef9-ad9e-ed2c04f38054"
        }
      }
    },
    {
      "fullUrl": "urn:uuid:830e8e5b-7ac4-4bd7-8dae-ce87e2fc9bc0",
      "resource": {
        "resourceType": "Observation",
        "id": "830e8e5b-7ac4-4bd7-8dae-ce87e2fc9bc0",
        "meta": {
          "profile": [
            "http://hl7.eu/fhir/laboratory/StructureDefinition/Observation-resultslab-eu-lab"
          ]
        },
        "performer": [
          {
            "display": "The Central European Lab"
          }
        ],
        "category": [
          {
            "coding": [
              {
                "system": "http://terminology.hl7.org/CodeSystem/observation-category",
                "code": "laboratory"
              }
            ]
          }
        ],
        "code": {
          "coding": [
            {
              "code": "49765-1",
              "system": "http://loinc.org",
              "display": "Calcium [Mass/volume] in Blood"
            }
          ],
          "text": "Calcium [Mass/volume] in Blood"
        },
        "valueQuantity": {
          "system": "http://unitsofmeasure.org",
          "value": 8.5,
          "unit": "mg/dL",
          "code": "mg/dL"
        },
        "referenceRange": [
          {
            "low": {
              "value": 8.5,
              "code": "mg/dL",
              "system": "http://unitsofmeasure.org"
            }
          },
          {
            "high": {
              "value": 10.5,
              "code": "mg/dL",
              "system": "http://unitsofmeasure.org"
            }
          }
        ],
        "text": {
          "status": "generated",
          "div": "<div xmlns=\"http://www.w3.org/1999/xhtml\"><table class=\"hl7__eu__lab__report\"><tr><th>Test</th><th>23-Oct-2024</th><th>Reference&#xA0;Range</th><th>Unit</th></tr><tr><td>Calcium [Mass/volume] in Blood</td><td>8.5</td><td>8.5 - 10.5</td><td></td><td>mg/dL</td></tr></table></div>"
        },
        "status": "final",
        "subject": {
          "reference": "urn:uuid:f5ffc23c-b56c-45f0-b1f4-c4126ad3b428",
          "display": "Θεμιστοκλής Λιναρδάκη"
        },
        "effectiveDateTime": "2024-10-23T06:16:00Z",
        "specimen": {
          "reference": "urn:uuid:5f2e5f86-12a9-4ef9-ad9e-ed2c04f38054"
        }
      }
    },
    {
      "fullUrl": "urn:uuid:c2189d91-b79a-445d-9024-8eda5e5e8cb9",
      "resource": {
        "resourceType": "Observation",
        "id": "c2189d91-b79a-445d-9024-8eda5e5e8cb9",
        "meta": {
          "profile": [
            "http://hl7.eu/fhir/laboratory/StructureDefinition/Observation-resultslab-eu-lab"
          ]
        },
        "performer": [
          {
            "display": "The Central European Lab"
          }
        ],
        "category": [
          {
            "coding": [
              {
                "system": "http://terminology.hl7.org/CodeSystem/observation-category",
                "code": "laboratory"
              }
            ]
          }
        ],
        "code": {
          "coding": [
            {
              "code": "2947-0",
              "system": "http://loinc.org",
              "display": "Sodium [Moles/volume] in Blood"
            }
          ],
          "text": "Sodium [Moles/volume] in Blood"
        },
        "valueQuantity": {
          "system": "http://unitsofmeasure.org",
          "value": 139.9,
          "unit": "mmol/L",
          "code": "mmol/L"
        },
        "referenceRange": [
          {
            "low": {
              "value": 135,
              "code": "mmol/L",
              "system": "http://unitsofmeasure.org"
            }
          },
          {
            "high": {
              "value": 145,
              "code": "mmol/L",
              "system": "http://unitsofmeasure.org"
            }
          }
        ],
        "text": {
          "status": "generated",
          "div": "<div xmlns=\"http://www.w3.org/1999/xhtml\"><table class=\"hl7__eu__lab__report\"><tr><th>Test</th><th>23-Oct-2024</th><th>Reference&#xA0;Range</th><th>Unit</th></tr><tr><td>Sodium [Moles/volume] in Blood</td><td>139.9</td><td>135 - 145</td><td></td><td>mmol/L</td></tr></table></div>"
        },
        "status": "final",
        "subject": {
          "reference": "urn:uuid:f5ffc23c-b56c-45f0-b1f4-c4126ad3b428",
          "display": "Θεμιστοκλής Λιναρδάκη"
        },
        "effectiveDateTime": "2024-10-23T06:16:00Z",
        "specimen": {
          "reference": "urn:uuid:5f2e5f86-12a9-4ef9-ad9e-ed2c04f38054"
        }
      }
    },
    {
      "fullUrl": "urn:uuid:6e9144fa-d226-46fc-a482-32b71f59318f",
      "resource": {
        "resourceType": "Observation",
        "id": "6e9144fa-d226-46fc-a482-32b71f59318f",
        "meta": {
          "profile": [
            "http://hl7.eu/fhir/laboratory/StructureDefinition/Observation-resultslab-eu-lab"
          ]
        },
        "performer": [
          {
            "display": "The Central European Lab"
          }
        ],
        "category": [
          {
            "coding": [
              {
                "system": "http://terminology.hl7.org/CodeSystem/observation-category",
                "code": "laboratory"
              }
            ]
          }
        ],
        "code": {
          "coding": [
            {
              "code": "6298-4",
              "system": "http://loinc.org",
              "display": "Potassium [Moles/volume] in Blood"
            }
          ],
          "text": "Potassium [Moles/volume] in Blood"
        },
        "valueQuantity": {
          "system": "http://unitsofmeasure.org",
          "value": 4.5,
          "unit": "mmol/L",
          "code": "mmol/L"
        },
        "referenceRange": [
          {
            "low": {
              "value": 3.5,
              "code": "mmol/L",
              "system": "http://unitsofmeasure.org"
            }
          },
          {
            "high": {
              "value": 5.3,
              "code": "mmol/L",
              "system": "http://unitsofmeasure.org"
            }
          }
        ],
        "text": {
          "status": "generated",
          "div": "<div xmlns=\"http://www.w3.org/1999/xhtml\"><table class=\"hl7__eu__lab__report\"><tr><th>Test</th><th>23-Oct-2024</th><th>Reference&#xA0;Range</th><th>Unit</th></tr><tr><td>Potassium [Moles/volume] in Blood</td><td>4.5</td><td>3.5 - 5.3</td><td></td><td>mmol/L</td></tr></table></div>"
        },
        "status": "final",
        "subject": {
          "reference": "urn:uuid:f5ffc23c-b56c-45f0-b1f4-c4126ad3b428",
          "display": "Θεμιστοκλής Λιναρδάκη"
        },
        "effectiveDateTime": "2024-10-23T06:16:00Z",
        "specimen": {
          "reference": "urn:uuid:5f2e5f86-12a9-4ef9-ad9e-ed2c04f38054"
        }
      }
    },
    {
      "fullUrl": "urn:uuid:2eee84b4-8ded-4f9f-8f47-a04961d1abb3",
      "resource": {
        "resourceType": "Observation",
        "id": "2eee84b4-8ded-4f9f-8f47-a04961d1abb3",
        "meta": {
          "profile": [
            "http://hl7.eu/fhir/laboratory/StructureDefinition/Observation-resultslab-eu-lab"
          ]
        },
        "performer": [
          {
            "display": "The Central European Lab"
          }
        ],
        "category": [
          {
            "coding": [
              {
                "system": "http://terminology.hl7.org/CodeSystem/observation-category",
                "code": "laboratory"
              }
            ]
          }
        ],
        "code": {
          "coding": [
            {
              "code": "2069-3",
              "system": "http://loinc.org",
              "display": "Chloride [Moles/volume] in Blood"
            }
          ],
          "text": "Chloride [Moles/volume] in Blood"
        },
        "valueQuantity": {
          "system": "http://unitsofmeasure.org",
          "value": 110.1,
          "unit": "mmol/L",
          "code": "mmol/L"
        },
        "referenceRange": [
          {
            "low": {
              "value": 98,
              "code": "mmol/L",
              "system": "http://unitsofmeasure.org"
            }
          },
          {
            "high": {
              "value": 110,
              "code": "mmol/L",
              "system": "http://unitsofmeasure.org"
            }
          }
        ],
        "interpretation": [
          {
            "coding": [
              {
                "code": "H",
                "system": "http://terminology.hl7.org/CodeSystem/v3-ObservationInterpretation",
                "display": "High"
              }
            ]
          }
        ],
        "text": {
          "status": "generated",
          "div": "<div xmlns=\"http://www.w3.org/1999/xhtml\"><table class=\"hl7__eu__lab__report\"><tr><th>Test</th><th>23-Oct-2024</th><th>Reference&#xA0;Range</th><th>Unit</th></tr><tr><td>Chloride [Moles/volume] in Blood</td><td>110.1</td><td>98 - 110</td><td>H</td><td>mmol/L</td></tr></table></div>"
        },
        "status": "final",
        "subject": {
          "reference": "urn:uuid:f5ffc23c-b56c-45f0-b1f4-c4126ad3b428",
          "display": "Θεμιστοκλής Λιναρδάκη"
        },
        "effectiveDateTime": "2024-10-23T06:16:00Z",
        "specimen": {
          "reference": "urn:uuid:5f2e5f86-12a9-4ef9-ad9e-ed2c04f38054"
        }
      }
    },
    {
      "fullUrl": "urn:uuid:5c7efca8-3781-42e8-8533-924485b384e6",
      "resource": {
        "resourceType": "Observation",
        "id": "5c7efca8-3781-42e8-8533-924485b384e6",
        "meta": {
          "profile": [
            "http://hl7.eu/fhir/laboratory/StructureDefinition/Observation-resultslab-eu-lab"
          ]
        },
        "performer": [
          {
            "display": "The Central European Lab"
          }
        ],
        "category": [
          {
            "coding": [
              {
                "system": "http://terminology.hl7.org/CodeSystem/observation-category",
                "code": "laboratory"
              }
            ]
          }
        ],
        "code": {
          "coding": [
            {
              "code": "20565-8",
              "system": "http://loinc.org",
              "display": "Carbon dioxide, total [Moles/volume] in Blood"
            }
          ],
          "text": "Carbon dioxide, total [Moles/volume] in Blood"
        },
        "valueQuantity": {
          "system": "http://unitsofmeasure.org",
          "value": 21.9,
          "unit": "mmol/L",
          "code": "mmol/L"
        },
        "referenceRange": [
          {
            "low": {
              "value": 22,
              "code": "mmol/L",
              "system": "http://unitsofmeasure.org"
            }
          },
          {
            "high": {
              "value": 29,
              "code": "mmol/L",
              "system": "http://unitsofmeasure.org"
            }
          }
        ],
        "interpretation": [
          {
            "coding": [
              {
                "code": "L",
                "system": "http://terminology.hl7.org/CodeSystem/v3-ObservationInterpretation",
                "display": "Low"
              }
            ]
          }
        ],
        "text": {
          "status": "generated",
          "div": "<div xmlns=\"http://www.w3.org/1999/xhtml\"><table class=\"hl7__eu__lab__report\"><tr><th>Test</th><th>23-Oct-2024</th><th>Reference&#xA0;Range</th><th>Unit</th></tr><tr><td>Carbon dioxide, total [Moles/volume] in Blood</td><td>21.9</td><td>22 - 29</td><td>L</td><td>mmol/L</td></tr></table></div>"
        },
        "status": "final",
        "subject": {
          "reference": "urn:uuid:f5ffc23c-b56c-45f0-b1f4-c4126ad3b428",
          "display": "Θεμιστοκλής Λιναρδάκη"
        },
        "effectiveDateTime": "2024-10-23T06:16:00Z",
        "specimen": {
          "reference": "urn:uuid:5f2e5f86-12a9-4ef9-ad9e-ed2c04f38054"
        }
      }
    },
    {
      "fullUrl": "urn:uuid:19dd1795-db5b-4f13-85fd-c7df67d7a69f",
      "resource": {
        "resourceType": "Device",
        "id": "19dd1795-db5b-4f13-85fd-c7df67d7a69f",
        "deviceName": [
          {
            "name": "SYNDERAI Synthetic Generator",
            "type": "manufacturer-name"
          }
        ],
        "version": [
          {
            "value": "5.0"
          }
        ],
        "text": {
          "status": "generated",
          "div": "<div xmlns=\"http://www.w3.org/1999/xhtml\">SYNDERAI Synthetic Generator v5.0</div>"
        },
        "status": "active\"",
        "distinctIdentifier": "synderai-generator-50",
        "manufacturer": "SYNDERAI Project"
      }
    },
    {
      "fullUrl": "urn:uuid:70bb9866-c962-4ed8-af2e-b5e265e5698d",
      "resource": {
        "resourceType": "Provenance",
        "id": "70bb9866-c962-4ed8-af2e-b5e265e5698d",
        "target": [
          {
            "reference": "Patient/f5ffc23c-b56c-45f0-b1f4-c4126ad3b428"
          },
          {
            "reference": "Bundle/40120a11-f34f-400b-82e2-66203389178a"
          },
          {
            "reference": "Composition/bb118bf4-2f6c-4409-bd87-e9d8c1057f6a"
          },
          {
            "reference": "PractitionerRole/a01c284a-9d26-47da-a7af-c9f88a6e16a2"
          },
          {
            "reference": "Practitioner/42d622ca-6271-4c12-b2c1-6716201294b9"
          },
          {
            "reference": "PractitionerRole/667459b3-f612-4a0c-b2ba-9b98460cadec"
          },
          {
            "reference": "Organization/ccc54ca6-c6a5-47ea-9ae7-7d2d50e4641f"
          }
        ],
        "activity": {
          "text": "Synthetic Example Data Generation"
        },
        "policy": [
          "https://synderai.net/synderai-synthetic-data-policy"
        ],
        "agent": [
          {
            "type": {
              "text": "author"
            },
            "who": {
              "reference": "Device/19dd1795-db5b-4f13-85fd-c7df67d7a69f"
            }
          }
        ],
        "reason": [
          {
            "text": "Interoperability Testing and Training (non-clinical use)"
          }
        ],
        "text": {
          "status": "generated",
          "div": "<div xmlns=\"http://www.w3.org/1999/xhtml\">Provenance for SYNDERAI Synthetic Example Data Resource</div>"
        },
        "recorded": "2024-10-23T08:16:00Z"
      }
    },
    {
      "fullUrl": "urn:uuid:a01c284a-9d26-47da-a7af-c9f88a6e16a2",
      "resource": {
        "resourceType": "PractitionerRole",
        "id": "a01c284a-9d26-47da-a7af-c9f88a6e16a2",
        "meta": {
          "profile": [
            "http://hl7.eu/fhir/base/StructureDefinition/practitionerRole-eu"
          ]
        },
        "text": {
          "status": "generated",
          "div": "<div xmlns=\"http://www.w3.org/1999/xhtml\">Laboratory Role Id: a01c284a-9d26-47da-a7af-c9f88a6e16a2</div>"
        },
        "practitioner": {
          "reference": "urn:uuid:42d622ca-6271-4c12-b2c1-6716201294b9"
        }
      }
    },
    {
      "fullUrl": "urn:uuid:42d622ca-6271-4c12-b2c1-6716201294b9",
      "resource": {
        "resourceType": "Practitioner",
        "id": "42d622ca-6271-4c12-b2c1-6716201294b9",
        "meta": {
          "profile": [
            "http://hl7.eu/fhir/base/StructureDefinition/practitioner-eu"
          ]
        },
        "identifier": [
          {
            "assigner": {
              "display": "HL7 Europe"
            },
            "system": "urn:oid:2.16.840.1.113883.2.51.999",
            "value": "88a8fecc-c824-44d9-b95d-930141473389"
          }
        ],
        "name": [
          {
            "prefix": [
              "dr"
            ],
            "given": [
              "Ex"
            ],
            "family": "Ample"
          }
        ],
        "address": [
          {
            "line": [
              "Laboratoire Central Européenne",
              "Boulevard du Jardin Botanique 32"
            ],
            "postalCode": "1000",
            "city": "Brussels",
            "country": "Belgium"
          }
        ],
        "text": {
          "status": "generated",
          "div": "<div xmlns=\"http://www.w3.org/1999/xhtml\">Laboratory: Laboratoire Central Européenne, 1000 Brussels, Belgium</div>"
        }
      }
    }
  ],
  "type": "document",
  "timestamp": "2024-10-23T08:16:00Z"
}
