<Bundle xmlns="http://hl7.org/fhir">
   <id value="565a413f-f90d-48d4-8ae9-8d8c1ff500e6"/>
   <meta>
      <profile value="http://hl7.eu/fhir/laboratory/StructureDefinition/Bundle-eu-lab"/>
   </meta>
   <identifier>
      <system value="urn:oid:2.16.840.1.113883.2.51.999"/>
      <value value="bb96254f-4778-4302-9310-867795925fb6"/>
      <assigner>
         <display value="HL7 Europe"/>
      </assigner>
   </identifier>
   <type value="document"/>
   <timestamp value="2016-11-08T09:40:59Z"/>
   <entry>
      <fullUrl value="urn:uuid:61c3ddd4-7a54-4652-a939-1b9076852af8"/>
      <resource>
         <Composition>
            <id value="61c3ddd4-7a54-4652-a939-1b9076852af8"/>
            <meta>
               <profile value="http://hl7.eu/fhir/laboratory/StructureDefinition/Composition-eu-lab"/>
            </meta>
            <identifier>
               <system value="urn:oid:2.16.840.1.113883.2.51.999"/>
               <value value="bd343b20-dabc-4007-b4b4-7ab8e0e1d6b9"/>
               <assigner>
                  <display value="HL7 Europe"/>
               </assigner>
            </identifier>
            <status value="final"/>
            <type>
               <coding>
                  <system value="http://loinc.org"/>
                  <code value="11502-2"/>
                  <display value="Laboratory report"/>
               </coding>
               <text value="Laboratory Report"/>
            </type>
            <category>
               <coding>
                  <system value="http://loinc.org"/>
                  <code value="26436-6"/>
                  <display value="Laboratory studies (set)"/>
               </coding>
            </category>
            <subject>
               <reference value="urn:uuid:e8192b89-58b1-4e68-ab4d-d42e2f3c351c"/>
               <display value="Ludmila Vávrová"/>
            </subject>
            <date value="2016-11-08T09:40:59Z"/>
            <author>
               <reference value="urn:uuid:29f885c7-efb7-498c-a96b-a735975a94de"/>
            </author>
            <title value="Laboratory Report"/>
            <confidentiality value="N"/>
            <section>
               <title value="Laboratory Report"/>
               <code>
                  <coding>
                     <system value="http://loinc.org"/>
                     <code value="26436-6"/>
                     <display value="Laboratory studies (set)"/>
                  </coding>
                  <text value="Laboratory studies"/>
               </code>
               <section>
                  <title value="Chemistry"/>
                  <code>
                     <coding>
                        <system value="http://loinc.org"/>
                        <code value="$18719-5"/>
                        <display value="Chemistry studies (set)"/>
                     </coding>
                     <text value="Chemistry"/>
                  </code>
                  <text>
                     <status value="generated"/>
                     <div xmlns="http://www.w3.org/1999/xhtml">
                        <h3>Chemistry</h3>
                        <table class="hl7__eu__lab__report">
                           <thead>
                              <tr>
                                 <th>Test</th>
                                 <th>08-NOV-2016</th>
                                 <th>Reference Range</th>
                                 <th>Unit</th>
                              </tr>
                           </thead>
                           <tbody>
                              <tr>
                                 <td>pH of Arterial blood</td>
                                 <td>
                                    <strong>7.2 L</strong>
                                 </td>
                                 <td>7.35 - 7.45</td>
                                 <td>[pH]</td>
                              </tr>
                              <tr>
                                 <td>Carbon dioxide [Partial pressure] in Arterial blood</td>
                                 <td>36.3</td>
                                 <td>35 - 45</td>
                                 <td>mm[Hg]</td>
                              </tr>
                              <tr>
                                 <td>Oxygen [Partial pressure] in Arterial blood</td>
                                 <td>95.3</td>
                                 <td>75 - 100</td>
                                 <td>mm[Hg]</td>
                              </tr>
                              <tr>
                                 <td>Bicarbonate [Moles/volume] in Arterial blood</td>
                                 <td>24.2</td>
                                 <td>22 - 32</td>
                                 <td>mmol/L</td>
                              </tr>
                              <tr>
                                 <td>Oxygen saturation in Arterial blood</td>
                                 <td>
                                    <strong>91.0 L</strong>
                                 </td>
                                 <td>95 - 100</td>
                                 <td>%</td>
                              </tr>
                              <tr>
                                 <td>pH of Venous blood</td>
                                 <td>7.4</td>
                                 <td>7.35 - 7.45</td>
                                 <td>[pH]</td>
                              </tr>
                              <tr>
                                 <td>Carbon dioxide [Partial pressure] in Venous blood</td>
                                 <td>
                                    <strong>49.1 H</strong>
                                 </td>
                                 <td>42 - 48</td>
                                 <td>mm[Hg]</td>
                              </tr>
                              <tr>
                                 <td>Oxygen [Partial pressure] in Venous blood</td>
                                 <td>45.9</td>
                                 <td>35 - 85</td>
                                 <td>mm[Hg]</td>
                              </tr>
                              <tr>
                                 <td>Bicarbonate [Moles/volume] in Venous blood</td>
                                 <td>26.0</td>
                                 <td>22 - 31</td>
                                 <td>mmol/L</td>
                              </tr>
                              <tr>
                                 <td>Carbon dioxide, total [Moles/volume] in Venous blood</td>
                                 <td>0.9</td>
                                 <td>0.8 - 1.3</td>
                                 <td>mmol/L</td>
                              </tr>
                              <tr>
                                 <td>Magnesium [Mass/volume] in Serum or Plasma</td>
                                 <td>2.3</td>
                                 <td>1.8 - 2.3</td>
                                 <td>mg/dL</td>
                              </tr>
                           </tbody>
                        </table>
                     </div>
                  </text>
                  <entry>
                     <reference value="urn:uuid:a02b03e4-8202-489a-9efa-847835e92d64"/>
                  </entry>
                  <entry>
                     <reference value="urn:uuid:be9a53fc-d759-4bd5-bdf4-992ecee54a40"/>
                  </entry>
                  <entry>
                     <reference value="urn:uuid:00c37850-7559-4c4e-98f6-f4b0eecd0bf1"/>
                  </entry>
                  <entry>
                     <reference value="urn:uuid:7f939575-5a3c-438b-8ab6-8cc859d4d86d"/>
                  </entry>
                  <entry>
                     <reference value="urn:uuid:6ebe66b9-308f-4cfe-b3ab-244707c92c97"/>
                  </entry>
                  <entry>
                     <reference value="urn:uuid:1c4f5750-d6a5-4c56-9e0a-f63dbcf50fa4"/>
                  </entry>
                  <entry>
                     <reference value="urn:uuid:68e3586a-be88-4285-b2ca-18efd1a27eab"/>
                  </entry>
                  <entry>
                     <reference value="urn:uuid:c0b26845-8942-4205-a974-937c5d8f8a66"/>
                  </entry>
                  <entry>
                     <reference value="urn:uuid:b48fdf61-ee70-47fe-9df1-25ad2376c00a"/>
                  </entry>
                  <entry>
                     <reference value="urn:uuid:4fa508ec-e0dc-47fc-970c-8cce8cc30378"/>
                  </entry>
                  <entry>
                     <reference value="urn:uuid:f0e665cb-36e1-4b70-bc14-70b08ed0b969"/>
                  </entry>
               </section>
               <section>
                  <title value="Coagulation"/>
                  <code>
                     <coding>
                        <system value="http://loinc.org"/>
                        <code value="$18720-3"/>
                        <display value="Coagulation studies (set)"/>
                     </coding>
                     <text value="Coagulation"/>
                  </code>
                  <text>
                     <status value="generated"/>
                     <div xmlns="http://www.w3.org/1999/xhtml">
                        <h3>Coagulation</h3>
                        <table class="hl7__eu__lab__report">
                           <thead>
                              <tr>
                                 <th>Test</th>
                                 <th>08-NOV-2016</th>
                                 <th>Reference Range</th>
                                 <th>Unit</th>
                              </tr>
                           </thead>
                           <tbody>
                              <tr>
                                 <td>Activated clotting time (ACT) of Blood by Coagulation assay</td>
                                 <td>
                                    <strong>116.5 L</strong>
                                 </td>
                                 <td>120 - 180</td>
                                 <td>s</td>
                              </tr>
                           </tbody>
                        </table>
                     </div>
                  </text>
                  <entry>
                     <reference value="urn:uuid:1ee03e6a-2a10-4f60-a569-f6ecaa4171b5"/>
                  </entry>
               </section>
            </section>
            <section>
               <title value="Annotation comment"/>
               <code>
                  <coding>
                     <system value="http://loinc.org"/>
                     <code value="48767-8"/>
                     <display value="Annotation comment"/>
                  </coding>
               </code>
               <text>
                  <status value="generated"/>
                  <div xmlns="http://www.w3.org/1999/xhtml">
                     <h3>Annotation</h3>
                     <table class="hl7__eu__lab__report">
                        <tr>
                           <th>Conclusion and Recommendations based on this report and previous findings known to us</th>
                        </tr>
                        <tr>
                           <td>The results indicate mild arterial acidemia (low arterial pH) with low oxygen saturation, suggesting possible respiratory compromise or hypoxemia. Venous pCO₂ is slightly elevated, which may reflect hypoventilation or impaired gas exchange. Activated clotting time is mildly decreased. Other parameters are within normal limits. Clinical correlation and further evaluation of respiratory and coagulation status are recommended.</td>
                        </tr>
                     </table>
                  </div>
               </text>
            </section>
         </Composition>
      </resource>
   </entry>
   <entry>
      <fullUrl value="urn:uuid:22679e3d-40fa-481f-8a31-98a2557c1056"/>
      <resource>
         <DiagnosticReport>
            <id value="22679e3d-40fa-481f-8a31-98a2557c1056"/>
            <meta>
               <profile value="http://hl7.eu/fhir/laboratory/StructureDefinition/DiagnosticReport-eu-lab"/>
            </meta>
            <extension url="http://hl7.org/fhir/5.0/StructureDefinition/extension-DiagnosticReport.composition">
               <valueReference>
                  <reference value="urn:uuid:bd343b20-dabc-4007-b4b4-7ab8e0e1d6b9"/>
               </valueReference>
            </extension>
            <identifier>
               <system value="urn:oid:2.16.840.1.113883.2.51.999"/>
               <value value="bb74a01c-398c-4ab5-b069-d548490ba36d"/>
               <assigner>
                  <display value="HL7 Europe"/>
               </assigner>
            </identifier>
            <status value="registered"/>
            <category>
               <coding>
                  <system value="http://loinc.org"/>
                  <code value="26436-6"/>
                  <display value="Laboratory studies (set)"/>
               </coding>
            </category>
            <code>
               <coding>
                  <system value="http://loinc.org"/>
                  <code value="11502-2"/>
                  <display value="Laboratory report"/>
               </coding>
            </code>
            <subject>
               <reference value="urn:uuid:e8192b89-58b1-4e68-ab4d-d42e2f3c351c"/>
               <display value="Ludmila Vávrová"/>
            </subject>
            <specimen>
               <reference value="urn:uuid:0046ac8a-6d7d-4653-aab4-c9684f2ab58c"/>
            </specimen>
            <specimen>
               <reference value="urn:uuid:1059c57c-efc3-4144-bb10-a5a2ed20d759"/>
            </specimen>
            <specimen>
               <reference value="urn:uuid:f23b19ee-e206-4011-8af2-616e7e46b998"/>
            </specimen>
            <specimen>
               <reference value="urn:uuid:69a0c0c2-9da2-4351-92d7-809da7af1766"/>
            </specimen>
            <result>
               <reference value="urn:uuid:1ee03e6a-2a10-4f60-a569-f6ecaa4171b5"/>
            </result>
            <result>
               <reference value="urn:uuid:a02b03e4-8202-489a-9efa-847835e92d64"/>
            </result>
            <result>
               <reference value="urn:uuid:be9a53fc-d759-4bd5-bdf4-992ecee54a40"/>
            </result>
            <result>
               <reference value="urn:uuid:00c37850-7559-4c4e-98f6-f4b0eecd0bf1"/>
            </result>
            <result>
               <reference value="urn:uuid:7f939575-5a3c-438b-8ab6-8cc859d4d86d"/>
            </result>
            <result>
               <reference value="urn:uuid:6ebe66b9-308f-4cfe-b3ab-244707c92c97"/>
            </result>
            <result>
               <reference value="urn:uuid:1c4f5750-d6a5-4c56-9e0a-f63dbcf50fa4"/>
            </result>
            <result>
               <reference value="urn:uuid:68e3586a-be88-4285-b2ca-18efd1a27eab"/>
            </result>
            <result>
               <reference value="urn:uuid:c0b26845-8942-4205-a974-937c5d8f8a66"/>
            </result>
            <result>
               <reference value="urn:uuid:b48fdf61-ee70-47fe-9df1-25ad2376c00a"/>
            </result>
            <result>
               <reference value="urn:uuid:4fa508ec-e0dc-47fc-970c-8cce8cc30378"/>
            </result>
            <result>
               <reference value="urn:uuid:f0e665cb-36e1-4b70-bc14-70b08ed0b969"/>
            </result>
         </DiagnosticReport>
      </resource>
   </entry>
   <entry>
      <fullUrl value="urn:uuid:e8192b89-58b1-4e68-ab4d-d42e2f3c351c"/>
      <resource>
         <Patient>
            <id value="e8192b89-58b1-4e68-ab4d-d42e2f3c351c"/>
            <meta>
               <profile value="http://hl7.eu/fhir/base/StructureDefinition/patient-eu-core"/>
               <security>
                  <system value="http://terminology.hl7.org/CodeSystem/v3-ActReason"/>
                  <code value="HTEST"/>
               </security>
               <security>
                  <system value="http://terminology.hl7.org/CodeSystem/v3-ActReason"/>
                  <code value="TRAIN"/>
               </security>
               <tag>
                  <system value="https://synderai.net/fhir/CodeSystem/tags"/>
                  <code value="synthetic"/>
                  <display value="SYNDERAI Synthetic data"/>
               </tag>
            </meta>
            <text>
               <status value="generated"/>
               <div xmlns="http://www.w3.org/1999/xhtml">
                  <table class="hl7__ips">
                     <tr>
                        <td>Ludmila Vávrová</td>
                        <td>female</td>
                        <td>08-Aug-1940</td>
                     </tr>
                  </table>
               </div>
            </text>
            <extension url="http://hl7.org/fhir/StructureDefinition/patient-nationality">
               <valueCodeableConcept>
                  <coding>
                     <system value="http://hl7.org/fhir/ValueSet/country"/>
                     <code value="CZ"/>
                  </coding>
               </valueCodeableConcept>
            </extension>
            <identifier>
               <type>
                  <coding>
                     <system value="http://terminology.hl7.org/CodeSystem/v2-0203"/>
                     <code value="PT"/>
                  </coding>
               </type>
               <system value="http://ec.europa.eu/identifier/eci"/>
               <value value="1992-540676-1"/>
            </identifier>
            <identifier>
               <type>
                  <coding>
                     <system value="http://terminology.hl7.org/CodeSystem/v2-0203"/>
                     <code value="MR"/>
                  </coding>
               </type>
               <system value="http://local.setting.eu/identifier"/>
               <value value="7c533aae-6e7f-89aa-dfdc-8ff900a5990b"/>
            </identifier>
            <name>
               <family value="Vávrová"/>
            </name>
            <name>
               <given value="Ludmila"/>
            </name>
            <name>
               <text value="Ludmila Vávrová"/>
            </name>
            <telecom>
               <system value="phone"/>
               <value value="00420 607 610 889"/>
            </telecom>
            <gender value="female"/>
            <birthDate value="1940-08-08"/>
            <address>
               <use value="home"/>
               <type value="physical"/>
               <line value="Šárovo Kolo 116"/>
               <city value="Bakov nad Jizerou"/>
               <postalCode value="29471"/>
               <country value="Czechia"/>
            </address>
         </Patient>
      </resource>
   </entry>
   <entry>
      <fullUrl value="urn:uuid:571159de-6f20-4cf4-9c10-fc32884d3afc"/>
      <resource>
         <ServiceRequest>
            <id value="571159de-6f20-4cf4-9c10-fc32884d3afc"/>
            <meta>
               <profile value="http://hl7.eu/fhir/laboratory/StructureDefinition/ServiceRequest-eu-lab"/>
            </meta>
            <identifier>
               <system value="http://example.org"/>
               <value value="231c2b74-7951-4aac-b147-9097bee3a1f8"/>
            </identifier>
            <status value="active"/>
            <intent value="order"/>
            <code>
               <coding>
                  <system value="http://snomed.info/sct"/>
                  <code value="108252007"/>
                  <display value="Laboratory procedure"/>
               </coding>
            </code>
            <subject>
               <reference value="urn:uuid:e8192b89-58b1-4e68-ab4d-d42e2f3c351c"/>
               <display value="Ludmila Vávrová"/>
            </subject>
            <requester>
               <reference value="urn:uuid:f8bce962-1b8d-402f-9200-6c15f53a3b6c"/>
            </requester>
            <reasonCode>
               <coding>
                  <system value="http://snomed.info/sct"/>
                  <code value="414545008"/>
                  <display value="Ischemic heart disease"/>
               </coding>
            </reasonCode>
            <reasonCode>
               <coding>
                  <system value="http://snomed.info/sct"/>
                  <code value="64859006"/>
                  <display value="Osteoporosis"/>
               </coding>
            </reasonCode>
            <reasonCode>
               <coding>
                  <system value="http://snomed.info/sct"/>
                  <code value="6525002"/>
                  <display value="Dependent drug abuse"/>
               </coding>
            </reasonCode>
            <reasonCode>
               <coding>
                  <system value="http://snomed.info/sct"/>
                  <code value="55822004"/>
                  <display value="Hyperlipidemia"/>
               </coding>
            </reasonCode>
            <reasonCode>
               <coding>
                  <system value="http://snomed.info/sct"/>
                  <code value="124171000119105"/>
                  <display value="Chronic intractable migraine without aura"/>
               </coding>
            </reasonCode>
            <reasonCode>
               <coding>
                  <system value="http://snomed.info/sct"/>
                  <code value="196416002"/>
                  <display value="Impacted molars"/>
               </coding>
            </reasonCode>
            <reasonCode>
               <coding>
                  <system value="http://snomed.info/sct"/>
                  <code value="239872002"/>
                  <display value="Osteoarthritis of hip"/>
               </coding>
            </reasonCode>
            <reasonCode>
               <coding>
                  <system value="http://snomed.info/sct"/>
                  <code value="40055000"/>
                  <display value="Chronic sinusitis"/>
               </coding>
            </reasonCode>
            <specimen>
               <reference value="urn:uuid:0046ac8a-6d7d-4653-aab4-c9684f2ab58c"/>
            </specimen>
            <specimen>
               <reference value="urn:uuid:1059c57c-efc3-4144-bb10-a5a2ed20d759"/>
            </specimen>
            <specimen>
               <reference value="urn:uuid:f23b19ee-e206-4011-8af2-616e7e46b998"/>
            </specimen>
            <specimen>
               <reference value="urn:uuid:69a0c0c2-9da2-4351-92d7-809da7af1766"/>
            </specimen>
         </ServiceRequest>
      </resource>
   </entry>
   <entry>
      <fullUrl value="urn:uuid:f8bce962-1b8d-402f-9200-6c15f53a3b6c"/>
      <resource>
         <PractitionerRole>
            <id value="f8bce962-1b8d-402f-9200-6c15f53a3b6c"/>
            <meta>
               <profile value="http://hl7.eu/fhir/base/StructureDefinition/practitionerRole-eu"/>
            </meta>
            <text>
               <status value="generated"/>
               <div xmlns="http://www.w3.org/1999/xhtml">Provider Role Id: f8bce962-1b8d-402f-9200-6c15f53a3b6c</div>
            </text>
            <organization>
               <reference value="urn:uuid:78be54f0-645a-48b1-9dec-42f3edd62351"/>
            </organization>
         </PractitionerRole>
      </resource>
   </entry>
   <entry>
      <fullUrl value="urn:uuid:78be54f0-645a-48b1-9dec-42f3edd62351"/>
      <resource>
         <Organization>
            <id value="78be54f0-645a-48b1-9dec-42f3edd62351"/>
            <meta>
               <profile value="http://hl7.eu/fhir/base/StructureDefinition/organization-eu"/>
            </meta>
            <text>
               <status value="generated"/>
               <div xmlns="http://www.w3.org/1999/xhtml">Provider Organization: Psychiatrická nemocnice Kosmonosy</div>
            </text>
            <identifier>
               <system value="urn:oid:2.16.840.1.113883.2.51.999"/>
               <value value="d7a3d4d9-7c60-4d04-a79b-568069123c59"/>
               <assigner>
                  <display value="HL7 Europe"/>
               </assigner>
            </identifier>
            <name value="Psychiatrická nemocnice Kosmonosy"/>
            <address>
               <city value="Kosmonosy"/>
               <postalCode value="293 06"/>
               <country value="Czechia"/>
            </address>
         </Organization>
      </resource>
   </entry>
   <entry>
      <fullUrl value="urn:uuid:0046ac8a-6d7d-4653-aab4-c9684f2ab58c"/>
      <resource>
         <Specimen>
            <id value="0046ac8a-6d7d-4653-aab4-c9684f2ab58c"/>
            <meta>
               <profile value="http://hl7.eu/fhir/laboratory/StructureDefinition/Specimen-eu-lab"/>
            </meta>
            <text>
               <status value="generated"/>
               <div xmlns="http://www.w3.org/1999/xhtml">
                  <table class="hl7__eu__lab__report">
                     <tr>
                        <th>Specimen</th>
                        <th>Collection Date</th>
                     </tr>
                     <tr>
                        <td>Whole blood specimen (specimen)</td>
                        <td>
                           <span class="nb">08-Nov-2016</span>
                        </td>
                     </tr>
                  </table>
               </div>
            </text>
            <type>
               <coding>
                  <system value="http://snomed.info/sct"/>
                  <code value="258580003"/>
                  <display value="Whole blood specimen (specimen)"/>
               </coding>
            </type>
            <collection>
               <collectedDateTime value="2016-11-08"/>
            </collection>
         </Specimen>
      </resource>
   </entry>
   <entry>
      <fullUrl value="urn:uuid:1059c57c-efc3-4144-bb10-a5a2ed20d759"/>
      <resource>
         <Specimen>
            <id value="1059c57c-efc3-4144-bb10-a5a2ed20d759"/>
            <meta>
               <profile value="http://hl7.eu/fhir/laboratory/StructureDefinition/Specimen-eu-lab"/>
            </meta>
            <text>
               <status value="generated"/>
               <div xmlns="http://www.w3.org/1999/xhtml">
                  <table class="hl7__eu__lab__report">
                     <tr>
                        <th>Specimen</th>
                        <th>Collection Date</th>
                     </tr>
                     <tr>
                        <td>Arterial blood specimen</td>
                        <td>
                           <span class="nb">08-Nov-2016</span>
                        </td>
                     </tr>
                  </table>
               </div>
            </text>
            <type>
               <coding>
                  <system value="http://snomed.info/sct"/>
                  <code value="122552005"/>
                  <display value="Arterial blood specimen"/>
               </coding>
            </type>
            <collection>
               <collectedDateTime value="2016-11-08"/>
            </collection>
         </Specimen>
      </resource>
   </entry>
   <entry>
      <fullUrl value="urn:uuid:f23b19ee-e206-4011-8af2-616e7e46b998"/>
      <resource>
         <Specimen>
            <id value="f23b19ee-e206-4011-8af2-616e7e46b998"/>
            <meta>
               <profile value="http://hl7.eu/fhir/laboratory/StructureDefinition/Specimen-eu-lab"/>
            </meta>
            <text>
               <status value="generated"/>
               <div xmlns="http://www.w3.org/1999/xhtml">
                  <table class="hl7__eu__lab__report">
                     <tr>
                        <th>Specimen</th>
                        <th>Collection Date</th>
                     </tr>
                     <tr>
                        <td>Venous blood specimen</td>
                        <td>
                           <span class="nb">08-Nov-2016</span>
                        </td>
                     </tr>
                  </table>
               </div>
            </text>
            <type>
               <coding>
                  <system value="http://snomed.info/sct"/>
                  <code value="122555007"/>
                  <display value="Venous blood specimen"/>
               </coding>
            </type>
            <collection>
               <collectedDateTime value="2016-11-08"/>
            </collection>
         </Specimen>
      </resource>
   </entry>
   <entry>
      <fullUrl value="urn:uuid:69a0c0c2-9da2-4351-92d7-809da7af1766"/>
      <resource>
         <Specimen>
            <id value="69a0c0c2-9da2-4351-92d7-809da7af1766"/>
            <meta>
               <profile value="http://hl7.eu/fhir/laboratory/StructureDefinition/Specimen-eu-lab"/>
            </meta>
            <text>
               <status value="generated"/>
               <div xmlns="http://www.w3.org/1999/xhtml">
                  <table class="hl7__eu__lab__report">
                     <tr>
                        <th>Specimen</th>
                        <th>Collection Date</th>
                     </tr>
                     <tr>
                        <td>Acellular blood (serum or plasma) specimen</td>
                        <td>
                           <span class="nb">08-Nov-2016</span>
                        </td>
                     </tr>
                  </table>
               </div>
            </text>
            <type>
               <coding>
                  <system value="http://snomed.info/sct"/>
                  <code value="122592007"/>
                  <display value="Acellular blood (serum or plasma) specimen"/>
               </coding>
            </type>
            <collection>
               <collectedDateTime value="2016-11-08"/>
            </collection>
         </Specimen>
      </resource>
   </entry>
   <entry>
      <fullUrl value="urn:uuid:1ee03e6a-2a10-4f60-a569-f6ecaa4171b5"/>
      <resource>
         <Observation>
            <id value="1ee03e6a-2a10-4f60-a569-f6ecaa4171b5"/>
            <meta>
               <profile value="http://hl7.eu/fhir/laboratory/StructureDefinition/Observation-resultslab-eu-lab"/>
            </meta>
            <text>
               <status value="generated"/>
               <div xmlns="http://www.w3.org/1999/xhtml">
                  <table class="hl7__eu__lab__report">
                     <tr>
                        <th>Test</th>
                        <th>08-Nov-2016</th>
                        <th>Reference Range</th>
                        <th>Unit</th>
                     </tr>
                     <tr>
                        <td>Activated clotting time (ACT) of Blood by Coagulation assay</td>
                        <td>116.5</td>
                        <td>120 - 180</td>
                        <td>L</td>
                        <td>s</td>
                     </tr>
                  </table>
               </div>
            </text>
            <status value="final"/>
            <category>
               <coding>
                  <system value="http://terminology.hl7.org/CodeSystem/observation-category"/>
                  <code value="laboratory"/>
               </coding>
            </category>
            <code>
               <coding>
                  <system value="http://loinc.org"/>
                  <code value="3184-9"/>
                  <display value="Activated clotting time (ACT) of Blood by Coagulation assay"/>
               </coding>
               <text value="Activated clotting time (ACT) of Blood by Coagulation assay"/>
            </code>
            <subject>
               <reference value="urn:uuid:e8192b89-58b1-4e68-ab4d-d42e2f3c351c"/>
               <display value="Ludmila Vávrová"/>
            </subject>
            <effectiveDateTime value="2016-11-08T08:40:59Z"/>
            <performer>
               <display value="The Central European Lab"/>
            </performer>
            <valueQuantity>
               <value value="116.5"/>
               <unit value="s"/>
               <system value="http://unitsofmeasure.org"/>
               <code value="s"/>
            </valueQuantity>
            <interpretation>
               <coding>
                  <system value="http://terminology.hl7.org/CodeSystem/v3-ObservationInterpretation"/>
                  <code value="L"/>
                  <display value="Low"/>
               </coding>
            </interpretation>
            <specimen>
               <reference value="urn:uuid:0046ac8a-6d7d-4653-aab4-c9684f2ab58c"/>
            </specimen>
            <referenceRange>
               <low>
                  <value value="120"/>
                  <system value="http://unitsofmeasure.org"/>
                  <code value="s"/>
               </low>
            </referenceRange>
            <referenceRange>
               <high>
                  <value value="180"/>
                  <system value="http://unitsofmeasure.org"/>
                  <code value="s"/>
               </high>
            </referenceRange>
         </Observation>
      </resource>
   </entry>
   <entry>
      <fullUrl value="urn:uuid:a02b03e4-8202-489a-9efa-847835e92d64"/>
      <resource>
         <Observation>
            <id value="a02b03e4-8202-489a-9efa-847835e92d64"/>
            <meta>
               <profile value="http://hl7.eu/fhir/laboratory/StructureDefinition/Observation-resultslab-eu-lab"/>
            </meta>
            <text>
               <status value="generated"/>
               <div xmlns="http://www.w3.org/1999/xhtml">
                  <table class="hl7__eu__lab__report">
                     <tr>
                        <th>Test</th>
                        <th>08-Nov-2016</th>
                        <th>Reference Range</th>
                        <th>Unit</th>
                     </tr>
                     <tr>
                        <td>pH of Arterial blood</td>
                        <td>7.2</td>
                        <td>7.35 - 7.45</td>
                        <td>L</td>
                        <td>[pH]</td>
                     </tr>
                  </table>
               </div>
            </text>
            <status value="final"/>
            <category>
               <coding>
                  <system value="http://terminology.hl7.org/CodeSystem/observation-category"/>
                  <code value="laboratory"/>
               </coding>
            </category>
            <code>
               <coding>
                  <system value="http://loinc.org"/>
                  <code value="2744-1"/>
                  <display value="pH of Arterial blood"/>
               </coding>
               <text value="pH of Arterial blood"/>
            </code>
            <subject>
               <reference value="urn:uuid:e8192b89-58b1-4e68-ab4d-d42e2f3c351c"/>
               <display value="Ludmila Vávrová"/>
            </subject>
            <effectiveDateTime value="2016-11-08T08:40:59Z"/>
            <performer>
               <display value="The Central European Lab"/>
            </performer>
            <valueQuantity>
               <value value="7.2"/>
               <unit value="[pH]"/>
               <system value="http://unitsofmeasure.org"/>
               <code value="[pH]"/>
            </valueQuantity>
            <interpretation>
               <coding>
                  <system value="http://terminology.hl7.org/CodeSystem/v3-ObservationInterpretation"/>
                  <code value="L"/>
                  <display value="Low"/>
               </coding>
            </interpretation>
            <specimen>
               <reference value="urn:uuid:1059c57c-efc3-4144-bb10-a5a2ed20d759"/>
            </specimen>
            <referenceRange>
               <low>
                  <value value="7.35"/>
                  <system value="http://unitsofmeasure.org"/>
                  <code value="pH"/>
               </low>
            </referenceRange>
            <referenceRange>
               <high>
                  <value value="7.45"/>
                  <system value="http://unitsofmeasure.org"/>
                  <code value="pH"/>
               </high>
            </referenceRange>
         </Observation>
      </resource>
   </entry>
   <entry>
      <fullUrl value="urn:uuid:be9a53fc-d759-4bd5-bdf4-992ecee54a40"/>
      <resource>
         <Observation>
            <id value="be9a53fc-d759-4bd5-bdf4-992ecee54a40"/>
            <meta>
               <profile value="http://hl7.eu/fhir/laboratory/StructureDefinition/Observation-resultslab-eu-lab"/>
            </meta>
            <text>
               <status value="generated"/>
               <div xmlns="http://www.w3.org/1999/xhtml">
                  <table class="hl7__eu__lab__report">
                     <tr>
                        <th>Test</th>
                        <th>08-Nov-2016</th>
                        <th>Reference Range</th>
                        <th>Unit</th>
                     </tr>
                     <tr>
                        <td>Carbon dioxide [Partial pressure] in Arterial blood</td>
                        <td>36.3</td>
                        <td>35 - 45</td>
                        <td/>
                        <td>mm[Hg]</td>
                     </tr>
                  </table>
               </div>
            </text>
            <status value="final"/>
            <category>
               <coding>
                  <system value="http://terminology.hl7.org/CodeSystem/observation-category"/>
                  <code value="laboratory"/>
               </coding>
            </category>
            <code>
               <coding>
                  <system value="http://loinc.org"/>
                  <code value="2019-8"/>
                  <display value="Carbon dioxide [Partial pressure] in Arterial blood"/>
               </coding>
               <text value="Carbon dioxide [Partial pressure] in Arterial blood"/>
            </code>
            <subject>
               <reference value="urn:uuid:e8192b89-58b1-4e68-ab4d-d42e2f3c351c"/>
               <display value="Ludmila Vávrová"/>
            </subject>
            <effectiveDateTime value="2016-11-08T08:40:59Z"/>
            <performer>
               <display value="The Central European Lab"/>
            </performer>
            <valueQuantity>
               <value value="36.3"/>
               <unit value="mm[Hg]"/>
               <system value="http://unitsofmeasure.org"/>
               <code value="mm[Hg]"/>
            </valueQuantity>
            <specimen>
               <reference value="urn:uuid:1059c57c-efc3-4144-bb10-a5a2ed20d759"/>
            </specimen>
            <referenceRange>
               <low>
                  <value value="35"/>
                  <system value="http://unitsofmeasure.org"/>
                  <code value="mm[Hg]"/>
               </low>
            </referenceRange>
            <referenceRange>
               <high>
                  <value value="45"/>
                  <system value="http://unitsofmeasure.org"/>
                  <code value="mm[Hg]"/>
               </high>
            </referenceRange>
         </Observation>
      </resource>
   </entry>
   <entry>
      <fullUrl value="urn:uuid:00c37850-7559-4c4e-98f6-f4b0eecd0bf1"/>
      <resource>
         <Observation>
            <id value="00c37850-7559-4c4e-98f6-f4b0eecd0bf1"/>
            <meta>
               <profile value="http://hl7.eu/fhir/laboratory/StructureDefinition/Observation-resultslab-eu-lab"/>
            </meta>
            <text>
               <status value="generated"/>
               <div xmlns="http://www.w3.org/1999/xhtml">
                  <table class="hl7__eu__lab__report">
                     <tr>
                        <th>Test</th>
                        <th>08-Nov-2016</th>
                        <th>Reference Range</th>
                        <th>Unit</th>
                     </tr>
                     <tr>
                        <td>Oxygen [Partial pressure] in Arterial blood</td>
                        <td>95.3</td>
                        <td>75 - 100</td>
                        <td/>
                        <td>mm[Hg]</td>
                     </tr>
                  </table>
               </div>
            </text>
            <status value="final"/>
            <category>
               <coding>
                  <system value="http://terminology.hl7.org/CodeSystem/observation-category"/>
                  <code value="laboratory"/>
               </coding>
            </category>
            <code>
               <coding>
                  <system value="http://loinc.org"/>
                  <code value="2703-7"/>
                  <display value="Oxygen [Partial pressure] in Arterial blood"/>
               </coding>
               <text value="Oxygen [Partial pressure] in Arterial blood"/>
            </code>
            <subject>
               <reference value="urn:uuid:e8192b89-58b1-4e68-ab4d-d42e2f3c351c"/>
               <display value="Ludmila Vávrová"/>
            </subject>
            <effectiveDateTime value="2016-11-08T08:40:59Z"/>
            <performer>
               <display value="The Central European Lab"/>
            </performer>
            <valueQuantity>
               <value value="95.3"/>
               <unit value="mm[Hg]"/>
               <system value="http://unitsofmeasure.org"/>
               <code value="mm[Hg]"/>
            </valueQuantity>
            <specimen>
               <reference value="urn:uuid:1059c57c-efc3-4144-bb10-a5a2ed20d759"/>
            </specimen>
            <referenceRange>
               <low>
                  <value value="75"/>
                  <system value="http://unitsofmeasure.org"/>
                  <code value="mm[Hg]"/>
               </low>
            </referenceRange>
            <referenceRange>
               <high>
                  <value value="100"/>
                  <system value="http://unitsofmeasure.org"/>
                  <code value="mm[Hg]"/>
               </high>
            </referenceRange>
         </Observation>
      </resource>
   </entry>
   <entry>
      <fullUrl value="urn:uuid:7f939575-5a3c-438b-8ab6-8cc859d4d86d"/>
      <resource>
         <Observation>
            <id value="7f939575-5a3c-438b-8ab6-8cc859d4d86d"/>
            <meta>
               <profile value="http://hl7.eu/fhir/laboratory/StructureDefinition/Observation-resultslab-eu-lab"/>
            </meta>
            <text>
               <status value="generated"/>
               <div xmlns="http://www.w3.org/1999/xhtml">
                  <table class="hl7__eu__lab__report">
                     <tr>
                        <th>Test</th>
                        <th>08-Nov-2016</th>
                        <th>Reference Range</th>
                        <th>Unit</th>
                     </tr>
                     <tr>
                        <td>Bicarbonate [Moles/volume] in Arterial blood</td>
                        <td>24.2</td>
                        <td>22 - 32</td>
                        <td/>
                        <td>mmol/L</td>
                     </tr>
                  </table>
               </div>
            </text>
            <status value="final"/>
            <category>
               <coding>
                  <system value="http://terminology.hl7.org/CodeSystem/observation-category"/>
                  <code value="laboratory"/>
               </coding>
            </category>
            <code>
               <coding>
                  <system value="http://loinc.org"/>
                  <code value="1960-4"/>
                  <display value="Bicarbonate [Moles/volume] in Arterial blood"/>
               </coding>
               <text value="Bicarbonate [Moles/volume] in Arterial blood"/>
            </code>
            <subject>
               <reference value="urn:uuid:e8192b89-58b1-4e68-ab4d-d42e2f3c351c"/>
               <display value="Ludmila Vávrová"/>
            </subject>
            <effectiveDateTime value="2016-11-08T08:40:59Z"/>
            <performer>
               <display value="The Central European Lab"/>
            </performer>
            <valueQuantity>
               <value value="24.2"/>
               <unit value="mmol/L"/>
               <system value="http://unitsofmeasure.org"/>
               <code value="mmol/L"/>
            </valueQuantity>
            <specimen>
               <reference value="urn:uuid:1059c57c-efc3-4144-bb10-a5a2ed20d759"/>
            </specimen>
            <referenceRange>
               <low>
                  <value value="22"/>
                  <system value="http://unitsofmeasure.org"/>
                  <code value="mmol/L"/>
               </low>
            </referenceRange>
            <referenceRange>
               <high>
                  <value value="32"/>
                  <system value="http://unitsofmeasure.org"/>
                  <code value="mmol/L"/>
               </high>
            </referenceRange>
         </Observation>
      </resource>
   </entry>
   <entry>
      <fullUrl value="urn:uuid:6ebe66b9-308f-4cfe-b3ab-244707c92c97"/>
      <resource>
         <Observation>
            <id value="6ebe66b9-308f-4cfe-b3ab-244707c92c97"/>
            <meta>
               <profile value="http://hl7.eu/fhir/laboratory/StructureDefinition/Observation-resultslab-eu-lab"/>
            </meta>
            <text>
               <status value="generated"/>
               <div xmlns="http://www.w3.org/1999/xhtml">
                  <table class="hl7__eu__lab__report">
                     <tr>
                        <th>Test</th>
                        <th>08-Nov-2016</th>
                        <th>Reference Range</th>
                        <th>Unit</th>
                     </tr>
                     <tr>
                        <td>Oxygen saturation in Arterial blood</td>
                        <td>91.0</td>
                        <td>95 - 100</td>
                        <td>L</td>
                        <td>%</td>
                     </tr>
                  </table>
               </div>
            </text>
            <status value="final"/>
            <category>
               <coding>
                  <system value="http://terminology.hl7.org/CodeSystem/observation-category"/>
                  <code value="laboratory"/>
               </coding>
            </category>
            <code>
               <coding>
                  <system value="http://loinc.org"/>
                  <code value="2708-6"/>
                  <display value="Oxygen saturation in Arterial blood"/>
               </coding>
               <text value="Oxygen saturation in Arterial blood"/>
            </code>
            <subject>
               <reference value="urn:uuid:e8192b89-58b1-4e68-ab4d-d42e2f3c351c"/>
               <display value="Ludmila Vávrová"/>
            </subject>
            <effectiveDateTime value="2016-11-08T08:40:59Z"/>
            <performer>
               <display value="The Central European Lab"/>
            </performer>
            <valueQuantity>
               <value value="91"/>
               <unit value="%"/>
               <system value="http://unitsofmeasure.org"/>
               <code value="%"/>
            </valueQuantity>
            <interpretation>
               <coding>
                  <system value="http://terminology.hl7.org/CodeSystem/v3-ObservationInterpretation"/>
                  <code value="L"/>
                  <display value="Low"/>
               </coding>
            </interpretation>
            <specimen>
               <reference value="urn:uuid:1059c57c-efc3-4144-bb10-a5a2ed20d759"/>
            </specimen>
            <referenceRange>
               <low>
                  <value value="95"/>
                  <system value="http://unitsofmeasure.org"/>
                  <code value="%"/>
               </low>
            </referenceRange>
            <referenceRange>
               <high>
                  <value value="100"/>
                  <system value="http://unitsofmeasure.org"/>
                  <code value="%"/>
               </high>
            </referenceRange>
         </Observation>
      </resource>
   </entry>
   <entry>
      <fullUrl value="urn:uuid:1c4f5750-d6a5-4c56-9e0a-f63dbcf50fa4"/>
      <resource>
         <Observation>
            <id value="1c4f5750-d6a5-4c56-9e0a-f63dbcf50fa4"/>
            <meta>
               <profile value="http://hl7.eu/fhir/laboratory/StructureDefinition/Observation-resultslab-eu-lab"/>
            </meta>
            <text>
               <status value="generated"/>
               <div xmlns="http://www.w3.org/1999/xhtml">
                  <table class="hl7__eu__lab__report">
                     <tr>
                        <th>Test</th>
                        <th>08-Nov-2016</th>
                        <th>Reference Range</th>
                        <th>Unit</th>
                     </tr>
                     <tr>
                        <td>pH of Venous blood</td>
                        <td>7.4</td>
                        <td>7.35 - 7.45</td>
                        <td/>
                        <td>[pH]</td>
                     </tr>
                  </table>
               </div>
            </text>
            <status value="final"/>
            <category>
               <coding>
                  <system value="http://terminology.hl7.org/CodeSystem/observation-category"/>
                  <code value="laboratory"/>
               </coding>
            </category>
            <code>
               <coding>
                  <system value="http://loinc.org"/>
                  <code value="2746-6"/>
                  <display value="pH of Venous blood"/>
               </coding>
               <text value="pH of Venous blood"/>
            </code>
            <subject>
               <reference value="urn:uuid:e8192b89-58b1-4e68-ab4d-d42e2f3c351c"/>
               <display value="Ludmila Vávrová"/>
            </subject>
            <effectiveDateTime value="2016-11-08T08:40:59Z"/>
            <performer>
               <display value="The Central European Lab"/>
            </performer>
            <valueQuantity>
               <value value="7.4"/>
               <unit value="[pH]"/>
               <system value="http://unitsofmeasure.org"/>
               <code value="[pH]"/>
            </valueQuantity>
            <specimen>
               <reference value="urn:uuid:f23b19ee-e206-4011-8af2-616e7e46b998"/>
            </specimen>
            <referenceRange>
               <low>
                  <value value="7.35"/>
                  <system value="http://unitsofmeasure.org"/>
                  <code value="pH"/>
               </low>
            </referenceRange>
            <referenceRange>
               <high>
                  <value value="7.45"/>
                  <system value="http://unitsofmeasure.org"/>
                  <code value="pH"/>
               </high>
            </referenceRange>
         </Observation>
      </resource>
   </entry>
   <entry>
      <fullUrl value="urn:uuid:68e3586a-be88-4285-b2ca-18efd1a27eab"/>
      <resource>
         <Observation>
            <id value="68e3586a-be88-4285-b2ca-18efd1a27eab"/>
            <meta>
               <profile value="http://hl7.eu/fhir/laboratory/StructureDefinition/Observation-resultslab-eu-lab"/>
            </meta>
            <text>
               <status value="generated"/>
               <div xmlns="http://www.w3.org/1999/xhtml">
                  <table class="hl7__eu__lab__report">
                     <tr>
                        <th>Test</th>
                        <th>08-Nov-2016</th>
                        <th>Reference Range</th>
                        <th>Unit</th>
                     </tr>
                     <tr>
                        <td>Carbon dioxide [Partial pressure] in Venous blood</td>
                        <td>49.1</td>
                        <td>42 - 48</td>
                        <td>H</td>
                        <td>mm[Hg]</td>
                     </tr>
                  </table>
               </div>
            </text>
            <status value="final"/>
            <category>
               <coding>
                  <system value="http://terminology.hl7.org/CodeSystem/observation-category"/>
                  <code value="laboratory"/>
               </coding>
            </category>
            <code>
               <coding>
                  <system value="http://loinc.org"/>
                  <code value="2021-4"/>
                  <display value="Carbon dioxide [Partial pressure] in Venous blood"/>
               </coding>
               <text value="Carbon dioxide [Partial pressure] in Venous blood"/>
            </code>
            <subject>
               <reference value="urn:uuid:e8192b89-58b1-4e68-ab4d-d42e2f3c351c"/>
               <display value="Ludmila Vávrová"/>
            </subject>
            <effectiveDateTime value="2016-11-08T08:40:59Z"/>
            <performer>
               <display value="The Central European Lab"/>
            </performer>
            <valueQuantity>
               <value value="49.1"/>
               <unit value="mm[Hg]"/>
               <system value="http://unitsofmeasure.org"/>
               <code value="mm[Hg]"/>
            </valueQuantity>
            <interpretation>
               <coding>
                  <system value="http://terminology.hl7.org/CodeSystem/v3-ObservationInterpretation"/>
                  <code value="H"/>
                  <display value="High"/>
               </coding>
            </interpretation>
            <specimen>
               <reference value="urn:uuid:f23b19ee-e206-4011-8af2-616e7e46b998"/>
            </specimen>
            <referenceRange>
               <low>
                  <value value="42"/>
                  <system value="http://unitsofmeasure.org"/>
                  <code value="mm[Hg]"/>
               </low>
            </referenceRange>
            <referenceRange>
               <high>
                  <value value="48"/>
                  <system value="http://unitsofmeasure.org"/>
                  <code value="mm[Hg]"/>
               </high>
            </referenceRange>
         </Observation>
      </resource>
   </entry>
   <entry>
      <fullUrl value="urn:uuid:c0b26845-8942-4205-a974-937c5d8f8a66"/>
      <resource>
         <Observation>
            <id value="c0b26845-8942-4205-a974-937c5d8f8a66"/>
            <meta>
               <profile value="http://hl7.eu/fhir/laboratory/StructureDefinition/Observation-resultslab-eu-lab"/>
            </meta>
            <text>
               <status value="generated"/>
               <div xmlns="http://www.w3.org/1999/xhtml">
                  <table class="hl7__eu__lab__report">
                     <tr>
                        <th>Test</th>
                        <th>08-Nov-2016</th>
                        <th>Reference Range</th>
                        <th>Unit</th>
                     </tr>
                     <tr>
                        <td>Oxygen [Partial pressure] in Venous blood</td>
                        <td>45.9</td>
                        <td>35 - 85</td>
                        <td/>
                        <td>mm[Hg]</td>
                     </tr>
                  </table>
               </div>
            </text>
            <status value="final"/>
            <category>
               <coding>
                  <system value="http://terminology.hl7.org/CodeSystem/observation-category"/>
                  <code value="laboratory"/>
               </coding>
            </category>
            <code>
               <coding>
                  <system value="http://loinc.org"/>
                  <code value="2705-2"/>
                  <display value="Oxygen [Partial pressure] in Venous blood"/>
               </coding>
               <text value="Oxygen [Partial pressure] in Venous blood"/>
            </code>
            <subject>
               <reference value="urn:uuid:e8192b89-58b1-4e68-ab4d-d42e2f3c351c"/>
               <display value="Ludmila Vávrová"/>
            </subject>
            <effectiveDateTime value="2016-11-08T08:40:59Z"/>
            <performer>
               <display value="The Central European Lab"/>
            </performer>
            <valueQuantity>
               <value value="45.9"/>
               <unit value="mm[Hg]"/>
               <system value="http://unitsofmeasure.org"/>
               <code value="mm[Hg]"/>
            </valueQuantity>
            <specimen>
               <reference value="urn:uuid:f23b19ee-e206-4011-8af2-616e7e46b998"/>
            </specimen>
            <referenceRange>
               <low>
                  <value value="35"/>
                  <system value="http://unitsofmeasure.org"/>
                  <code value="mm[Hg]"/>
               </low>
            </referenceRange>
            <referenceRange>
               <high>
                  <value value="85"/>
                  <system value="http://unitsofmeasure.org"/>
                  <code value="mm[Hg]"/>
               </high>
            </referenceRange>
         </Observation>
      </resource>
   </entry>
   <entry>
      <fullUrl value="urn:uuid:b48fdf61-ee70-47fe-9df1-25ad2376c00a"/>
      <resource>
         <Observation>
            <id value="b48fdf61-ee70-47fe-9df1-25ad2376c00a"/>
            <meta>
               <profile value="http://hl7.eu/fhir/laboratory/StructureDefinition/Observation-resultslab-eu-lab"/>
            </meta>
            <text>
               <status value="generated"/>
               <div xmlns="http://www.w3.org/1999/xhtml">
                  <table class="hl7__eu__lab__report">
                     <tr>
                        <th>Test</th>
                        <th>08-Nov-2016</th>
                        <th>Reference Range</th>
                        <th>Unit</th>
                     </tr>
                     <tr>
                        <td>Bicarbonate [Moles/volume] in Venous blood</td>
                        <td>26.0</td>
                        <td>22 - 31</td>
                        <td/>
                        <td>mmol/L</td>
                     </tr>
                  </table>
               </div>
            </text>
            <status value="final"/>
            <category>
               <coding>
                  <system value="http://terminology.hl7.org/CodeSystem/observation-category"/>
                  <code value="laboratory"/>
               </coding>
            </category>
            <code>
               <coding>
                  <system value="http://loinc.org"/>
                  <code value="14627-4"/>
                  <display value="Bicarbonate [Moles/volume] in Venous blood"/>
               </coding>
               <text value="Bicarbonate [Moles/volume] in Venous blood"/>
            </code>
            <subject>
               <reference value="urn:uuid:e8192b89-58b1-4e68-ab4d-d42e2f3c351c"/>
               <display value="Ludmila Vávrová"/>
            </subject>
            <effectiveDateTime value="2016-11-08T08:40:59Z"/>
            <performer>
               <display value="The Central European Lab"/>
            </performer>
            <valueQuantity>
               <value value="26"/>
               <unit value="mmol/L"/>
               <system value="http://unitsofmeasure.org"/>
               <code value="mmol/L"/>
            </valueQuantity>
            <specimen>
               <reference value="urn:uuid:f23b19ee-e206-4011-8af2-616e7e46b998"/>
            </specimen>
            <referenceRange>
               <low>
                  <value value="22"/>
                  <system value="http://unitsofmeasure.org"/>
                  <code value="mmol/L"/>
               </low>
            </referenceRange>
            <referenceRange>
               <high>
                  <value value="31"/>
                  <system value="http://unitsofmeasure.org"/>
                  <code value="mmol/L"/>
               </high>
            </referenceRange>
         </Observation>
      </resource>
   </entry>
   <entry>
      <fullUrl value="urn:uuid:4fa508ec-e0dc-47fc-970c-8cce8cc30378"/>
      <resource>
         <Observation>
            <id value="4fa508ec-e0dc-47fc-970c-8cce8cc30378"/>
            <meta>
               <profile value="http://hl7.eu/fhir/laboratory/StructureDefinition/Observation-resultslab-eu-lab"/>
            </meta>
            <text>
               <status value="generated"/>
               <div xmlns="http://www.w3.org/1999/xhtml">
                  <table class="hl7__eu__lab__report">
                     <tr>
                        <th>Test</th>
                        <th>08-Nov-2016</th>
                        <th>Reference Range</th>
                        <th>Unit</th>
                     </tr>
                     <tr>
                        <td>Carbon dioxide, total [Moles/volume] in Venous blood</td>
                        <td>0.9</td>
                        <td>0.8 - 1.3</td>
                        <td/>
                        <td>mmol/L</td>
                     </tr>
                  </table>
               </div>
            </text>
            <status value="final"/>
            <category>
               <coding>
                  <system value="http://terminology.hl7.org/CodeSystem/observation-category"/>
                  <code value="laboratory"/>
               </coding>
            </category>
            <code>
               <coding>
                  <system value="http://loinc.org"/>
                  <code value="2027-1"/>
                  <display value="Carbon dioxide, total [Moles/volume] in Venous blood"/>
               </coding>
               <text value="Carbon dioxide, total [Moles/volume] in Venous blood"/>
            </code>
            <subject>
               <reference value="urn:uuid:e8192b89-58b1-4e68-ab4d-d42e2f3c351c"/>
               <display value="Ludmila Vávrová"/>
            </subject>
            <effectiveDateTime value="2016-11-08T08:40:59Z"/>
            <performer>
               <display value="The Central European Lab"/>
            </performer>
            <valueQuantity>
               <value value="0.9"/>
               <unit value="mmol/L"/>
               <system value="http://unitsofmeasure.org"/>
               <code value="mmol/L"/>
            </valueQuantity>
            <specimen>
               <reference value="urn:uuid:f23b19ee-e206-4011-8af2-616e7e46b998"/>
            </specimen>
            <referenceRange>
               <low>
                  <value value="0.8"/>
                  <system value="http://unitsofmeasure.org"/>
                  <code value="mmol/L"/>
               </low>
            </referenceRange>
            <referenceRange>
               <high>
                  <value value="1.3"/>
                  <system value="http://unitsofmeasure.org"/>
                  <code value="mmol/L"/>
               </high>
            </referenceRange>
         </Observation>
      </resource>
   </entry>
   <entry>
      <fullUrl value="urn:uuid:f0e665cb-36e1-4b70-bc14-70b08ed0b969"/>
      <resource>
         <Observation>
            <id value="f0e665cb-36e1-4b70-bc14-70b08ed0b969"/>
            <meta>
               <profile value="http://hl7.eu/fhir/laboratory/StructureDefinition/Observation-resultslab-eu-lab"/>
            </meta>
            <text>
               <status value="generated"/>
               <div xmlns="http://www.w3.org/1999/xhtml">
                  <table class="hl7__eu__lab__report">
                     <tr>
                        <th>Test</th>
                        <th>08-Nov-2016</th>
                        <th>Reference Range</th>
                        <th>Unit</th>
                     </tr>
                     <tr>
                        <td>Magnesium [Mass/volume] in Serum or Plasma</td>
                        <td>2.3</td>
                        <td>1.8 - 2.3</td>
                        <td/>
                        <td>mg/dL</td>
                     </tr>
                  </table>
               </div>
            </text>
            <status value="final"/>
            <category>
               <coding>
                  <system value="http://terminology.hl7.org/CodeSystem/observation-category"/>
                  <code value="laboratory"/>
               </coding>
            </category>
            <code>
               <coding>
                  <system value="http://loinc.org"/>
                  <code value="19123-9"/>
                  <display value="Magnesium [Mass/volume] in Serum or Plasma"/>
               </coding>
               <text value="Magnesium [Mass/volume] in Serum or Plasma"/>
            </code>
            <subject>
               <reference value="urn:uuid:e8192b89-58b1-4e68-ab4d-d42e2f3c351c"/>
               <display value="Ludmila Vávrová"/>
            </subject>
            <effectiveDateTime value="2016-11-08T08:40:59Z"/>
            <performer>
               <display value="The Central European Lab"/>
            </performer>
            <valueQuantity>
               <value value="2.3"/>
               <unit value="mg/dL"/>
               <system value="http://unitsofmeasure.org"/>
               <code value="mg/dL"/>
            </valueQuantity>
            <specimen>
               <reference value="urn:uuid:69a0c0c2-9da2-4351-92d7-809da7af1766"/>
            </specimen>
            <referenceRange>
               <low>
                  <value value="1.8"/>
                  <system value="http://unitsofmeasure.org"/>
                  <code value="mg/dL"/>
               </low>
            </referenceRange>
            <referenceRange>
               <high>
                  <value value="2.3"/>
                  <system value="http://unitsofmeasure.org"/>
                  <code value="mg/dL"/>
               </high>
            </referenceRange>
         </Observation>
      </resource>
   </entry>
   <entry>
      <fullUrl value="urn:uuid:1731b08b-2143-4b69-8375-54fa0cd4541f"/>
      <resource>
         <Device>
            <id value="1731b08b-2143-4b69-8375-54fa0cd4541f"/>
            <text>
               <status value="generated"/>
               <div xmlns="http://www.w3.org/1999/xhtml">SYNDERAI Synthetic Generator v5.0</div>
            </text>
            <status value="active&#34;"/>
            <distinctIdentifier value="synderai-generator-50"/>
            <manufacturer value="SYNDERAI Project"/>
            <deviceName>
               <name value="SYNDERAI Synthetic Generator"/>
               <type value="manufacturer-name"/>
            </deviceName>
            <version>
               <value value="5.0"/>
            </version>
         </Device>
      </resource>
   </entry>
   <entry>
      <fullUrl value="urn:uuid:460bba91-1d97-40dd-a113-88ab8334e062"/>
      <resource>
         <Provenance>
            <id value="460bba91-1d97-40dd-a113-88ab8334e062"/>
            <text>
               <status value="generated"/>
               <div xmlns="http://www.w3.org/1999/xhtml">Provenance for SYNDERAI Synthetic Example Data Resource</div>
            </text>
            <target>
               <reference value="Patient/e8192b89-58b1-4e68-ab4d-d42e2f3c351c"/>
            </target>
            <target>
               <reference value="Bundle/565a413f-f90d-48d4-8ae9-8d8c1ff500e6"/>
            </target>
            <target>
               <reference value="Composition/61c3ddd4-7a54-4652-a939-1b9076852af8"/>
            </target>
            <target>
               <reference value="PractitionerRole/29f885c7-efb7-498c-a96b-a735975a94de"/>
            </target>
            <target>
               <reference value="Practitioner/399018a9-d20a-4434-bd30-37c95459f852"/>
            </target>
            <target>
               <reference value="PractitionerRole/f8bce962-1b8d-402f-9200-6c15f53a3b6c"/>
            </target>
            <target>
               <reference value="Organization/78be54f0-645a-48b1-9dec-42f3edd62351"/>
            </target>
            <recorded value="2016-11-08T09:40:59Z"/>
            <policy value="https://synderai.net/synderai-synthetic-data-policy"/>
            <reason>
               <text value="Interoperability Testing and Training (non-clinical use)"/>
            </reason>
            <activity>
               <text value="Synthetic Example Data Generation"/>
            </activity>
            <agent>
               <type>
                  <text value="author"/>
               </type>
               <who>
                  <reference value="Device/1731b08b-2143-4b69-8375-54fa0cd4541f"/>
               </who>
            </agent>
         </Provenance>
      </resource>
   </entry>
   <entry>
      <fullUrl value="urn:uuid:29f885c7-efb7-498c-a96b-a735975a94de"/>
      <resource>
         <PractitionerRole>
            <id value="29f885c7-efb7-498c-a96b-a735975a94de"/>
            <meta>
               <profile value="http://hl7.eu/fhir/base/StructureDefinition/practitionerRole-eu"/>
            </meta>
            <text>
               <status value="generated"/>
               <div xmlns="http://www.w3.org/1999/xhtml">Laboratory Role Id: 29f885c7-efb7-498c-a96b-a735975a94de</div>
            </text>
            <practitioner>
               <reference value="urn:uuid:399018a9-d20a-4434-bd30-37c95459f852"/>
            </practitioner>
         </PractitionerRole>
      </resource>
   </entry>
   <entry>
      <fullUrl value="urn:uuid:399018a9-d20a-4434-bd30-37c95459f852"/>
      <resource>
         <Practitioner>
            <id value="399018a9-d20a-4434-bd30-37c95459f852"/>
            <meta>
               <profile value="http://hl7.eu/fhir/base/StructureDefinition/practitioner-eu"/>
            </meta>
            <text>
               <status value="generated"/>
               <div xmlns="http://www.w3.org/1999/xhtml">Laboratory: Laboratoire Central Européenne, 1000 Brussels, Belgium</div>
            </text>
            <identifier>
               <system value="urn:oid:2.16.840.1.113883.2.51.999"/>
               <value value="d1756c9a-30b4-488d-bdd8-999d26fad634"/>
               <assigner>
                  <display value="HL7 Europe"/>
               </assigner>
            </identifier>
            <name>
               <family value="Ample"/>
               <given value="Ex"/>
               <prefix value="dr"/>
            </name>
            <address>
               <line value="Laboratoire Central Européenne"/>
               <line value="Boulevard du Jardin Botanique 32"/>
               <city value="Brussels"/>
               <postalCode value="1000"/>
               <country value="Belgium"/>
            </address>
         </Practitioner>
      </resource>
   </entry>
</Bundle>