{
  "resourceType": "Bundle",
  "id": "6f9aebc4-ff21-41ef-84dd-66508aea7011",
  "meta": {
    "profile": [
      "http://hl7.eu/fhir/laboratory/StructureDefinition/Bundle-eu-lab"
    ]
  },
  "identifier": {
    "assigner": {
      "display": "HL7 Europe"
    },
    "system": "urn:oid:2.16.840.1.113883.2.51.999",
    "value": "31ef8384-c3f9-43f5-a956-8f70d29ee074"
  },
  "entry": [
    {
      "fullUrl": "urn:uuid:647137ad-216a-467d-9b4f-cd5b0d8e52ee",
      "resource": {
        "resourceType": "Composition",
        "id": "647137ad-216a-467d-9b4f-cd5b0d8e52ee",
        "meta": {
          "profile": [
            "http://hl7.eu/fhir/laboratory/StructureDefinition/Composition-eu-lab"
          ]
        },
        "identifier": {
          "assigner": {
            "display": "HL7 Europe"
          },
          "system": "urn:oid:2.16.840.1.113883.2.51.999",
          "value": "89f383cf-d908-4cf5-af3f-19258ef2bb72"
        },
        "author": [
          {
            "reference": "urn:uuid:b19275ce-a019-4537-9ecf-65882c74f2b8"
          }
        ],
        "category": [
          {
            "coding": [
              {
                "code": "26436-6",
                "system": "http://loinc.org",
                "display": "Laboratory studies (set)"
              }
            ]
          }
        ],
        "type": {
          "coding": [
            {
              "code": "11502-2",
              "system": "http://loinc.org",
              "display": "Laboratory report"
            }
          ],
          "text": "Laboratory Report"
        },
        "section": [
          {
            "code": {
              "coding": [
                {
                  "code": "26436-6",
                  "system": "http://loinc.org",
                  "display": "Laboratory studies (set)"
                }
              ],
              "text": "Laboratory studies"
            },
            "section": [
              {
                "code": {
                  "coding": [
                    {
                      "code": "$18723-7",
                      "system": "http://loinc.org",
                      "display": "Hematology studies (set)"
                    }
                  ],
                  "text": "Hematology"
                },
                "entry": [
                  {
                    "reference": "urn:uuid:ee432778-66cb-4e28-8bd6-c2207db4d9ae"
                  },
                  {
                    "reference": "urn:uuid:8e587d9d-be43-42bd-a5be-473db0db2469"
                  },
                  {
                    "reference": "urn:uuid:ad717425-5790-4e2a-9717-370699073da2"
                  },
                  {
                    "reference": "urn:uuid:4f71451b-b606-4d23-a0f5-ca418bd1be31"
                  },
                  {
                    "reference": "urn:uuid:b645c887-ae71-4067-8405-925ac63a423b"
                  },
                  {
                    "reference": "urn:uuid:e122b81a-0430-4ff6-b1c8-7b6c22774b94"
                  },
                  {
                    "reference": "urn:uuid:2c8c720b-e167-4707-9a7a-7bf2286516bd"
                  },
                  {
                    "reference": "urn:uuid:eedea2e5-6354-4dad-bb57-bed294814de6"
                  },
                  {
                    "reference": "urn:uuid:37cfe411-9854-47fc-b6fd-d358f7dcb162"
                  },
                  {
                    "reference": "urn:uuid:d29d9e65-0ff8-41e9-bd77-0a2e0245add2"
                  },
                  {
                    "reference": "urn:uuid:974d0742-837f-4edb-852c-dbf35e20027b"
                  }
                ],
                "text": {
                  "status": "generated",
                  "div": "<div xmlns=\"http://www.w3.org/1999/xhtml\"><h3>Hematology</h3><table class=\"hl7__eu__lab__report\"><thead><tr><th>Test</th><th>07-AUG-2024</th><th>Reference&#xA0;Range</th><th>Unit</th></tr></thead><tbody><tr><td>Leukocytes [#/volume] in Blood by Automated count</td><td>7.5</td><td>3.5 - 10.5</td><td>10*3/uL</td></tr><tr><td>Erythrocytes [#/volume] in Blood by Automated count</td><td>5.0</td><td>4.5 - 5.5</td><td>10*6/uL</td></tr><tr><td>Hemoglobin [Mass/volume] in Blood</td><td>14.2</td><td>12 - 16</td><td>g/dL</td></tr><tr><td>Hematocrit [Volume Fraction] of Blood by Automated count</td><td>39.4</td><td>36 - 48</td><td>%</td></tr><tr><td>MCV [Entitic volume] by Automated count</td><td>90.1</td><td>82 - 98</td><td>fL</td></tr><tr><td>MCH [Entitic mass] by Automated count</td><td>31.5</td><td>27.5 - 34.5</td><td>pg</td></tr><tr><td>MCHC [Mass/volume] by Automated count</td><td>35.7</td><td>32 - 37</td><td>g/dL</td></tr><tr><td>Erythrocyte distribution width [Entitic volume] by Automated count</td><td>46.0</td><td>36 - 55</td><td>fL</td></tr><tr><td>Platelets [#/volume] in Blood by Automated count</td><td>343.1</td><td>150 - 450</td><td>10*3/uL</td></tr><tr><td>Platelet distribution width [Entitic volume] in Blood by Automated count</td><td><strong>305.1 H</strong></td><td>11 - 15</td><td>fL</td></tr><tr><td>Platelet mean volume [Entitic volume] in Blood by Automated count</td><td>9.8</td><td>7.2 - 13.8</td><td>fL</td></tr></tbody></table></div>"
                },
                "title": "Hematology"
              },
              {
                "code": {
                  "coding": [
                    {
                      "code": "$18719-5",
                      "system": "http://loinc.org",
                      "display": "Chemistry studies (set)"
                    }
                  ],
                  "text": "Chemistry"
                },
                "entry": [
                  {
                    "reference": "urn:uuid:d8400df0-899f-4633-a1ef-ce505a79c807"
                  },
                  {
                    "reference": "urn:uuid:5f5d03dc-1d52-4081-8661-a55fd15df1d7"
                  },
                  {
                    "reference": "urn:uuid:27d72fdc-fcac-4c69-8d1a-a59c251b7c1a"
                  },
                  {
                    "reference": "urn:uuid:bc84c4db-2816-4bc0-ab82-56d3991b952c"
                  }
                ],
                "text": {
                  "status": "generated",
                  "div": "<div xmlns=\"http://www.w3.org/1999/xhtml\"><h3>Chemistry</h3><table class=\"hl7__eu__lab__report\"><thead><tr><th>Test</th><th>07-AUG-2024</th><th>Reference&#xA0;Range</th><th>Unit</th></tr></thead><tbody><tr><td>Cholesterol [Mass/volume] in Serum or Plasma</td><td>147.2</td><td>125 - 200</td><td>mg/dL</td></tr><tr><td>Triglyceride [Mass/volume] in Serum or Plasma</td><td>123.7</td><td>35 - 150</td><td>mg/dL</td></tr><tr><td>Cholesterol in LDL [Mass/volume] in Serum or Plasma by Direct assay</td><td>63.8</td><td>0 - 130</td><td>mg/dL</td></tr><tr><td>Cholesterol in HDL [Mass/volume] in Serum or Plasma</td><td>58.7</td><td>40 - 60</td><td>mg/dL</td></tr></tbody></table></div>"
                },
                "title": "Chemistry"
              }
            ],
            "title": "Laboratory Report"
          },
          {
            "text": {
              "status": "generated",
              "div": "<div xmlns=\"http://www.w3.org/1999/xhtml\"><h3>Annotation</h3><table class=\"hl7__eu__lab__report\"><tr><th>Conclusion and Recommendations based on this report and previous findings known to us</th></tr><tr><td>All measured parameters are within normal limits except for a markedly elevated platelet distribution width (PDW), which may indicate increased platelet size variability, possibly due to platelet activation or turnover. No other hematological or lipid abnormalities are present. Correlate PDW finding clinically; if no symptoms or risk factors, this may be incidental. No acute concerns from a laboratory perspective.</td></tr></table></div>"
            },
            "code": {
              "coding": [
                {
                  "system": "http://loinc.org",
                  "code": "48767-8",
                  "display": "Annotation comment"
                }
              ]
            },
            "title": "Annotation comment"
          }
        ],
        "status": "final",
        "subject": {
          "reference": "urn:uuid:250ba81e-94c0-41ac-9ee5-7cf86b54db60",
          "display": "Charlene Sharpe"
        },
        "date": "2024-08-07T02:49:39Z",
        "title": "Laboratory Report",
        "confidentiality": "N"
      }
    },
    {
      "fullUrl": "urn:uuid:c6526d8c-a281-4419-8cb6-1b7d7b0f8ce1",
      "resource": {
        "resourceType": "DiagnosticReport",
        "id": "c6526d8c-a281-4419-8cb6-1b7d7b0f8ce1",
        "meta": {
          "profile": [
            "http://hl7.eu/fhir/laboratory/StructureDefinition/DiagnosticReport-eu-lab"
          ]
        },
        "identifier": [
          {
            "assigner": {
              "display": "HL7 Europe"
            },
            "system": "urn:oid:2.16.840.1.113883.2.51.999",
            "value": "de84cf5d-195d-4e38-ae87-fea338bd904d"
          }
        ],
        "extension": [
          {
            "url": "http://hl7.org/fhir/5.0/StructureDefinition/extension-DiagnosticReport.composition",
            "valueReference": {
              "reference": "urn:uuid:89f383cf-d908-4cf5-af3f-19258ef2bb72"
            }
          }
        ],
        "category": [
          {
            "coding": [
              {
                "code": "26436-6",
                "system": "http://loinc.org",
                "display": "Laboratory studies (set)"
              }
            ]
          }
        ],
        "specimen": [
          {
            "reference": "urn:uuid:e8ab9704-2492-4727-919c-8d7074601918"
          },
          {
            "reference": "urn:uuid:592c33dd-5474-42bf-926e-0ebd842f9684"
          },
          {
            "reference": "urn:uuid:592c33dd-5474-42bf-926e-0ebd842f9684"
          }
        ],
        "result": [
          {
            "reference": "urn:uuid:d8400df0-899f-4633-a1ef-ce505a79c807"
          },
          {
            "reference": "urn:uuid:5f5d03dc-1d52-4081-8661-a55fd15df1d7"
          },
          {
            "reference": "urn:uuid:27d72fdc-fcac-4c69-8d1a-a59c251b7c1a"
          },
          {
            "reference": "urn:uuid:bc84c4db-2816-4bc0-ab82-56d3991b952c"
          },
          {
            "reference": "urn:uuid:ee432778-66cb-4e28-8bd6-c2207db4d9ae"
          },
          {
            "reference": "urn:uuid:8e587d9d-be43-42bd-a5be-473db0db2469"
          },
          {
            "reference": "urn:uuid:ad717425-5790-4e2a-9717-370699073da2"
          },
          {
            "reference": "urn:uuid:4f71451b-b606-4d23-a0f5-ca418bd1be31"
          },
          {
            "reference": "urn:uuid:b645c887-ae71-4067-8405-925ac63a423b"
          },
          {
            "reference": "urn:uuid:e122b81a-0430-4ff6-b1c8-7b6c22774b94"
          },
          {
            "reference": "urn:uuid:2c8c720b-e167-4707-9a7a-7bf2286516bd"
          },
          {
            "reference": "urn:uuid:eedea2e5-6354-4dad-bb57-bed294814de6"
          },
          {
            "reference": "urn:uuid:37cfe411-9854-47fc-b6fd-d358f7dcb162"
          },
          {
            "reference": "urn:uuid:d29d9e65-0ff8-41e9-bd77-0a2e0245add2"
          },
          {
            "reference": "urn:uuid:974d0742-837f-4edb-852c-dbf35e20027b"
          }
        ],
        "status": "registered",
        "code": {
          "coding": [
            {
              "code": "11502-2",
              "system": "http://loinc.org",
              "display": "Laboratory report"
            }
          ]
        },
        "subject": {
          "reference": "urn:uuid:250ba81e-94c0-41ac-9ee5-7cf86b54db60",
          "display": "Charlene Sharpe"
        }
      }
    },
    {
      "fullUrl": "urn:uuid:250ba81e-94c0-41ac-9ee5-7cf86b54db60",
      "resource": {
        "resourceType": "Patient",
        "id": "250ba81e-94c0-41ac-9ee5-7cf86b54db60",
        "meta": {
          "security": [
            {
              "system": "http://terminology.hl7.org/CodeSystem/v3-ActReason",
              "code": "HTEST"
            },
            {
              "system": "http://terminology.hl7.org/CodeSystem/v3-ActReason",
              "code": "TRAIN"
            }
          ],
          "tag": [
            {
              "system": "https://synderai.net/fhir/CodeSystem/tags",
              "code": "synthetic",
              "display": "SYNDERAI Synthetic data"
            }
          ],
          "profile": [
            "http://hl7.eu/fhir/base/StructureDefinition/patient-eu-core"
          ]
        },
        "identifier": [
          {
            "type": {
              "coding": [
                {
                  "code": "PT",
                  "system": "http://terminology.hl7.org/CodeSystem/v2-0203"
                }
              ]
            },
            "system": "http://ec.europa.eu/identifier/eci",
            "value": "1398-333111-0"
          },
          {
            "type": {
              "coding": [
                {
                  "code": "MR",
                  "system": "http://terminology.hl7.org/CodeSystem/v2-0203"
                }
              ]
            },
            "system": "http://local.setting.eu/identifier",
            "value": "6fe0fe4a-b508-d942-a7a7-576f68360f0d"
          }
        ],
        "name": [
          {
            "family": "Sharpe"
          },
          {
            "given": [
              "Charlene"
            ]
          },
          {
            "text": "Charlene Sharpe"
          }
        ],
        "address": [
          {
            "line": [
              "Studio 63",
              "Jenkins dale"
            ],
            "use": "home",
            "type": "physical",
            "postalCode": "SW1A",
            "city": "London",
            "country": "United Kingdom"
          }
        ],
        "telecom": [
          {
            "system": "phone",
            "value": "+44289018242"
          }
        ],
        "extension": [
          {
            "url": "http://hl7.org/fhir/StructureDefinition/patient-nationality",
            "valueCodeableConcept": {
              "coding": [
                {
                  "code": "GB",
                  "system": "http://hl7.org/fhir/ValueSet/country"
                }
              ]
            }
          }
        ],
        "text": {
          "status": "generated",
          "div": "<div xmlns=\"http://www.w3.org/1999/xhtml\"><table class=\"hl7__ips\"><tr><td>Charlene Sharpe</td><td>female</td><td>20-Jun-1991</td></tr></table></div>"
        },
        "gender": "female",
        "birthDate": "1991-06-20"
      }
    },
    {
      "fullUrl": "urn:uuid:bd4c55fd-cf63-4508-b749-7502fe0907e5",
      "resource": {
        "resourceType": "ServiceRequest",
        "id": "bd4c55fd-cf63-4508-b749-7502fe0907e5",
        "meta": {
          "profile": [
            "http://hl7.eu/fhir/laboratory/StructureDefinition/ServiceRequest-eu-lab"
          ]
        },
        "identifier": [
          {
            "system": "http://example.org",
            "value": "16921444-93dd-4e74-901f-8cb86b6aa3fa"
          }
        ],
        "specimen": [
          {
            "reference": "urn:uuid:e8ab9704-2492-4727-919c-8d7074601918"
          },
          {
            "reference": "urn:uuid:592c33dd-5474-42bf-926e-0ebd842f9684"
          }
        ],
        "status": "active",
        "intent": "order",
        "code": {
          "coding": [
            {
              "code": "108252007",
              "system": "http://snomed.info/sct",
              "display": "Laboratory procedure"
            }
          ]
        },
        "subject": {
          "reference": "urn:uuid:250ba81e-94c0-41ac-9ee5-7cf86b54db60",
          "display": "Charlene Sharpe"
        },
        "requester": {
          "reference": "urn:uuid:aec9624b-8fd2-4b38-a250-8c655139656a"
        }
      }
    },
    {
      "fullUrl": "urn:uuid:aec9624b-8fd2-4b38-a250-8c655139656a",
      "resource": {
        "resourceType": "PractitionerRole",
        "id": "aec9624b-8fd2-4b38-a250-8c655139656a",
        "meta": {
          "profile": [
            "http://hl7.eu/fhir/base/StructureDefinition/practitionerRole-eu"
          ]
        },
        "text": {
          "status": "generated",
          "div": "<div xmlns=\"http://www.w3.org/1999/xhtml\">Provider Role Id: aec9624b-8fd2-4b38-a250-8c655139656a</div>"
        },
        "organization": {
          "reference": "urn:uuid:f2499364-dae2-4b23-8dd3-333dedb7241d"
        }
      }
    },
    {
      "fullUrl": "urn:uuid:f2499364-dae2-4b23-8dd3-333dedb7241d",
      "resource": {
        "resourceType": "Organization",
        "id": "f2499364-dae2-4b23-8dd3-333dedb7241d",
        "meta": {
          "profile": [
            "http://hl7.eu/fhir/base/StructureDefinition/organization-eu"
          ]
        },
        "identifier": [
          {
            "assigner": {
              "display": "HL7 Europe"
            },
            "system": "urn:oid:2.16.840.1.113883.2.51.999",
            "value": "8321bbe0-7a00-4457-a76a-30771a5cf15f"
          }
        ],
        "address": [
          {
            "city": "London",
            "postalCode": "SE1 7",
            "country": "United Kingdom"
          }
        ],
        "text": {
          "status": "generated",
          "div": "<div xmlns=\"http://www.w3.org/1999/xhtml\">Provider Organization: Evelina Children&#039;s Hospital</div>"
        },
        "name": "Evelina Children&#039;s Hospital"
      }
    },
    {
      "fullUrl": "urn:uuid:e8ab9704-2492-4727-919c-8d7074601918",
      "resource": {
        "resourceType": "Specimen",
        "id": "e8ab9704-2492-4727-919c-8d7074601918",
        "meta": {
          "profile": [
            "http://hl7.eu/fhir/laboratory/StructureDefinition/Specimen-eu-lab"
          ]
        },
        "collection": {
          "collectedDateTime": "2024-08-07"
        },
        "text": {
          "status": "generated",
          "div": "<div xmlns=\"http://www.w3.org/1999/xhtml\"><table class=\"hl7__eu__lab__report\"><tr><th>Specimen</th><th>Collection Date</th></tr><tr><td>Acellular blood (serum or plasma) specimen</td><td><span class=\"nb\">07-Aug-2024</span></td></tr></table></div>"
        },
        "type": {
          "coding": [
            {
              "code": "122592007",
              "system": "http://snomed.info/sct",
              "display": "Acellular blood (serum or plasma) specimen"
            }
          ]
        }
      }
    },
    {
      "fullUrl": "urn:uuid:592c33dd-5474-42bf-926e-0ebd842f9684",
      "resource": {
        "resourceType": "Specimen",
        "id": "592c33dd-5474-42bf-926e-0ebd842f9684",
        "meta": {
          "profile": [
            "http://hl7.eu/fhir/laboratory/StructureDefinition/Specimen-eu-lab"
          ]
        },
        "collection": {
          "collectedDateTime": "2024-08-07"
        },
        "text": {
          "status": "generated",
          "div": "<div xmlns=\"http://www.w3.org/1999/xhtml\"><table class=\"hl7__eu__lab__report\"><tr><th>Specimen</th><th>Collection Date</th></tr><tr><td>Whole blood specimen (specimen)</td><td><span class=\"nb\">07-Aug-2024</span></td></tr></table></div>"
        },
        "type": {
          "coding": [
            {
              "code": "258580003",
              "system": "http://snomed.info/sct",
              "display": "Whole blood specimen (specimen)"
            }
          ]
        }
      }
    },
    {
      "fullUrl": "urn:uuid:592c33dd-5474-42bf-926e-0ebd842f9684",
      "resource": {
        "resourceType": "Specimen",
        "id": "592c33dd-5474-42bf-926e-0ebd842f9684",
        "meta": {
          "profile": [
            "http://hl7.eu/fhir/laboratory/StructureDefinition/Specimen-eu-lab"
          ]
        },
        "collection": {
          "collectedDateTime": "2024-08-07"
        },
        "text": {
          "status": "generated",
          "div": "<div xmlns=\"http://www.w3.org/1999/xhtml\"><table class=\"hl7__eu__lab__report\"><tr><th>Specimen</th><th>Collection Date</th></tr><tr><td>Whole blood specimen (specimen)</td><td><span class=\"nb\">07-Aug-2024</span></td></tr></table></div>"
        },
        "type": {
          "coding": [
            {
              "code": "258580003",
              "system": "http://snomed.info/sct",
              "display": "Whole blood specimen (specimen)"
            }
          ]
        }
      }
    },
    {
      "fullUrl": "urn:uuid:d8400df0-899f-4633-a1ef-ce505a79c807",
      "resource": {
        "resourceType": "Observation",
        "id": "d8400df0-899f-4633-a1ef-ce505a79c807",
        "meta": {
          "profile": [
            "http://hl7.eu/fhir/laboratory/StructureDefinition/Observation-resultslab-eu-lab"
          ]
        },
        "performer": [
          {
            "display": "The Central European Lab"
          }
        ],
        "category": [
          {
            "coding": [
              {
                "system": "http://terminology.hl7.org/CodeSystem/observation-category",
                "code": "laboratory"
              }
            ]
          }
        ],
        "code": {
          "coding": [
            {
              "code": "2093-3",
              "system": "http://loinc.org",
              "display": "Cholesterol [Mass/volume] in Serum or Plasma"
            }
          ],
          "text": "Cholesterol [Mass/volume] in Serum or Plasma"
        },
        "valueQuantity": {
          "system": "http://unitsofmeasure.org",
          "value": 147.2,
          "unit": "mg/dL",
          "code": "mg/dL"
        },
        "referenceRange": [
          {
            "low": {
              "value": 125,
              "code": "mg/dL",
              "system": "http://unitsofmeasure.org"
            }
          },
          {
            "high": {
              "value": 200,
              "code": "mg/dL",
              "system": "http://unitsofmeasure.org"
            }
          }
        ],
        "text": {
          "status": "generated",
          "div": "<div xmlns=\"http://www.w3.org/1999/xhtml\"><table class=\"hl7__eu__lab__report\"><tr><th>Test</th><th>07-Aug-2024</th><th>Reference&#xA0;Range</th><th>Unit</th></tr><tr><td>Cholesterol [Mass/volume] in Serum or Plasma</td><td>147.2</td><td>125 - 200</td><td></td><td>mg/dL</td></tr></table></div>"
        },
        "status": "final",
        "subject": {
          "reference": "urn:uuid:250ba81e-94c0-41ac-9ee5-7cf86b54db60",
          "display": "Charlene Sharpe"
        },
        "effectiveDateTime": "2024-08-07T00:49:39Z",
        "specimen": {
          "reference": "urn:uuid:e8ab9704-2492-4727-919c-8d7074601918"
        }
      }
    },
    {
      "fullUrl": "urn:uuid:5f5d03dc-1d52-4081-8661-a55fd15df1d7",
      "resource": {
        "resourceType": "Observation",
        "id": "5f5d03dc-1d52-4081-8661-a55fd15df1d7",
        "meta": {
          "profile": [
            "http://hl7.eu/fhir/laboratory/StructureDefinition/Observation-resultslab-eu-lab"
          ]
        },
        "performer": [
          {
            "display": "The Central European Lab"
          }
        ],
        "category": [
          {
            "coding": [
              {
                "system": "http://terminology.hl7.org/CodeSystem/observation-category",
                "code": "laboratory"
              }
            ]
          }
        ],
        "code": {
          "coding": [
            {
              "code": "2571-8",
              "system": "http://loinc.org",
              "display": "Triglyceride [Mass/volume] in Serum or Plasma"
            }
          ],
          "text": "Triglyceride [Mass/volume] in Serum or Plasma"
        },
        "valueQuantity": {
          "system": "http://unitsofmeasure.org",
          "value": 123.7,
          "unit": "mg/dL",
          "code": "mg/dL"
        },
        "referenceRange": [
          {
            "low": {
              "value": 35,
              "code": "mg/dL",
              "system": "http://unitsofmeasure.org"
            }
          },
          {
            "high": {
              "value": 150,
              "code": "mg/dL",
              "system": "http://unitsofmeasure.org"
            }
          }
        ],
        "text": {
          "status": "generated",
          "div": "<div xmlns=\"http://www.w3.org/1999/xhtml\"><table class=\"hl7__eu__lab__report\"><tr><th>Test</th><th>07-Aug-2024</th><th>Reference&#xA0;Range</th><th>Unit</th></tr><tr><td>Triglyceride [Mass/volume] in Serum or Plasma</td><td>123.7</td><td>35 - 150</td><td></td><td>mg/dL</td></tr></table></div>"
        },
        "status": "final",
        "subject": {
          "reference": "urn:uuid:250ba81e-94c0-41ac-9ee5-7cf86b54db60",
          "display": "Charlene Sharpe"
        },
        "effectiveDateTime": "2024-08-07T00:49:39Z",
        "specimen": {
          "reference": "urn:uuid:e8ab9704-2492-4727-919c-8d7074601918"
        }
      }
    },
    {
      "fullUrl": "urn:uuid:27d72fdc-fcac-4c69-8d1a-a59c251b7c1a",
      "resource": {
        "resourceType": "Observation",
        "id": "27d72fdc-fcac-4c69-8d1a-a59c251b7c1a",
        "meta": {
          "profile": [
            "http://hl7.eu/fhir/laboratory/StructureDefinition/Observation-resultslab-eu-lab"
          ]
        },
        "performer": [
          {
            "display": "The Central European Lab"
          }
        ],
        "category": [
          {
            "coding": [
              {
                "system": "http://terminology.hl7.org/CodeSystem/observation-category",
                "code": "laboratory"
              }
            ]
          }
        ],
        "code": {
          "coding": [
            {
              "code": "18262-6",
              "system": "http://loinc.org",
              "display": "Cholesterol in LDL [Mass/volume] in Serum or Plasma by Direct assay"
            }
          ],
          "text": "Cholesterol in LDL [Mass/volume] in Serum or Plasma by Direct assay"
        },
        "valueQuantity": {
          "system": "http://unitsofmeasure.org",
          "value": 63.8,
          "unit": "mg/dL",
          "code": "mg/dL"
        },
        "referenceRange": [
          {
            "low": {
              "value": 0,
              "code": "mg/dL",
              "system": "http://unitsofmeasure.org"
            }
          },
          {
            "high": {
              "value": 130,
              "code": "mg/dL",
              "system": "http://unitsofmeasure.org"
            }
          }
        ],
        "text": {
          "status": "generated",
          "div": "<div xmlns=\"http://www.w3.org/1999/xhtml\"><table class=\"hl7__eu__lab__report\"><tr><th>Test</th><th>07-Aug-2024</th><th>Reference&#xA0;Range</th><th>Unit</th></tr><tr><td>Cholesterol in LDL [Mass/volume] in Serum or Plasma by Direct assay</td><td>63.8</td><td>0 - 130</td><td></td><td>mg/dL</td></tr></table></div>"
        },
        "status": "final",
        "subject": {
          "reference": "urn:uuid:250ba81e-94c0-41ac-9ee5-7cf86b54db60",
          "display": "Charlene Sharpe"
        },
        "effectiveDateTime": "2024-08-07T00:49:39Z",
        "specimen": {
          "reference": "urn:uuid:e8ab9704-2492-4727-919c-8d7074601918"
        }
      }
    },
    {
      "fullUrl": "urn:uuid:bc84c4db-2816-4bc0-ab82-56d3991b952c",
      "resource": {
        "resourceType": "Observation",
        "id": "bc84c4db-2816-4bc0-ab82-56d3991b952c",
        "meta": {
          "profile": [
            "http://hl7.eu/fhir/laboratory/StructureDefinition/Observation-resultslab-eu-lab"
          ]
        },
        "performer": [
          {
            "display": "The Central European Lab"
          }
        ],
        "category": [
          {
            "coding": [
              {
                "system": "http://terminology.hl7.org/CodeSystem/observation-category",
                "code": "laboratory"
              }
            ]
          }
        ],
        "code": {
          "coding": [
            {
              "code": "2085-9",
              "system": "http://loinc.org",
              "display": "Cholesterol in HDL [Mass/volume] in Serum or Plasma"
            }
          ],
          "text": "Cholesterol in HDL [Mass/volume] in Serum or Plasma"
        },
        "valueQuantity": {
          "system": "http://unitsofmeasure.org",
          "value": 58.7,
          "unit": "mg/dL",
          "code": "mg/dL"
        },
        "referenceRange": [
          {
            "low": {
              "value": 40,
              "code": "mg/dL",
              "system": "http://unitsofmeasure.org"
            }
          },
          {
            "high": {
              "value": 60,
              "code": "mg/dL",
              "system": "http://unitsofmeasure.org"
            }
          }
        ],
        "text": {
          "status": "generated",
          "div": "<div xmlns=\"http://www.w3.org/1999/xhtml\"><table class=\"hl7__eu__lab__report\"><tr><th>Test</th><th>07-Aug-2024</th><th>Reference&#xA0;Range</th><th>Unit</th></tr><tr><td>Cholesterol in HDL [Mass/volume] in Serum or Plasma</td><td>58.7</td><td>40 - 60</td><td></td><td>mg/dL</td></tr></table></div>"
        },
        "status": "final",
        "subject": {
          "reference": "urn:uuid:250ba81e-94c0-41ac-9ee5-7cf86b54db60",
          "display": "Charlene Sharpe"
        },
        "effectiveDateTime": "2024-08-07T00:49:39Z",
        "specimen": {
          "reference": "urn:uuid:e8ab9704-2492-4727-919c-8d7074601918"
        }
      }
    },
    {
      "fullUrl": "urn:uuid:ee432778-66cb-4e28-8bd6-c2207db4d9ae",
      "resource": {
        "resourceType": "Observation",
        "id": "ee432778-66cb-4e28-8bd6-c2207db4d9ae",
        "meta": {
          "profile": [
            "http://hl7.eu/fhir/laboratory/StructureDefinition/Observation-resultslab-eu-lab"
          ]
        },
        "performer": [
          {
            "display": "The Central European Lab"
          }
        ],
        "category": [
          {
            "coding": [
              {
                "system": "http://terminology.hl7.org/CodeSystem/observation-category",
                "code": "laboratory"
              }
            ]
          }
        ],
        "code": {
          "coding": [
            {
              "code": "6690-2",
              "system": "http://loinc.org",
              "display": "Leukocytes [#/volume] in Blood by Automated count"
            }
          ],
          "text": "Leukocytes [#/volume] in Blood by Automated count"
        },
        "valueQuantity": {
          "system": "http://unitsofmeasure.org",
          "value": 7.5,
          "unit": "10*3/uL",
          "code": "10*3/uL"
        },
        "referenceRange": [
          {
            "low": {
              "value": 3.5,
              "code": "10*3/uL",
              "system": "http://unitsofmeasure.org"
            }
          },
          {
            "high": {
              "value": 10.5,
              "code": "10*3/uL",
              "system": "http://unitsofmeasure.org"
            }
          }
        ],
        "text": {
          "status": "generated",
          "div": "<div xmlns=\"http://www.w3.org/1999/xhtml\"><table class=\"hl7__eu__lab__report\"><tr><th>Test</th><th>07-Aug-2024</th><th>Reference&#xA0;Range</th><th>Unit</th></tr><tr><td>Leukocytes [#/volume] in Blood by Automated count</td><td>7.5</td><td>3.5 - 10.5</td><td></td><td>10*3/uL</td></tr></table></div>"
        },
        "status": "final",
        "subject": {
          "reference": "urn:uuid:250ba81e-94c0-41ac-9ee5-7cf86b54db60",
          "display": "Charlene Sharpe"
        },
        "effectiveDateTime": "2024-08-07T00:49:39Z",
        "specimen": {
          "reference": "urn:uuid:592c33dd-5474-42bf-926e-0ebd842f9684"
        }
      }
    },
    {
      "fullUrl": "urn:uuid:8e587d9d-be43-42bd-a5be-473db0db2469",
      "resource": {
        "resourceType": "Observation",
        "id": "8e587d9d-be43-42bd-a5be-473db0db2469",
        "meta": {
          "profile": [
            "http://hl7.eu/fhir/laboratory/StructureDefinition/Observation-resultslab-eu-lab"
          ]
        },
        "performer": [
          {
            "display": "The Central European Lab"
          }
        ],
        "category": [
          {
            "coding": [
              {
                "system": "http://terminology.hl7.org/CodeSystem/observation-category",
                "code": "laboratory"
              }
            ]
          }
        ],
        "code": {
          "coding": [
            {
              "code": "789-8",
              "system": "http://loinc.org",
              "display": "Erythrocytes [#/volume] in Blood by Automated count"
            }
          ],
          "text": "Erythrocytes [#/volume] in Blood by Automated count"
        },
        "valueQuantity": {
          "system": "http://unitsofmeasure.org",
          "value": 5,
          "unit": "10*6/uL",
          "code": "10*6/uL"
        },
        "referenceRange": [
          {
            "low": {
              "value": 4.5,
              "code": "10*6/uL",
              "system": "http://unitsofmeasure.org"
            }
          },
          {
            "high": {
              "value": 5.5,
              "code": "10*6/uL",
              "system": "http://unitsofmeasure.org"
            }
          }
        ],
        "text": {
          "status": "generated",
          "div": "<div xmlns=\"http://www.w3.org/1999/xhtml\"><table class=\"hl7__eu__lab__report\"><tr><th>Test</th><th>07-Aug-2024</th><th>Reference&#xA0;Range</th><th>Unit</th></tr><tr><td>Erythrocytes [#/volume] in Blood by Automated count</td><td>5.0</td><td>4.5 - 5.5</td><td></td><td>10*6/uL</td></tr></table></div>"
        },
        "status": "final",
        "subject": {
          "reference": "urn:uuid:250ba81e-94c0-41ac-9ee5-7cf86b54db60",
          "display": "Charlene Sharpe"
        },
        "effectiveDateTime": "2024-08-07T00:49:39Z",
        "specimen": {
          "reference": "urn:uuid:592c33dd-5474-42bf-926e-0ebd842f9684"
        }
      }
    },
    {
      "fullUrl": "urn:uuid:ad717425-5790-4e2a-9717-370699073da2",
      "resource": {
        "resourceType": "Observation",
        "id": "ad717425-5790-4e2a-9717-370699073da2",
        "meta": {
          "profile": [
            "http://hl7.eu/fhir/laboratory/StructureDefinition/Observation-resultslab-eu-lab"
          ]
        },
        "performer": [
          {
            "display": "The Central European Lab"
          }
        ],
        "category": [
          {
            "coding": [
              {
                "system": "http://terminology.hl7.org/CodeSystem/observation-category",
                "code": "laboratory"
              }
            ]
          }
        ],
        "code": {
          "coding": [
            {
              "code": "718-7",
              "system": "http://loinc.org",
              "display": "Hemoglobin [Mass/volume] in Blood"
            }
          ],
          "text": "Hemoglobin [Mass/volume] in Blood"
        },
        "valueQuantity": {
          "system": "http://unitsofmeasure.org",
          "value": 14.2,
          "unit": "g/dL",
          "code": "g/dL"
        },
        "referenceRange": [
          {
            "low": {
              "value": 12,
              "code": "g/dL",
              "system": "http://unitsofmeasure.org"
            }
          },
          {
            "high": {
              "value": 16,
              "code": "g/dL",
              "system": "http://unitsofmeasure.org"
            }
          }
        ],
        "text": {
          "status": "generated",
          "div": "<div xmlns=\"http://www.w3.org/1999/xhtml\"><table class=\"hl7__eu__lab__report\"><tr><th>Test</th><th>07-Aug-2024</th><th>Reference&#xA0;Range</th><th>Unit</th></tr><tr><td>Hemoglobin [Mass/volume] in Blood</td><td>14.2</td><td>12 - 16</td><td></td><td>g/dL</td></tr></table></div>"
        },
        "status": "final",
        "subject": {
          "reference": "urn:uuid:250ba81e-94c0-41ac-9ee5-7cf86b54db60",
          "display": "Charlene Sharpe"
        },
        "effectiveDateTime": "2024-08-07T00:49:39Z",
        "specimen": {
          "reference": "urn:uuid:592c33dd-5474-42bf-926e-0ebd842f9684"
        }
      }
    },
    {
      "fullUrl": "urn:uuid:4f71451b-b606-4d23-a0f5-ca418bd1be31",
      "resource": {
        "resourceType": "Observation",
        "id": "4f71451b-b606-4d23-a0f5-ca418bd1be31",
        "meta": {
          "profile": [
            "http://hl7.eu/fhir/laboratory/StructureDefinition/Observation-resultslab-eu-lab"
          ]
        },
        "performer": [
          {
            "display": "The Central European Lab"
          }
        ],
        "category": [
          {
            "coding": [
              {
                "system": "http://terminology.hl7.org/CodeSystem/observation-category",
                "code": "laboratory"
              }
            ]
          }
        ],
        "code": {
          "coding": [
            {
              "code": "4544-3",
              "system": "http://loinc.org",
              "display": "Hematocrit [Volume Fraction] of Blood by Automated count"
            }
          ],
          "text": "Hematocrit [Volume Fraction] of Blood by Automated count"
        },
        "valueQuantity": {
          "system": "http://unitsofmeasure.org",
          "value": 39.4,
          "unit": "%",
          "code": "%"
        },
        "referenceRange": [
          {
            "low": {
              "value": 36,
              "code": "%",
              "system": "http://unitsofmeasure.org"
            }
          },
          {
            "high": {
              "value": 48,
              "code": "%",
              "system": "http://unitsofmeasure.org"
            }
          }
        ],
        "text": {
          "status": "generated",
          "div": "<div xmlns=\"http://www.w3.org/1999/xhtml\"><table class=\"hl7__eu__lab__report\"><tr><th>Test</th><th>07-Aug-2024</th><th>Reference&#xA0;Range</th><th>Unit</th></tr><tr><td>Hematocrit [Volume Fraction] of Blood by Automated count</td><td>39.4</td><td>36 - 48</td><td></td><td>%</td></tr></table></div>"
        },
        "status": "final",
        "subject": {
          "reference": "urn:uuid:250ba81e-94c0-41ac-9ee5-7cf86b54db60",
          "display": "Charlene Sharpe"
        },
        "effectiveDateTime": "2024-08-07T00:49:39Z",
        "specimen": {
          "reference": "urn:uuid:592c33dd-5474-42bf-926e-0ebd842f9684"
        }
      }
    },
    {
      "fullUrl": "urn:uuid:b645c887-ae71-4067-8405-925ac63a423b",
      "resource": {
        "resourceType": "Observation",
        "id": "b645c887-ae71-4067-8405-925ac63a423b",
        "meta": {
          "profile": [
            "http://hl7.eu/fhir/laboratory/StructureDefinition/Observation-resultslab-eu-lab"
          ]
        },
        "performer": [
          {
            "display": "The Central European Lab"
          }
        ],
        "category": [
          {
            "coding": [
              {
                "system": "http://terminology.hl7.org/CodeSystem/observation-category",
                "code": "laboratory"
              }
            ]
          }
        ],
        "code": {
          "coding": [
            {
              "code": "787-2",
              "system": "http://loinc.org",
              "display": "MCV [Entitic volume] by Automated count"
            }
          ],
          "text": "MCV [Entitic volume] by Automated count"
        },
        "valueQuantity": {
          "system": "http://unitsofmeasure.org",
          "value": 90.1,
          "unit": "fL",
          "code": "fL"
        },
        "referenceRange": [
          {
            "low": {
              "value": 82,
              "code": "fL",
              "system": "http://unitsofmeasure.org"
            }
          },
          {
            "high": {
              "value": 98,
              "code": "fL",
              "system": "http://unitsofmeasure.org"
            }
          }
        ],
        "text": {
          "status": "generated",
          "div": "<div xmlns=\"http://www.w3.org/1999/xhtml\"><table class=\"hl7__eu__lab__report\"><tr><th>Test</th><th>07-Aug-2024</th><th>Reference&#xA0;Range</th><th>Unit</th></tr><tr><td>MCV [Entitic volume] by Automated count</td><td>90.1</td><td>82 - 98</td><td></td><td>fL</td></tr></table></div>"
        },
        "status": "final",
        "subject": {
          "reference": "urn:uuid:250ba81e-94c0-41ac-9ee5-7cf86b54db60",
          "display": "Charlene Sharpe"
        },
        "effectiveDateTime": "2024-08-07T00:49:39Z",
        "specimen": {
          "reference": "urn:uuid:592c33dd-5474-42bf-926e-0ebd842f9684"
        }
      }
    },
    {
      "fullUrl": "urn:uuid:e122b81a-0430-4ff6-b1c8-7b6c22774b94",
      "resource": {
        "resourceType": "Observation",
        "id": "e122b81a-0430-4ff6-b1c8-7b6c22774b94",
        "meta": {
          "profile": [
            "http://hl7.eu/fhir/laboratory/StructureDefinition/Observation-resultslab-eu-lab"
          ]
        },
        "performer": [
          {
            "display": "The Central European Lab"
          }
        ],
        "category": [
          {
            "coding": [
              {
                "system": "http://terminology.hl7.org/CodeSystem/observation-category",
                "code": "laboratory"
              }
            ]
          }
        ],
        "code": {
          "coding": [
            {
              "code": "785-6",
              "system": "http://loinc.org",
              "display": "MCH [Entitic mass] by Automated count"
            }
          ],
          "text": "MCH [Entitic mass] by Automated count"
        },
        "valueQuantity": {
          "system": "http://unitsofmeasure.org",
          "value": 31.5,
          "unit": "pg",
          "code": "pg"
        },
        "referenceRange": [
          {
            "low": {
              "value": 27.5,
              "code": "pg",
              "system": "http://unitsofmeasure.org"
            }
          },
          {
            "high": {
              "value": 34.5,
              "code": "pg",
              "system": "http://unitsofmeasure.org"
            }
          }
        ],
        "text": {
          "status": "generated",
          "div": "<div xmlns=\"http://www.w3.org/1999/xhtml\"><table class=\"hl7__eu__lab__report\"><tr><th>Test</th><th>07-Aug-2024</th><th>Reference&#xA0;Range</th><th>Unit</th></tr><tr><td>MCH [Entitic mass] by Automated count</td><td>31.5</td><td>27.5 - 34.5</td><td></td><td>pg</td></tr></table></div>"
        },
        "status": "final",
        "subject": {
          "reference": "urn:uuid:250ba81e-94c0-41ac-9ee5-7cf86b54db60",
          "display": "Charlene Sharpe"
        },
        "effectiveDateTime": "2024-08-07T00:49:39Z",
        "specimen": {
          "reference": "urn:uuid:592c33dd-5474-42bf-926e-0ebd842f9684"
        }
      }
    },
    {
      "fullUrl": "urn:uuid:2c8c720b-e167-4707-9a7a-7bf2286516bd",
      "resource": {
        "resourceType": "Observation",
        "id": "2c8c720b-e167-4707-9a7a-7bf2286516bd",
        "meta": {
          "profile": [
            "http://hl7.eu/fhir/laboratory/StructureDefinition/Observation-resultslab-eu-lab"
          ]
        },
        "performer": [
          {
            "display": "The Central European Lab"
          }
        ],
        "category": [
          {
            "coding": [
              {
                "system": "http://terminology.hl7.org/CodeSystem/observation-category",
                "code": "laboratory"
              }
            ]
          }
        ],
        "code": {
          "coding": [
            {
              "code": "786-4",
              "system": "http://loinc.org",
              "display": "MCHC [Mass/volume] by Automated count"
            }
          ],
          "text": "MCHC [Mass/volume] by Automated count"
        },
        "valueQuantity": {
          "system": "http://unitsofmeasure.org",
          "value": 35.7,
          "unit": "g/dL",
          "code": "g/dL"
        },
        "referenceRange": [
          {
            "low": {
              "value": 32,
              "code": "g/dL",
              "system": "http://unitsofmeasure.org"
            }
          },
          {
            "high": {
              "value": 37,
              "code": "g/dL",
              "system": "http://unitsofmeasure.org"
            }
          }
        ],
        "text": {
          "status": "generated",
          "div": "<div xmlns=\"http://www.w3.org/1999/xhtml\"><table class=\"hl7__eu__lab__report\"><tr><th>Test</th><th>07-Aug-2024</th><th>Reference&#xA0;Range</th><th>Unit</th></tr><tr><td>MCHC [Mass/volume] by Automated count</td><td>35.7</td><td>32 - 37</td><td></td><td>g/dL</td></tr></table></div>"
        },
        "status": "final",
        "subject": {
          "reference": "urn:uuid:250ba81e-94c0-41ac-9ee5-7cf86b54db60",
          "display": "Charlene Sharpe"
        },
        "effectiveDateTime": "2024-08-07T00:49:39Z",
        "specimen": {
          "reference": "urn:uuid:592c33dd-5474-42bf-926e-0ebd842f9684"
        }
      }
    },
    {
      "fullUrl": "urn:uuid:eedea2e5-6354-4dad-bb57-bed294814de6",
      "resource": {
        "resourceType": "Observation",
        "id": "eedea2e5-6354-4dad-bb57-bed294814de6",
        "meta": {
          "profile": [
            "http://hl7.eu/fhir/laboratory/StructureDefinition/Observation-resultslab-eu-lab"
          ]
        },
        "performer": [
          {
            "display": "The Central European Lab"
          }
        ],
        "category": [
          {
            "coding": [
              {
                "system": "http://terminology.hl7.org/CodeSystem/observation-category",
                "code": "laboratory"
              }
            ]
          }
        ],
        "code": {
          "coding": [
            {
              "code": "21000-5",
              "system": "http://loinc.org",
              "display": "Erythrocyte distribution width [Entitic volume] by Automated count"
            }
          ],
          "text": "Erythrocyte distribution width [Entitic volume] by Automated count"
        },
        "valueQuantity": {
          "system": "http://unitsofmeasure.org",
          "value": 46,
          "unit": "fL",
          "code": "fL"
        },
        "referenceRange": [
          {
            "low": {
              "value": 36,
              "code": "fL",
              "system": "http://unitsofmeasure.org"
            }
          },
          {
            "high": {
              "value": 55,
              "code": "fL",
              "system": "http://unitsofmeasure.org"
            }
          }
        ],
        "text": {
          "status": "generated",
          "div": "<div xmlns=\"http://www.w3.org/1999/xhtml\"><table class=\"hl7__eu__lab__report\"><tr><th>Test</th><th>07-Aug-2024</th><th>Reference&#xA0;Range</th><th>Unit</th></tr><tr><td>Erythrocyte distribution width [Entitic volume] by Automated count</td><td>46.0</td><td>36 - 55</td><td></td><td>fL</td></tr></table></div>"
        },
        "status": "final",
        "subject": {
          "reference": "urn:uuid:250ba81e-94c0-41ac-9ee5-7cf86b54db60",
          "display": "Charlene Sharpe"
        },
        "effectiveDateTime": "2024-08-07T00:49:39Z",
        "specimen": {
          "reference": "urn:uuid:592c33dd-5474-42bf-926e-0ebd842f9684"
        }
      }
    },
    {
      "fullUrl": "urn:uuid:37cfe411-9854-47fc-b6fd-d358f7dcb162",
      "resource": {
        "resourceType": "Observation",
        "id": "37cfe411-9854-47fc-b6fd-d358f7dcb162",
        "meta": {
          "profile": [
            "http://hl7.eu/fhir/laboratory/StructureDefinition/Observation-resultslab-eu-lab"
          ]
        },
        "performer": [
          {
            "display": "The Central European Lab"
          }
        ],
        "category": [
          {
            "coding": [
              {
                "system": "http://terminology.hl7.org/CodeSystem/observation-category",
                "code": "laboratory"
              }
            ]
          }
        ],
        "code": {
          "coding": [
            {
              "code": "777-3",
              "system": "http://loinc.org",
              "display": "Platelets [#/volume] in Blood by Automated count"
            }
          ],
          "text": "Platelets [#/volume] in Blood by Automated count"
        },
        "valueQuantity": {
          "system": "http://unitsofmeasure.org",
          "value": 343.1,
          "unit": "10*3/uL",
          "code": "10*3/uL"
        },
        "referenceRange": [
          {
            "low": {
              "value": 150,
              "code": "10*3/uL",
              "system": "http://unitsofmeasure.org"
            }
          },
          {
            "high": {
              "value": 450,
              "code": "10*3/uL",
              "system": "http://unitsofmeasure.org"
            }
          }
        ],
        "text": {
          "status": "generated",
          "div": "<div xmlns=\"http://www.w3.org/1999/xhtml\"><table class=\"hl7__eu__lab__report\"><tr><th>Test</th><th>07-Aug-2024</th><th>Reference&#xA0;Range</th><th>Unit</th></tr><tr><td>Platelets [#/volume] in Blood by Automated count</td><td>343.1</td><td>150 - 450</td><td></td><td>10*3/uL</td></tr></table></div>"
        },
        "status": "final",
        "subject": {
          "reference": "urn:uuid:250ba81e-94c0-41ac-9ee5-7cf86b54db60",
          "display": "Charlene Sharpe"
        },
        "effectiveDateTime": "2024-08-07T00:49:39Z",
        "specimen": {
          "reference": "urn:uuid:592c33dd-5474-42bf-926e-0ebd842f9684"
        }
      }
    },
    {
      "fullUrl": "urn:uuid:d29d9e65-0ff8-41e9-bd77-0a2e0245add2",
      "resource": {
        "resourceType": "Observation",
        "id": "d29d9e65-0ff8-41e9-bd77-0a2e0245add2",
        "meta": {
          "profile": [
            "http://hl7.eu/fhir/laboratory/StructureDefinition/Observation-resultslab-eu-lab"
          ]
        },
        "performer": [
          {
            "display": "The Central European Lab"
          }
        ],
        "category": [
          {
            "coding": [
              {
                "system": "http://terminology.hl7.org/CodeSystem/observation-category",
                "code": "laboratory"
              }
            ]
          }
        ],
        "code": {
          "coding": [
            {
              "code": "32207-3",
              "system": "http://loinc.org",
              "display": "Platelet distribution width [Entitic volume] in Blood by Automated count"
            }
          ],
          "text": "Platelet distribution width [Entitic volume] in Blood by Automated count"
        },
        "valueQuantity": {
          "system": "http://unitsofmeasure.org",
          "value": 305.1,
          "unit": "fL",
          "code": "fL"
        },
        "referenceRange": [
          {
            "low": {
              "value": 11,
              "code": "fL",
              "system": "http://unitsofmeasure.org"
            }
          },
          {
            "high": {
              "value": 15,
              "code": "fL",
              "system": "http://unitsofmeasure.org"
            }
          }
        ],
        "interpretation": [
          {
            "coding": [
              {
                "code": "H",
                "system": "http://terminology.hl7.org/CodeSystem/v3-ObservationInterpretation",
                "display": "High"
              }
            ]
          }
        ],
        "text": {
          "status": "generated",
          "div": "<div xmlns=\"http://www.w3.org/1999/xhtml\"><table class=\"hl7__eu__lab__report\"><tr><th>Test</th><th>07-Aug-2024</th><th>Reference&#xA0;Range</th><th>Unit</th></tr><tr><td>Platelet distribution width [Entitic volume] in Blood by Automated count</td><td>305.1</td><td>11 - 15</td><td>H</td><td>fL</td></tr></table></div>"
        },
        "status": "final",
        "subject": {
          "reference": "urn:uuid:250ba81e-94c0-41ac-9ee5-7cf86b54db60",
          "display": "Charlene Sharpe"
        },
        "effectiveDateTime": "2024-08-07T00:49:39Z",
        "specimen": {
          "reference": "urn:uuid:592c33dd-5474-42bf-926e-0ebd842f9684"
        }
      }
    },
    {
      "fullUrl": "urn:uuid:974d0742-837f-4edb-852c-dbf35e20027b",
      "resource": {
        "resourceType": "Observation",
        "id": "974d0742-837f-4edb-852c-dbf35e20027b",
        "meta": {
          "profile": [
            "http://hl7.eu/fhir/laboratory/StructureDefinition/Observation-resultslab-eu-lab"
          ]
        },
        "performer": [
          {
            "display": "The Central European Lab"
          }
        ],
        "category": [
          {
            "coding": [
              {
                "system": "http://terminology.hl7.org/CodeSystem/observation-category",
                "code": "laboratory"
              }
            ]
          }
        ],
        "code": {
          "coding": [
            {
              "code": "32623-1",
              "system": "http://loinc.org",
              "display": "Platelet mean volume [Entitic volume] in Blood by Automated count"
            }
          ],
          "text": "Platelet mean volume [Entitic volume] in Blood by Automated count"
        },
        "valueQuantity": {
          "system": "http://unitsofmeasure.org",
          "value": 9.8,
          "unit": "fL",
          "code": "fL"
        },
        "referenceRange": [
          {
            "low": {
              "value": 7.2,
              "code": "fL",
              "system": "http://unitsofmeasure.org"
            }
          },
          {
            "high": {
              "value": 13.8,
              "code": "fL",
              "system": "http://unitsofmeasure.org"
            }
          }
        ],
        "text": {
          "status": "generated",
          "div": "<div xmlns=\"http://www.w3.org/1999/xhtml\"><table class=\"hl7__eu__lab__report\"><tr><th>Test</th><th>07-Aug-2024</th><th>Reference&#xA0;Range</th><th>Unit</th></tr><tr><td>Platelet mean volume [Entitic volume] in Blood by Automated count</td><td>9.8</td><td>7.2 - 13.8</td><td></td><td>fL</td></tr></table></div>"
        },
        "status": "final",
        "subject": {
          "reference": "urn:uuid:250ba81e-94c0-41ac-9ee5-7cf86b54db60",
          "display": "Charlene Sharpe"
        },
        "effectiveDateTime": "2024-08-07T00:49:39Z",
        "specimen": {
          "reference": "urn:uuid:592c33dd-5474-42bf-926e-0ebd842f9684"
        }
      }
    },
    {
      "fullUrl": "urn:uuid:cf35cba3-b4d4-48f3-8d10-9e9490109aa1",
      "resource": {
        "resourceType": "Device",
        "id": "cf35cba3-b4d4-48f3-8d10-9e9490109aa1",
        "deviceName": [
          {
            "name": "SYNDERAI Synthetic Generator",
            "type": "manufacturer-name"
          }
        ],
        "version": [
          {
            "value": "5.0"
          }
        ],
        "text": {
          "status": "generated",
          "div": "<div xmlns=\"http://www.w3.org/1999/xhtml\">SYNDERAI Synthetic Generator v5.0</div>"
        },
        "status": "active\"",
        "distinctIdentifier": "synderai-generator-50",
        "manufacturer": "SYNDERAI Project"
      }
    },
    {
      "fullUrl": "urn:uuid:50126a54-57c0-4af1-bcf3-497104b768d8",
      "resource": {
        "resourceType": "Provenance",
        "id": "50126a54-57c0-4af1-bcf3-497104b768d8",
        "target": [
          {
            "reference": "Patient/250ba81e-94c0-41ac-9ee5-7cf86b54db60"
          },
          {
            "reference": "Bundle/6f9aebc4-ff21-41ef-84dd-66508aea7011"
          },
          {
            "reference": "Composition/647137ad-216a-467d-9b4f-cd5b0d8e52ee"
          },
          {
            "reference": "PractitionerRole/b19275ce-a019-4537-9ecf-65882c74f2b8"
          },
          {
            "reference": "Practitioner/13203c97-9cb2-490d-b1a3-5fcc3666ea23"
          },
          {
            "reference": "PractitionerRole/aec9624b-8fd2-4b38-a250-8c655139656a"
          },
          {
            "reference": "Organization/f2499364-dae2-4b23-8dd3-333dedb7241d"
          }
        ],
        "activity": {
          "text": "Synthetic Example Data Generation"
        },
        "policy": [
          "https://synderai.net/synderai-synthetic-data-policy"
        ],
        "agent": [
          {
            "type": {
              "text": "author"
            },
            "who": {
              "reference": "Device/cf35cba3-b4d4-48f3-8d10-9e9490109aa1"
            }
          }
        ],
        "reason": [
          {
            "text": "Interoperability Testing and Training (non-clinical use)"
          }
        ],
        "text": {
          "status": "generated",
          "div": "<div xmlns=\"http://www.w3.org/1999/xhtml\">Provenance for SYNDERAI Synthetic Example Data Resource</div>"
        },
        "recorded": "2024-08-07T02:49:39Z"
      }
    },
    {
      "fullUrl": "urn:uuid:b19275ce-a019-4537-9ecf-65882c74f2b8",
      "resource": {
        "resourceType": "PractitionerRole",
        "id": "b19275ce-a019-4537-9ecf-65882c74f2b8",
        "meta": {
          "profile": [
            "http://hl7.eu/fhir/base/StructureDefinition/practitionerRole-eu"
          ]
        },
        "text": {
          "status": "generated",
          "div": "<div xmlns=\"http://www.w3.org/1999/xhtml\">Laboratory Role Id: b19275ce-a019-4537-9ecf-65882c74f2b8</div>"
        },
        "practitioner": {
          "reference": "urn:uuid:13203c97-9cb2-490d-b1a3-5fcc3666ea23"
        }
      }
    },
    {
      "fullUrl": "urn:uuid:13203c97-9cb2-490d-b1a3-5fcc3666ea23",
      "resource": {
        "resourceType": "Practitioner",
        "id": "13203c97-9cb2-490d-b1a3-5fcc3666ea23",
        "meta": {
          "profile": [
            "http://hl7.eu/fhir/base/StructureDefinition/practitioner-eu"
          ]
        },
        "identifier": [
          {
            "assigner": {
              "display": "HL7 Europe"
            },
            "system": "urn:oid:2.16.840.1.113883.2.51.999",
            "value": "eb0b12ea-68e9-4ec3-8f73-88269f886e87"
          }
        ],
        "name": [
          {
            "prefix": [
              "dr"
            ],
            "given": [
              "Ex"
            ],
            "family": "Ample"
          }
        ],
        "address": [
          {
            "line": [
              "Laboratoire Central Européenne",
              "Boulevard du Jardin Botanique 32"
            ],
            "postalCode": "1000",
            "city": "Brussels",
            "country": "Belgium"
          }
        ],
        "text": {
          "status": "generated",
          "div": "<div xmlns=\"http://www.w3.org/1999/xhtml\">Laboratory: Laboratoire Central Européenne, 1000 Brussels, Belgium</div>"
        }
      }
    }
  ],
  "type": "document",
  "timestamp": "2024-08-07T02:49:39Z"
}
