{
  "resourceType": "Bundle",
  "id": "5b7fe801-b8ae-4337-9e73-9fb0891f5774",
  "meta": {
    "profile": [
      "http://hl7.eu/fhir/laboratory/StructureDefinition/Bundle-eu-lab"
    ]
  },
  "identifier": {
    "assigner": {
      "display": "HL7 Europe"
    },
    "system": "urn:oid:2.16.840.1.113883.2.51.999",
    "value": "ecd6eec9-d007-46a5-9d0d-afbabf01841f"
  },
  "entry": [
    {
      "fullUrl": "urn:uuid:74f6bf76-4c6a-43a0-81f4-b1d23ddba8dd",
      "resource": {
        "resourceType": "Composition",
        "id": "74f6bf76-4c6a-43a0-81f4-b1d23ddba8dd",
        "meta": {
          "profile": [
            "http://hl7.eu/fhir/laboratory/StructureDefinition/Composition-eu-lab"
          ]
        },
        "identifier": {
          "assigner": {
            "display": "HL7 Europe"
          },
          "system": "urn:oid:2.16.840.1.113883.2.51.999",
          "value": "eabaec0e-34be-434a-b8c5-52ab7a67402f"
        },
        "author": [
          {
            "reference": "urn:uuid:17561cdb-8d30-4f56-a7cb-35aff820e429"
          }
        ],
        "category": [
          {
            "coding": [
              {
                "code": "26436-6",
                "system": "http://loinc.org",
                "display": "Laboratory studies (set)"
              }
            ]
          }
        ],
        "type": {
          "coding": [
            {
              "code": "11502-2",
              "system": "http://loinc.org",
              "display": "Laboratory report"
            }
          ],
          "text": "Laboratory Report"
        },
        "section": [
          {
            "code": {
              "coding": [
                {
                  "code": "26436-6",
                  "system": "http://loinc.org",
                  "display": "Laboratory studies (set)"
                }
              ],
              "text": "Laboratory studies"
            },
            "section": [
              {
                "code": {
                  "coding": [
                    {
                      "code": "$18719-5",
                      "system": "http://loinc.org",
                      "display": "Chemistry studies (set)"
                    }
                  ],
                  "text": "Chemistry"
                },
                "entry": [
                  {
                    "reference": "urn:uuid:26209a4c-d781-491e-9d3d-484b551855bf"
                  },
                  {
                    "reference": "urn:uuid:74885e27-a81b-4625-80cb-d6bcac036dee"
                  },
                  {
                    "reference": "urn:uuid:4493ba84-573d-4ae4-a497-6014d59bfb8a"
                  },
                  {
                    "reference": "urn:uuid:0c535402-ca8e-4685-b50c-5c43679e23c4"
                  },
                  {
                    "reference": "urn:uuid:1dce3880-75b2-4cbc-bde9-dfba1401431a"
                  },
                  {
                    "reference": "urn:uuid:29a8a9fe-cc8b-4c80-ac26-ae0d45fd0315"
                  },
                  {
                    "reference": "urn:uuid:1e48fcfb-4a20-4314-82bd-b9a779b75560"
                  },
                  {
                    "reference": "urn:uuid:74dd5619-30f7-4e39-ae25-7abfd2dea5bc"
                  },
                  {
                    "reference": "urn:uuid:f75b10e8-8158-4981-af01-6fef01d32c87"
                  },
                  {
                    "reference": "urn:uuid:8f31592d-865a-4609-a53e-646bf30f6a54"
                  },
                  {
                    "reference": "urn:uuid:af00c1ad-ff74-4d6a-bbab-e0e9874ff5ca"
                  },
                  {
                    "reference": "urn:uuid:002a61df-f300-4267-8689-f15dff0144c8"
                  },
                  {
                    "reference": "urn:uuid:0127c166-4e82-44e9-8e46-c1bd8c9d5299"
                  },
                  {
                    "reference": "urn:uuid:e9997b2a-e77d-4189-b63b-bfc7b7bc5f5c"
                  },
                  {
                    "reference": "urn:uuid:4dd17223-e5fb-4cb6-a8a4-8e18ef79d07d"
                  },
                  {
                    "reference": "urn:uuid:f2a0d6ad-c27d-4b8e-a2eb-56a0317259e3"
                  }
                ],
                "text": {
                  "status": "generated",
                  "div": "<div xmlns=\"http://www.w3.org/1999/xhtml\"><h3>Chemistry</h3><table class=\"hl7__eu__lab__report\"><thead><tr><th>Test</th><th>11-SEP-2015</th><th>Reference&#xA0;Range</th><th>Unit</th></tr></thead><tbody><tr><td>Glucose [Mass/volume] in Blood</td><td>71.5</td><td>70 - 140</td><td>mg/dL</td></tr><tr><td>Urea nitrogen [Mass/volume] in Blood</td><td>13.9</td><td>7 - 25</td><td>mg/dL</td></tr><tr><td>Creatinine [Mass/volume] in Blood</td><td><strong>2.9 H</strong></td><td>0.6 - 1.1</td><td>mg/dL</td></tr><tr><td>Calcium [Mass/volume] in Blood</td><td><strong>8.5 L</strong></td><td>8.6 - 10.4</td><td>mg/dL</td></tr><tr><td>Sodium [Moles/volume] in Blood</td><td>137.4</td><td>135 - 145</td><td>mmol/L</td></tr><tr><td>Potassium [Moles/volume] in Blood</td><td>3.8</td><td>3.5 - 5.1</td><td>mmol/L</td></tr><tr><td>Chloride [Moles/volume] in Blood</td><td>101.1</td><td>98 - 110</td><td>mmol/L</td></tr><tr><td>Carbon dioxide, total [Moles/volume] in Blood</td><td>26.1</td><td>22 - 29</td><td>mmol/L</td></tr><tr><td>Protein [Mass/volume] in Serum or Plasma</td><td>7.8</td><td>6.6 - 8.3</td><td>g/dL</td></tr><tr><td>Albumin [Mass/volume] in Serum or Plasma</td><td>4.0</td><td>3.5 - 5</td><td>g/dL</td></tr><tr><td>Globulin [Mass/volume] in Serum by calculation</td><td>3.4</td><td>2 - 3.5</td><td>g/L</td></tr><tr><td>Bilirubin.total [Mass/volume] in Serum or Plasma</td><td>0.5</td><td>0.3 - 1.2</td><td>mg/dL</td></tr><tr><td>Alkaline phosphatase [Enzymatic activity/volume] in Serum or Plasma</td><td>135.5</td><td>39 - 141</td><td>U/L</td></tr><tr><td>Alanine aminotransferase [Enzymatic activity/volume] in Serum or Plasma</td><td><strong>49.7 H</strong></td><td>7 - 40</td><td>U/L</td></tr><tr><td>Aspartate aminotransferase [Enzymatic activity/volume] in Serum or Plasma</td><td>18.7</td><td>10 - 32</td><td>U/L</td></tr><tr><td>Ketones [Presence] in Urine by Test strip</td><td>Urine ketone test = +++</td><td></td><td></td></tr></tbody></table></div>"
                },
                "title": "Chemistry"
              },
              {
                "code": {
                  "coding": [
                    {
                      "code": "$18729-4",
                      "system": "http://loinc.org",
                      "display": "Urinalysis studies (set)"
                    }
                  ],
                  "text": "Urinalysis"
                },
                "entry": [
                  {
                    "reference": "urn:uuid:f2dca41a-a2ac-481b-a117-8dfef3ac64e8"
                  },
                  {
                    "reference": "urn:uuid:22213b41-49c2-49e6-839c-2d6c4f40af75"
                  },
                  {
                    "reference": "urn:uuid:a338be52-a53c-4ac8-8ca4-2239fb86edb5"
                  },
                  {
                    "reference": "urn:uuid:16141042-4ff3-4045-9562-b9914279f5cf"
                  },
                  {
                    "reference": "urn:uuid:41095120-4403-4d5c-b7c4-92d859a52948"
                  },
                  {
                    "reference": "urn:uuid:b9108f3a-a4aa-475d-93f0-054f2066f520"
                  },
                  {
                    "reference": "urn:uuid:4a9f0a48-bc38-4243-a89f-bc6e41c9de76"
                  },
                  {
                    "reference": "urn:uuid:1d218eae-003f-46de-be88-7473cf448d8c"
                  },
                  {
                    "reference": "urn:uuid:4fcd63e9-ad6c-417b-b687-c05fc5463815"
                  },
                  {
                    "reference": "urn:uuid:09d2d174-2274-4503-890f-3a122e0d5083"
                  },
                  {
                    "reference": "urn:uuid:c5c6f8ba-7395-441b-9db8-b893f0c8df4d"
                  },
                  {
                    "reference": "urn:uuid:59e931a4-a1cd-4d0a-bf01-86e7c09faf83"
                  }
                ],
                "text": {
                  "status": "generated",
                  "div": "<div xmlns=\"http://www.w3.org/1999/xhtml\"><h3>Urinalysis</h3><table class=\"hl7__eu__lab__report\"><thead><tr><th>Test</th><th>11-SEP-2015</th><th>Reference&#xA0;Range</th><th>Unit</th></tr></thead><tbody><tr><td>Glucose [Mass/volume] in Urine by Test strip</td><td>0.7</td><td>0 - 0.8</td><td>mg/dL</td></tr><tr><td>Glucose [Presence] in Urine by Test strip</td><td>++</td><td></td><td></td></tr><tr><td>Bilirubin.total [Mass/volume] in Urine by Test strip</td><td><strong>1.3 H</strong></td><td>0 - 1</td><td>mg/dL</td></tr><tr><td>Bilirubin.total [Presence] in Urine by Test strip</td><td>Finding of bilirubin in urine</td><td></td><td></td></tr><tr><td>Ketones [Mass/volume] in Urine by Test strip</td><td><strong>14.5 H</strong></td><td>0 - 4</td><td>mg/dL</td></tr><tr><td>Specific gravity of Urine by Test strip</td><td><strong>1.0 L</strong></td><td>1.005 - 1.03</td><td>{nominal}</td></tr><tr><td>pH of Urine by Test strip</td><td>6.9</td><td>4.5 - 7</td><td>pH</td></tr><tr><td>Protein [Mass/volume] in Urine by Test strip</td><td><strong>413.4 H</strong></td><td>0 - 145</td><td>mg/dL</td></tr><tr><td>Protein [Presence] in Urine by Test strip</td><td>Urine protein test = +++</td><td></td><td></td></tr><tr><td>Nitrite [Presence] in Urine by Test strip</td><td>Urine nitrite negative</td><td></td><td></td></tr><tr><td>Hemoglobin [Presence] in Urine by Test strip</td><td>Urine blood test = negative</td><td></td><td></td></tr><tr><td>Leukocyte esterase [Presence] in Urine by Test strip</td><td>Urine leukocyte test negative</td><td></td><td></td></tr></tbody></table></div>"
                },
                "title": "Urinalysis"
              },
              {
                "code": {
                  "coding": [
                    {
                      "code": "$LP7846-1",
                      "system": "http://loinc.org",
                      "display": "Specimen information"
                    }
                  ],
                  "text": "Specimen information"
                },
                "entry": [
                  {
                    "reference": "urn:uuid:15391237-117b-46bb-85e6-27ab2acd472a"
                  },
                  {
                    "reference": "urn:uuid:978229f1-4e98-47cc-9e26-0a3f081df2a6"
                  },
                  {
                    "reference": "urn:uuid:606fda7d-527a-4b4d-a361-b3a9d97c70d8"
                  },
                  {
                    "reference": "urn:uuid:428764f5-0dec-4a35-b8ce-4feb52641a24"
                  }
                ],
                "text": {
                  "status": "generated",
                  "div": "<div xmlns=\"http://www.w3.org/1999/xhtml\"><h3>Specimen information</h3><table class=\"hl7__eu__lab__report\"><thead><tr><th>Test</th><th>11-SEP-2015</th><th>Specimen</th><th></th></tr></thead><tbody><tr><td>Appearance of Urine</td><td>Cloudy urine</td><td>Urine</td><td></td></tr><tr><td>Odor of Urine</td><td>Urine smell ammoniacal</td><td>Urine</td><td></td></tr><tr><td>Clarity of Urine</td><td>Translucent</td><td>Urine</td><td></td></tr><tr><td>Color of Urine</td><td>Brown color</td><td>Urine</td><td></td></tr></tbody></table></div>"
                },
                "title": "Specimen information"
              }
            ],
            "title": "Laboratory Report"
          },
          {
            "text": {
              "status": "generated",
              "div": "<div xmlns=\"http://www.w3.org/1999/xhtml\"><h3>Annotation</h3><table class=\"hl7__eu__lab__report\"><tr><th>Conclusion and Recommendations based on this report and previous findings known to us</th></tr><tr><td>The patient shows significant renal impairment (elevated creatinine, proteinuria, low urine specific gravity), mild hypocalcemia, and mildly elevated liver enzymes. Urinalysis reveals proteinuria, glucosuria, ketonuria, and bilirubinuria, with abnormal urine appearance and color, but no evidence of infection. Findings are suggestive of acute or chronic kidney dysfunction, possible hepatic involvement, and metabolic derangements (e.g., diabetes or ketoacidosis). Further clinical correlation and nephrology/hepatology evaluation are recommended.</td></tr></table></div>"
            },
            "code": {
              "coding": [
                {
                  "system": "http://loinc.org",
                  "code": "48767-8",
                  "display": "Annotation comment"
                }
              ]
            },
            "title": "Annotation comment"
          }
        ],
        "status": "final",
        "subject": {
          "reference": "urn:uuid:4f3050b5-486c-4b90-8f13-beefd03e752e",
          "display": "Iva Kratochvílová"
        },
        "date": "2015-09-11T22:14:29Z",
        "title": "Laboratory Report",
        "confidentiality": "N"
      }
    },
    {
      "fullUrl": "urn:uuid:d7a000bc-d266-49dd-ae77-0b9ca5f840b9",
      "resource": {
        "resourceType": "DiagnosticReport",
        "id": "d7a000bc-d266-49dd-ae77-0b9ca5f840b9",
        "meta": {
          "profile": [
            "http://hl7.eu/fhir/laboratory/StructureDefinition/DiagnosticReport-eu-lab"
          ]
        },
        "identifier": [
          {
            "assigner": {
              "display": "HL7 Europe"
            },
            "system": "urn:oid:2.16.840.1.113883.2.51.999",
            "value": "a1d77e9e-9a9d-464d-a699-3dc7db5bfcde"
          }
        ],
        "extension": [
          {
            "url": "http://hl7.org/fhir/5.0/StructureDefinition/extension-DiagnosticReport.composition",
            "valueReference": {
              "reference": "urn:uuid:eabaec0e-34be-434a-b8c5-52ab7a67402f"
            }
          }
        ],
        "category": [
          {
            "coding": [
              {
                "code": "26436-6",
                "system": "http://loinc.org",
                "display": "Laboratory studies (set)"
              }
            ]
          }
        ],
        "specimen": [
          {
            "reference": "urn:uuid:4510ddfa-49c8-4999-b249-75fa7c14a469"
          },
          {
            "reference": "urn:uuid:41914722-0391-49b3-a8a2-6f37e1e0fbac"
          },
          {
            "reference": "urn:uuid:b7b94ed1-a765-4177-965b-cb407f2b6b8b"
          },
          {
            "reference": "urn:uuid:933befcb-7135-4ac0-800f-675ebe5724cf"
          }
        ],
        "result": [
          {
            "reference": "urn:uuid:26209a4c-d781-491e-9d3d-484b551855bf"
          },
          {
            "reference": "urn:uuid:74885e27-a81b-4625-80cb-d6bcac036dee"
          },
          {
            "reference": "urn:uuid:4493ba84-573d-4ae4-a497-6014d59bfb8a"
          },
          {
            "reference": "urn:uuid:0c535402-ca8e-4685-b50c-5c43679e23c4"
          },
          {
            "reference": "urn:uuid:1dce3880-75b2-4cbc-bde9-dfba1401431a"
          },
          {
            "reference": "urn:uuid:29a8a9fe-cc8b-4c80-ac26-ae0d45fd0315"
          },
          {
            "reference": "urn:uuid:1e48fcfb-4a20-4314-82bd-b9a779b75560"
          },
          {
            "reference": "urn:uuid:74dd5619-30f7-4e39-ae25-7abfd2dea5bc"
          },
          {
            "reference": "urn:uuid:f75b10e8-8158-4981-af01-6fef01d32c87"
          },
          {
            "reference": "urn:uuid:8f31592d-865a-4609-a53e-646bf30f6a54"
          },
          {
            "reference": "urn:uuid:af00c1ad-ff74-4d6a-bbab-e0e9874ff5ca"
          },
          {
            "reference": "urn:uuid:002a61df-f300-4267-8689-f15dff0144c8"
          },
          {
            "reference": "urn:uuid:0127c166-4e82-44e9-8e46-c1bd8c9d5299"
          },
          {
            "reference": "urn:uuid:e9997b2a-e77d-4189-b63b-bfc7b7bc5f5c"
          },
          {
            "reference": "urn:uuid:4dd17223-e5fb-4cb6-a8a4-8e18ef79d07d"
          },
          {
            "reference": "urn:uuid:15391237-117b-46bb-85e6-27ab2acd472a"
          },
          {
            "reference": "urn:uuid:978229f1-4e98-47cc-9e26-0a3f081df2a6"
          },
          {
            "reference": "urn:uuid:606fda7d-527a-4b4d-a361-b3a9d97c70d8"
          },
          {
            "reference": "urn:uuid:428764f5-0dec-4a35-b8ce-4feb52641a24"
          },
          {
            "reference": "urn:uuid:f2dca41a-a2ac-481b-a117-8dfef3ac64e8"
          },
          {
            "reference": "urn:uuid:22213b41-49c2-49e6-839c-2d6c4f40af75"
          },
          {
            "reference": "urn:uuid:a338be52-a53c-4ac8-8ca4-2239fb86edb5"
          },
          {
            "reference": "urn:uuid:16141042-4ff3-4045-9562-b9914279f5cf"
          },
          {
            "reference": "urn:uuid:41095120-4403-4d5c-b7c4-92d859a52948"
          },
          {
            "reference": "urn:uuid:f2a0d6ad-c27d-4b8e-a2eb-56a0317259e3"
          },
          {
            "reference": "urn:uuid:b9108f3a-a4aa-475d-93f0-054f2066f520"
          },
          {
            "reference": "urn:uuid:4a9f0a48-bc38-4243-a89f-bc6e41c9de76"
          },
          {
            "reference": "urn:uuid:1d218eae-003f-46de-be88-7473cf448d8c"
          },
          {
            "reference": "urn:uuid:4fcd63e9-ad6c-417b-b687-c05fc5463815"
          },
          {
            "reference": "urn:uuid:09d2d174-2274-4503-890f-3a122e0d5083"
          },
          {
            "reference": "urn:uuid:c5c6f8ba-7395-441b-9db8-b893f0c8df4d"
          },
          {
            "reference": "urn:uuid:59e931a4-a1cd-4d0a-bf01-86e7c09faf83"
          }
        ],
        "status": "registered",
        "code": {
          "coding": [
            {
              "code": "11502-2",
              "system": "http://loinc.org",
              "display": "Laboratory report"
            }
          ]
        },
        "subject": {
          "reference": "urn:uuid:4f3050b5-486c-4b90-8f13-beefd03e752e",
          "display": "Iva Kratochvílová"
        }
      }
    },
    {
      "fullUrl": "urn:uuid:4f3050b5-486c-4b90-8f13-beefd03e752e",
      "resource": {
        "resourceType": "Patient",
        "id": "4f3050b5-486c-4b90-8f13-beefd03e752e",
        "meta": {
          "security": [
            {
              "system": "http://terminology.hl7.org/CodeSystem/v3-ActReason",
              "code": "HTEST"
            },
            {
              "system": "http://terminology.hl7.org/CodeSystem/v3-ActReason",
              "code": "TRAIN"
            }
          ],
          "tag": [
            {
              "system": "https://synderai.net/fhir/CodeSystem/tags",
              "code": "synthetic",
              "display": "SYNDERAI Synthetic data"
            }
          ],
          "profile": [
            "http://hl7.eu/fhir/base/StructureDefinition/patient-eu-core"
          ]
        },
        "identifier": [
          {
            "type": {
              "coding": [
                {
                  "code": "PT",
                  "system": "http://terminology.hl7.org/CodeSystem/v2-0203"
                }
              ]
            },
            "system": "http://ec.europa.eu/identifier/eci",
            "value": "4380-389488-0"
          },
          {
            "type": {
              "coding": [
                {
                  "code": "MR",
                  "system": "http://terminology.hl7.org/CodeSystem/v2-0203"
                }
              ]
            },
            "system": "http://local.setting.eu/identifier",
            "value": "f8f9ebdc-03dd-2fc0-819c-affa4ffd7f67"
          }
        ],
        "name": [
          {
            "family": "Kratochvílová"
          },
          {
            "given": [
              "Iva"
            ]
          },
          {
            "text": "Iva Kratochvílová"
          }
        ],
        "address": [
          {
            "line": [
              "Žofie Podlipské 4"
            ],
            "use": "home",
            "type": "physical",
            "postalCode": "27324",
            "city": "Postoloprty",
            "country": "Czechia"
          }
        ],
        "telecom": [
          {
            "system": "phone",
            "value": "00420 607 985 072"
          }
        ],
        "extension": [
          {
            "url": "http://hl7.org/fhir/StructureDefinition/patient-nationality",
            "valueCodeableConcept": {
              "coding": [
                {
                  "code": "CZ",
                  "system": "http://hl7.org/fhir/ValueSet/country"
                }
              ]
            }
          }
        ],
        "text": {
          "status": "generated",
          "div": "<div xmlns=\"http://www.w3.org/1999/xhtml\"><table class=\"hl7__ips\"><tr><td>Iva Kratochvílová</td><td>female</td><td>17-Sep-1964</td></tr></table></div>"
        },
        "gender": "female",
        "birthDate": "1964-09-17"
      }
    },
    {
      "fullUrl": "urn:uuid:7a0c610c-52c1-4711-aaff-a6c8be9f6054",
      "resource": {
        "resourceType": "ServiceRequest",
        "id": "7a0c610c-52c1-4711-aaff-a6c8be9f6054",
        "meta": {
          "profile": [
            "http://hl7.eu/fhir/laboratory/StructureDefinition/ServiceRequest-eu-lab"
          ]
        },
        "identifier": [
          {
            "system": "http://example.org",
            "value": "76f68bcf-1834-4bdf-bfe3-b90c76392223"
          }
        ],
        "specimen": [
          {
            "reference": "urn:uuid:4510ddfa-49c8-4999-b249-75fa7c14a469"
          },
          {
            "reference": "urn:uuid:41914722-0391-49b3-a8a2-6f37e1e0fbac"
          },
          {
            "reference": "urn:uuid:b7b94ed1-a765-4177-965b-cb407f2b6b8b"
          },
          {
            "reference": "urn:uuid:933befcb-7135-4ac0-800f-675ebe5724cf"
          }
        ],
        "reasonCode": [
          {
            "coding": [
              {
                "code": "431856006",
                "system": "http://snomed.info/sct",
                "display": "Chronic kidney disease stage 2"
              }
            ]
          },
          {
            "coding": [
              {
                "code": "431855005",
                "system": "http://snomed.info/sct",
                "display": "Chronic kidney disease stage 1"
              }
            ]
          },
          {
            "coding": [
              {
                "code": "237602007",
                "system": "http://snomed.info/sct",
                "display": "Metabolic syndrome X"
              }
            ]
          },
          {
            "coding": [
              {
                "code": "91302008",
                "system": "http://snomed.info/sct",
                "display": "Sepsis"
              }
            ]
          },
          {
            "coding": [
              {
                "code": "271737000",
                "system": "http://snomed.info/sct",
                "display": "Anemia"
              }
            ]
          },
          {
            "coding": [
              {
                "code": "15777000",
                "system": "http://snomed.info/sct",
                "display": "Prediabetes"
              }
            ]
          },
          {
            "coding": [
              {
                "code": "157141000119108",
                "system": "http://snomed.info/sct",
                "display": "Proteinuria due to type 2 diabetes mellitus"
              }
            ]
          },
          {
            "coding": [
              {
                "code": "90781000119102",
                "system": "http://snomed.info/sct",
                "display": "Microalbuminuria due to type 2 diabetes mellitus"
              }
            ]
          },
          {
            "coding": [
              {
                "code": "239872002",
                "system": "http://snomed.info/sct",
                "display": "Osteoarthritis of hip"
              }
            ]
          },
          {
            "coding": [
              {
                "code": "40055000",
                "system": "http://snomed.info/sct",
                "display": "Chronic sinusitis"
              }
            ]
          },
          {
            "coding": [
              {
                "code": "127013003",
                "system": "http://snomed.info/sct",
                "display": "Disorder of kidney due to diabetes mellitus"
              }
            ]
          },
          {
            "coding": [
              {
                "code": "59621000",
                "system": "http://snomed.info/sct",
                "display": "Essential hypertension"
              }
            ]
          }
        ],
        "status": "active",
        "intent": "order",
        "code": {
          "coding": [
            {
              "code": "108252007",
              "system": "http://snomed.info/sct",
              "display": "Laboratory procedure"
            }
          ]
        },
        "subject": {
          "reference": "urn:uuid:4f3050b5-486c-4b90-8f13-beefd03e752e",
          "display": "Iva Kratochvílová"
        },
        "requester": {
          "reference": "urn:uuid:d66470b9-c6b4-40d6-9c2d-d1b3998d5e5d"
        }
      }
    },
    {
      "fullUrl": "urn:uuid:d66470b9-c6b4-40d6-9c2d-d1b3998d5e5d",
      "resource": {
        "resourceType": "PractitionerRole",
        "id": "d66470b9-c6b4-40d6-9c2d-d1b3998d5e5d",
        "meta": {
          "profile": [
            "http://hl7.eu/fhir/base/StructureDefinition/practitionerRole-eu"
          ]
        },
        "text": {
          "status": "generated",
          "div": "<div xmlns=\"http://www.w3.org/1999/xhtml\">Provider Role Id: d66470b9-c6b4-40d6-9c2d-d1b3998d5e5d</div>"
        },
        "organization": {
          "reference": "urn:uuid:7e97ae55-98f3-4f22-a295-b9841899a70a"
        }
      }
    },
    {
      "fullUrl": "urn:uuid:7e97ae55-98f3-4f22-a295-b9841899a70a",
      "resource": {
        "resourceType": "Organization",
        "id": "7e97ae55-98f3-4f22-a295-b9841899a70a",
        "meta": {
          "profile": [
            "http://hl7.eu/fhir/base/StructureDefinition/organization-eu"
          ]
        },
        "identifier": [
          {
            "assigner": {
              "display": "HL7 Europe"
            },
            "system": "urn:oid:2.16.840.1.113883.2.51.999",
            "value": "8c633c65-e298-4e6d-8736-e28837debca3"
          }
        ],
        "address": [
          {
            "city": "Kadaň",
            "postalCode": "432 01",
            "country": "Czechia"
          }
        ],
        "text": {
          "status": "generated",
          "div": "<div xmlns=\"http://www.w3.org/1999/xhtml\">Provider Organization: Nemocnice s poliklinikou Kadaň</div>"
        },
        "name": "Nemocnice s poliklinikou Kadaň"
      }
    },
    {
      "fullUrl": "urn:uuid:4510ddfa-49c8-4999-b249-75fa7c14a469",
      "resource": {
        "resourceType": "Specimen",
        "id": "4510ddfa-49c8-4999-b249-75fa7c14a469",
        "meta": {
          "profile": [
            "http://hl7.eu/fhir/laboratory/StructureDefinition/Specimen-eu-lab"
          ]
        },
        "collection": {
          "collectedDateTime": "2015-09-11"
        },
        "text": {
          "status": "generated",
          "div": "<div xmlns=\"http://www.w3.org/1999/xhtml\"><table class=\"hl7__eu__lab__report\"><tr><th>Specimen</th><th>Collection Date</th></tr><tr><td>Whole blood specimen (specimen)</td><td><span class=\"nb\">11-Sep-2015</span></td></tr></table></div>"
        },
        "type": {
          "coding": [
            {
              "code": "258580003",
              "system": "http://snomed.info/sct",
              "display": "Whole blood specimen (specimen)"
            }
          ]
        }
      }
    },
    {
      "fullUrl": "urn:uuid:41914722-0391-49b3-a8a2-6f37e1e0fbac",
      "resource": {
        "resourceType": "Specimen",
        "id": "41914722-0391-49b3-a8a2-6f37e1e0fbac",
        "meta": {
          "profile": [
            "http://hl7.eu/fhir/laboratory/StructureDefinition/Specimen-eu-lab"
          ]
        },
        "collection": {
          "collectedDateTime": "2015-09-11"
        },
        "text": {
          "status": "generated",
          "div": "<div xmlns=\"http://www.w3.org/1999/xhtml\"><table class=\"hl7__eu__lab__report\"><tr><th>Specimen</th><th>Collection Date</th></tr><tr><td>Acellular blood (serum or plasma) specimen</td><td><span class=\"nb\">11-Sep-2015</span></td></tr></table></div>"
        },
        "type": {
          "coding": [
            {
              "code": "122592007",
              "system": "http://snomed.info/sct",
              "display": "Acellular blood (serum or plasma) specimen"
            }
          ]
        }
      }
    },
    {
      "fullUrl": "urn:uuid:b7b94ed1-a765-4177-965b-cb407f2b6b8b",
      "resource": {
        "resourceType": "Specimen",
        "id": "b7b94ed1-a765-4177-965b-cb407f2b6b8b",
        "meta": {
          "profile": [
            "http://hl7.eu/fhir/laboratory/StructureDefinition/Specimen-eu-lab"
          ]
        },
        "collection": {
          "collectedDateTime": "2015-09-11"
        },
        "text": {
          "status": "generated",
          "div": "<div xmlns=\"http://www.w3.org/1999/xhtml\"><table class=\"hl7__eu__lab__report\"><tr><th>Specimen</th><th>Collection Date</th></tr><tr><td>Serum specimen</td><td><span class=\"nb\">11-Sep-2015</span></td></tr></table></div>"
        },
        "type": {
          "coding": [
            {
              "code": "119364003",
              "system": "http://snomed.info/sct",
              "display": "Serum specimen"
            }
          ]
        }
      }
    },
    {
      "fullUrl": "urn:uuid:933befcb-7135-4ac0-800f-675ebe5724cf",
      "resource": {
        "resourceType": "Specimen",
        "id": "933befcb-7135-4ac0-800f-675ebe5724cf",
        "meta": {
          "profile": [
            "http://hl7.eu/fhir/laboratory/StructureDefinition/Specimen-eu-lab"
          ]
        },
        "collection": {
          "collectedDateTime": "2015-09-11"
        },
        "text": {
          "status": "generated",
          "div": "<div xmlns=\"http://www.w3.org/1999/xhtml\"><table class=\"hl7__eu__lab__report\"><tr><th>Specimen</th><th>Collection Date</th></tr><tr><td>Urine specimen</td><td><span class=\"nb\">11-Sep-2015</span></td></tr></table></div>"
        },
        "type": {
          "coding": [
            {
              "code": "122575003",
              "system": "http://snomed.info/sct",
              "display": "Urine specimen"
            }
          ]
        }
      }
    },
    {
      "fullUrl": "urn:uuid:26209a4c-d781-491e-9d3d-484b551855bf",
      "resource": {
        "resourceType": "Observation",
        "id": "26209a4c-d781-491e-9d3d-484b551855bf",
        "meta": {
          "profile": [
            "http://hl7.eu/fhir/laboratory/StructureDefinition/Observation-resultslab-eu-lab"
          ]
        },
        "performer": [
          {
            "display": "The Central European Lab"
          }
        ],
        "category": [
          {
            "coding": [
              {
                "system": "http://terminology.hl7.org/CodeSystem/observation-category",
                "code": "laboratory"
              }
            ]
          }
        ],
        "code": {
          "coding": [
            {
              "code": "2339-0",
              "system": "http://loinc.org",
              "display": "Glucose [Mass/volume] in Blood"
            }
          ],
          "text": "Glucose [Mass/volume] in Blood"
        },
        "valueQuantity": {
          "system": "http://unitsofmeasure.org",
          "value": 71.5,
          "unit": "mg/dL",
          "code": "mg/dL"
        },
        "referenceRange": [
          {
            "low": {
              "value": 70,
              "code": "mg/dL",
              "system": "http://unitsofmeasure.org"
            }
          },
          {
            "high": {
              "value": 140,
              "code": "mg/dL",
              "system": "http://unitsofmeasure.org"
            }
          }
        ],
        "text": {
          "status": "generated",
          "div": "<div xmlns=\"http://www.w3.org/1999/xhtml\"><table class=\"hl7__eu__lab__report\"><tr><th>Test</th><th>11-Sep-2015</th><th>Reference&#xA0;Range</th><th>Unit</th></tr><tr><td>Glucose [Mass/volume] in Blood</td><td>71.5</td><td>70 - 140</td><td></td><td>mg/dL</td></tr></table></div>"
        },
        "status": "final",
        "subject": {
          "reference": "urn:uuid:4f3050b5-486c-4b90-8f13-beefd03e752e",
          "display": "Iva Kratochvílová"
        },
        "effectiveDateTime": "2015-09-11T20:14:29Z",
        "specimen": {
          "reference": "urn:uuid:4510ddfa-49c8-4999-b249-75fa7c14a469"
        }
      }
    },
    {
      "fullUrl": "urn:uuid:74885e27-a81b-4625-80cb-d6bcac036dee",
      "resource": {
        "resourceType": "Observation",
        "id": "74885e27-a81b-4625-80cb-d6bcac036dee",
        "meta": {
          "profile": [
            "http://hl7.eu/fhir/laboratory/StructureDefinition/Observation-resultslab-eu-lab"
          ]
        },
        "performer": [
          {
            "display": "The Central European Lab"
          }
        ],
        "category": [
          {
            "coding": [
              {
                "system": "http://terminology.hl7.org/CodeSystem/observation-category",
                "code": "laboratory"
              }
            ]
          }
        ],
        "code": {
          "coding": [
            {
              "code": "6299-2",
              "system": "http://loinc.org",
              "display": "Urea nitrogen [Mass/volume] in Blood"
            }
          ],
          "text": "Urea nitrogen [Mass/volume] in Blood"
        },
        "valueQuantity": {
          "system": "http://unitsofmeasure.org",
          "value": 13.9,
          "unit": "mg/dL",
          "code": "mg/dL"
        },
        "referenceRange": [
          {
            "low": {
              "value": 7,
              "code": "mg/dL",
              "system": "http://unitsofmeasure.org"
            }
          },
          {
            "high": {
              "value": 25,
              "code": "mg/dL",
              "system": "http://unitsofmeasure.org"
            }
          }
        ],
        "text": {
          "status": "generated",
          "div": "<div xmlns=\"http://www.w3.org/1999/xhtml\"><table class=\"hl7__eu__lab__report\"><tr><th>Test</th><th>11-Sep-2015</th><th>Reference&#xA0;Range</th><th>Unit</th></tr><tr><td>Urea nitrogen [Mass/volume] in Blood</td><td>13.9</td><td>7 - 25</td><td></td><td>mg/dL</td></tr></table></div>"
        },
        "status": "final",
        "subject": {
          "reference": "urn:uuid:4f3050b5-486c-4b90-8f13-beefd03e752e",
          "display": "Iva Kratochvílová"
        },
        "effectiveDateTime": "2015-09-11T20:14:29Z",
        "specimen": {
          "reference": "urn:uuid:4510ddfa-49c8-4999-b249-75fa7c14a469"
        }
      }
    },
    {
      "fullUrl": "urn:uuid:4493ba84-573d-4ae4-a497-6014d59bfb8a",
      "resource": {
        "resourceType": "Observation",
        "id": "4493ba84-573d-4ae4-a497-6014d59bfb8a",
        "meta": {
          "profile": [
            "http://hl7.eu/fhir/laboratory/StructureDefinition/Observation-resultslab-eu-lab"
          ]
        },
        "performer": [
          {
            "display": "The Central European Lab"
          }
        ],
        "category": [
          {
            "coding": [
              {
                "system": "http://terminology.hl7.org/CodeSystem/observation-category",
                "code": "laboratory"
              }
            ]
          }
        ],
        "code": {
          "coding": [
            {
              "code": "38483-4",
              "system": "http://loinc.org",
              "display": "Creatinine [Mass/volume] in Blood"
            }
          ],
          "text": "Creatinine [Mass/volume] in Blood"
        },
        "valueQuantity": {
          "system": "http://unitsofmeasure.org",
          "value": 2.9,
          "unit": "mg/dL",
          "code": "mg/dL"
        },
        "referenceRange": [
          {
            "low": {
              "value": 0.6,
              "code": "mg/dL",
              "system": "http://unitsofmeasure.org"
            }
          },
          {
            "high": {
              "value": 1.1,
              "code": "mg/dL",
              "system": "http://unitsofmeasure.org"
            }
          }
        ],
        "interpretation": [
          {
            "coding": [
              {
                "code": "H",
                "system": "http://terminology.hl7.org/CodeSystem/v3-ObservationInterpretation",
                "display": "High"
              }
            ]
          }
        ],
        "text": {
          "status": "generated",
          "div": "<div xmlns=\"http://www.w3.org/1999/xhtml\"><table class=\"hl7__eu__lab__report\"><tr><th>Test</th><th>11-Sep-2015</th><th>Reference&#xA0;Range</th><th>Unit</th></tr><tr><td>Creatinine [Mass/volume] in Blood</td><td>2.9</td><td>0.6 - 1.1</td><td>H</td><td>mg/dL</td></tr></table></div>"
        },
        "status": "final",
        "subject": {
          "reference": "urn:uuid:4f3050b5-486c-4b90-8f13-beefd03e752e",
          "display": "Iva Kratochvílová"
        },
        "effectiveDateTime": "2015-09-11T20:14:29Z",
        "specimen": {
          "reference": "urn:uuid:4510ddfa-49c8-4999-b249-75fa7c14a469"
        }
      }
    },
    {
      "fullUrl": "urn:uuid:0c535402-ca8e-4685-b50c-5c43679e23c4",
      "resource": {
        "resourceType": "Observation",
        "id": "0c535402-ca8e-4685-b50c-5c43679e23c4",
        "meta": {
          "profile": [
            "http://hl7.eu/fhir/laboratory/StructureDefinition/Observation-resultslab-eu-lab"
          ]
        },
        "performer": [
          {
            "display": "The Central European Lab"
          }
        ],
        "category": [
          {
            "coding": [
              {
                "system": "http://terminology.hl7.org/CodeSystem/observation-category",
                "code": "laboratory"
              }
            ]
          }
        ],
        "code": {
          "coding": [
            {
              "code": "49765-1",
              "system": "http://loinc.org",
              "display": "Calcium [Mass/volume] in Blood"
            }
          ],
          "text": "Calcium [Mass/volume] in Blood"
        },
        "valueQuantity": {
          "system": "http://unitsofmeasure.org",
          "value": 8.5,
          "unit": "mg/dL",
          "code": "mg/dL"
        },
        "referenceRange": [
          {
            "low": {
              "value": 8.6,
              "code": "mg/dL",
              "system": "http://unitsofmeasure.org"
            }
          },
          {
            "high": {
              "value": 10.4,
              "code": "mg/dL",
              "system": "http://unitsofmeasure.org"
            }
          }
        ],
        "interpretation": [
          {
            "coding": [
              {
                "code": "L",
                "system": "http://terminology.hl7.org/CodeSystem/v3-ObservationInterpretation",
                "display": "Low"
              }
            ]
          }
        ],
        "text": {
          "status": "generated",
          "div": "<div xmlns=\"http://www.w3.org/1999/xhtml\"><table class=\"hl7__eu__lab__report\"><tr><th>Test</th><th>11-Sep-2015</th><th>Reference&#xA0;Range</th><th>Unit</th></tr><tr><td>Calcium [Mass/volume] in Blood</td><td>8.5</td><td>8.6 - 10.4</td><td>L</td><td>mg/dL</td></tr></table></div>"
        },
        "status": "final",
        "subject": {
          "reference": "urn:uuid:4f3050b5-486c-4b90-8f13-beefd03e752e",
          "display": "Iva Kratochvílová"
        },
        "effectiveDateTime": "2015-09-11T20:14:29Z",
        "specimen": {
          "reference": "urn:uuid:4510ddfa-49c8-4999-b249-75fa7c14a469"
        }
      }
    },
    {
      "fullUrl": "urn:uuid:1dce3880-75b2-4cbc-bde9-dfba1401431a",
      "resource": {
        "resourceType": "Observation",
        "id": "1dce3880-75b2-4cbc-bde9-dfba1401431a",
        "meta": {
          "profile": [
            "http://hl7.eu/fhir/laboratory/StructureDefinition/Observation-resultslab-eu-lab"
          ]
        },
        "performer": [
          {
            "display": "The Central European Lab"
          }
        ],
        "category": [
          {
            "coding": [
              {
                "system": "http://terminology.hl7.org/CodeSystem/observation-category",
                "code": "laboratory"
              }
            ]
          }
        ],
        "code": {
          "coding": [
            {
              "code": "2947-0",
              "system": "http://loinc.org",
              "display": "Sodium [Moles/volume] in Blood"
            }
          ],
          "text": "Sodium [Moles/volume] in Blood"
        },
        "valueQuantity": {
          "system": "http://unitsofmeasure.org",
          "value": 137.4,
          "unit": "mmol/L",
          "code": "mmol/L"
        },
        "referenceRange": [
          {
            "low": {
              "value": 135,
              "code": "mmol/L",
              "system": "http://unitsofmeasure.org"
            }
          },
          {
            "high": {
              "value": 145,
              "code": "mmol/L",
              "system": "http://unitsofmeasure.org"
            }
          }
        ],
        "text": {
          "status": "generated",
          "div": "<div xmlns=\"http://www.w3.org/1999/xhtml\"><table class=\"hl7__eu__lab__report\"><tr><th>Test</th><th>11-Sep-2015</th><th>Reference&#xA0;Range</th><th>Unit</th></tr><tr><td>Sodium [Moles/volume] in Blood</td><td>137.4</td><td>135 - 145</td><td></td><td>mmol/L</td></tr></table></div>"
        },
        "status": "final",
        "subject": {
          "reference": "urn:uuid:4f3050b5-486c-4b90-8f13-beefd03e752e",
          "display": "Iva Kratochvílová"
        },
        "effectiveDateTime": "2015-09-11T20:14:29Z",
        "specimen": {
          "reference": "urn:uuid:4510ddfa-49c8-4999-b249-75fa7c14a469"
        }
      }
    },
    {
      "fullUrl": "urn:uuid:29a8a9fe-cc8b-4c80-ac26-ae0d45fd0315",
      "resource": {
        "resourceType": "Observation",
        "id": "29a8a9fe-cc8b-4c80-ac26-ae0d45fd0315",
        "meta": {
          "profile": [
            "http://hl7.eu/fhir/laboratory/StructureDefinition/Observation-resultslab-eu-lab"
          ]
        },
        "performer": [
          {
            "display": "The Central European Lab"
          }
        ],
        "category": [
          {
            "coding": [
              {
                "system": "http://terminology.hl7.org/CodeSystem/observation-category",
                "code": "laboratory"
              }
            ]
          }
        ],
        "code": {
          "coding": [
            {
              "code": "6298-4",
              "system": "http://loinc.org",
              "display": "Potassium [Moles/volume] in Blood"
            }
          ],
          "text": "Potassium [Moles/volume] in Blood"
        },
        "valueQuantity": {
          "system": "http://unitsofmeasure.org",
          "value": 3.8,
          "unit": "mmol/L",
          "code": "mmol/L"
        },
        "referenceRange": [
          {
            "low": {
              "value": 3.5,
              "code": "mmol/L",
              "system": "http://unitsofmeasure.org"
            }
          },
          {
            "high": {
              "value": 5.1,
              "code": "mmol/L",
              "system": "http://unitsofmeasure.org"
            }
          }
        ],
        "text": {
          "status": "generated",
          "div": "<div xmlns=\"http://www.w3.org/1999/xhtml\"><table class=\"hl7__eu__lab__report\"><tr><th>Test</th><th>11-Sep-2015</th><th>Reference&#xA0;Range</th><th>Unit</th></tr><tr><td>Potassium [Moles/volume] in Blood</td><td>3.8</td><td>3.5 - 5.1</td><td></td><td>mmol/L</td></tr></table></div>"
        },
        "status": "final",
        "subject": {
          "reference": "urn:uuid:4f3050b5-486c-4b90-8f13-beefd03e752e",
          "display": "Iva Kratochvílová"
        },
        "effectiveDateTime": "2015-09-11T20:14:29Z",
        "specimen": {
          "reference": "urn:uuid:4510ddfa-49c8-4999-b249-75fa7c14a469"
        }
      }
    },
    {
      "fullUrl": "urn:uuid:1e48fcfb-4a20-4314-82bd-b9a779b75560",
      "resource": {
        "resourceType": "Observation",
        "id": "1e48fcfb-4a20-4314-82bd-b9a779b75560",
        "meta": {
          "profile": [
            "http://hl7.eu/fhir/laboratory/StructureDefinition/Observation-resultslab-eu-lab"
          ]
        },
        "performer": [
          {
            "display": "The Central European Lab"
          }
        ],
        "category": [
          {
            "coding": [
              {
                "system": "http://terminology.hl7.org/CodeSystem/observation-category",
                "code": "laboratory"
              }
            ]
          }
        ],
        "code": {
          "coding": [
            {
              "code": "2069-3",
              "system": "http://loinc.org",
              "display": "Chloride [Moles/volume] in Blood"
            }
          ],
          "text": "Chloride [Moles/volume] in Blood"
        },
        "valueQuantity": {
          "system": "http://unitsofmeasure.org",
          "value": 101.1,
          "unit": "mmol/L",
          "code": "mmol/L"
        },
        "referenceRange": [
          {
            "low": {
              "value": 98,
              "code": "mmol/L",
              "system": "http://unitsofmeasure.org"
            }
          },
          {
            "high": {
              "value": 110,
              "code": "mmol/L",
              "system": "http://unitsofmeasure.org"
            }
          }
        ],
        "text": {
          "status": "generated",
          "div": "<div xmlns=\"http://www.w3.org/1999/xhtml\"><table class=\"hl7__eu__lab__report\"><tr><th>Test</th><th>11-Sep-2015</th><th>Reference&#xA0;Range</th><th>Unit</th></tr><tr><td>Chloride [Moles/volume] in Blood</td><td>101.1</td><td>98 - 110</td><td></td><td>mmol/L</td></tr></table></div>"
        },
        "status": "final",
        "subject": {
          "reference": "urn:uuid:4f3050b5-486c-4b90-8f13-beefd03e752e",
          "display": "Iva Kratochvílová"
        },
        "effectiveDateTime": "2015-09-11T20:14:29Z",
        "specimen": {
          "reference": "urn:uuid:4510ddfa-49c8-4999-b249-75fa7c14a469"
        }
      }
    },
    {
      "fullUrl": "urn:uuid:74dd5619-30f7-4e39-ae25-7abfd2dea5bc",
      "resource": {
        "resourceType": "Observation",
        "id": "74dd5619-30f7-4e39-ae25-7abfd2dea5bc",
        "meta": {
          "profile": [
            "http://hl7.eu/fhir/laboratory/StructureDefinition/Observation-resultslab-eu-lab"
          ]
        },
        "performer": [
          {
            "display": "The Central European Lab"
          }
        ],
        "category": [
          {
            "coding": [
              {
                "system": "http://terminology.hl7.org/CodeSystem/observation-category",
                "code": "laboratory"
              }
            ]
          }
        ],
        "code": {
          "coding": [
            {
              "code": "20565-8",
              "system": "http://loinc.org",
              "display": "Carbon dioxide, total [Moles/volume] in Blood"
            }
          ],
          "text": "Carbon dioxide, total [Moles/volume] in Blood"
        },
        "valueQuantity": {
          "system": "http://unitsofmeasure.org",
          "value": 26.1,
          "unit": "mmol/L",
          "code": "mmol/L"
        },
        "referenceRange": [
          {
            "low": {
              "value": 22,
              "code": "mmol/L",
              "system": "http://unitsofmeasure.org"
            }
          },
          {
            "high": {
              "value": 29,
              "code": "mmol/L",
              "system": "http://unitsofmeasure.org"
            }
          }
        ],
        "text": {
          "status": "generated",
          "div": "<div xmlns=\"http://www.w3.org/1999/xhtml\"><table class=\"hl7__eu__lab__report\"><tr><th>Test</th><th>11-Sep-2015</th><th>Reference&#xA0;Range</th><th>Unit</th></tr><tr><td>Carbon dioxide, total [Moles/volume] in Blood</td><td>26.1</td><td>22 - 29</td><td></td><td>mmol/L</td></tr></table></div>"
        },
        "status": "final",
        "subject": {
          "reference": "urn:uuid:4f3050b5-486c-4b90-8f13-beefd03e752e",
          "display": "Iva Kratochvílová"
        },
        "effectiveDateTime": "2015-09-11T20:14:29Z",
        "specimen": {
          "reference": "urn:uuid:4510ddfa-49c8-4999-b249-75fa7c14a469"
        }
      }
    },
    {
      "fullUrl": "urn:uuid:f75b10e8-8158-4981-af01-6fef01d32c87",
      "resource": {
        "resourceType": "Observation",
        "id": "f75b10e8-8158-4981-af01-6fef01d32c87",
        "meta": {
          "profile": [
            "http://hl7.eu/fhir/laboratory/StructureDefinition/Observation-resultslab-eu-lab"
          ]
        },
        "performer": [
          {
            "display": "The Central European Lab"
          }
        ],
        "category": [
          {
            "coding": [
              {
                "system": "http://terminology.hl7.org/CodeSystem/observation-category",
                "code": "laboratory"
              }
            ]
          }
        ],
        "code": {
          "coding": [
            {
              "code": "2885-2",
              "system": "http://loinc.org",
              "display": "Protein [Mass/volume] in Serum or Plasma"
            }
          ],
          "text": "Protein [Mass/volume] in Serum or Plasma"
        },
        "valueQuantity": {
          "system": "http://unitsofmeasure.org",
          "value": 7.8,
          "unit": "g/dL",
          "code": "g/dL"
        },
        "referenceRange": [
          {
            "low": {
              "value": 6.6,
              "code": "g/dL",
              "system": "http://unitsofmeasure.org"
            }
          },
          {
            "high": {
              "value": 8.3,
              "code": "g/dL",
              "system": "http://unitsofmeasure.org"
            }
          }
        ],
        "text": {
          "status": "generated",
          "div": "<div xmlns=\"http://www.w3.org/1999/xhtml\"><table class=\"hl7__eu__lab__report\"><tr><th>Test</th><th>11-Sep-2015</th><th>Reference&#xA0;Range</th><th>Unit</th></tr><tr><td>Protein [Mass/volume] in Serum or Plasma</td><td>7.8</td><td>6.6 - 8.3</td><td></td><td>g/dL</td></tr></table></div>"
        },
        "status": "final",
        "subject": {
          "reference": "urn:uuid:4f3050b5-486c-4b90-8f13-beefd03e752e",
          "display": "Iva Kratochvílová"
        },
        "effectiveDateTime": "2015-09-11T20:14:29Z",
        "specimen": {
          "reference": "urn:uuid:41914722-0391-49b3-a8a2-6f37e1e0fbac"
        }
      }
    },
    {
      "fullUrl": "urn:uuid:8f31592d-865a-4609-a53e-646bf30f6a54",
      "resource": {
        "resourceType": "Observation",
        "id": "8f31592d-865a-4609-a53e-646bf30f6a54",
        "meta": {
          "profile": [
            "http://hl7.eu/fhir/laboratory/StructureDefinition/Observation-resultslab-eu-lab"
          ]
        },
        "performer": [
          {
            "display": "The Central European Lab"
          }
        ],
        "category": [
          {
            "coding": [
              {
                "system": "http://terminology.hl7.org/CodeSystem/observation-category",
                "code": "laboratory"
              }
            ]
          }
        ],
        "code": {
          "coding": [
            {
              "code": "1751-7",
              "system": "http://loinc.org",
              "display": "Albumin [Mass/volume] in Serum or Plasma"
            }
          ],
          "text": "Albumin [Mass/volume] in Serum or Plasma"
        },
        "valueQuantity": {
          "system": "http://unitsofmeasure.org",
          "value": 4,
          "unit": "g/dL",
          "code": "g/dL"
        },
        "referenceRange": [
          {
            "low": {
              "value": 3.5,
              "code": "g/dL",
              "system": "http://unitsofmeasure.org"
            }
          },
          {
            "high": {
              "value": 5,
              "code": "g/dL",
              "system": "http://unitsofmeasure.org"
            }
          }
        ],
        "text": {
          "status": "generated",
          "div": "<div xmlns=\"http://www.w3.org/1999/xhtml\"><table class=\"hl7__eu__lab__report\"><tr><th>Test</th><th>11-Sep-2015</th><th>Reference&#xA0;Range</th><th>Unit</th></tr><tr><td>Albumin [Mass/volume] in Serum or Plasma</td><td>4.0</td><td>3.5 - 5</td><td></td><td>g/dL</td></tr></table></div>"
        },
        "status": "final",
        "subject": {
          "reference": "urn:uuid:4f3050b5-486c-4b90-8f13-beefd03e752e",
          "display": "Iva Kratochvílová"
        },
        "effectiveDateTime": "2015-09-11T20:14:29Z",
        "specimen": {
          "reference": "urn:uuid:41914722-0391-49b3-a8a2-6f37e1e0fbac"
        }
      }
    },
    {
      "fullUrl": "urn:uuid:af00c1ad-ff74-4d6a-bbab-e0e9874ff5ca",
      "resource": {
        "resourceType": "Observation",
        "id": "af00c1ad-ff74-4d6a-bbab-e0e9874ff5ca",
        "meta": {
          "profile": [
            "http://hl7.eu/fhir/laboratory/StructureDefinition/Observation-resultslab-eu-lab"
          ]
        },
        "performer": [
          {
            "display": "The Central European Lab"
          }
        ],
        "category": [
          {
            "coding": [
              {
                "system": "http://terminology.hl7.org/CodeSystem/observation-category",
                "code": "laboratory"
              }
            ]
          }
        ],
        "code": {
          "coding": [
            {
              "code": "10834-0",
              "system": "http://loinc.org",
              "display": "Globulin [Mass/volume] in Serum by calculation"
            }
          ],
          "text": "Globulin [Mass/volume] in Serum by calculation"
        },
        "valueQuantity": {
          "system": "http://unitsofmeasure.org",
          "value": 3.4,
          "unit": "g/L",
          "code": "g/L"
        },
        "referenceRange": [
          {
            "low": {
              "value": 2,
              "code": "g/L",
              "system": "http://unitsofmeasure.org"
            }
          },
          {
            "high": {
              "value": 3.5,
              "code": "g/L",
              "system": "http://unitsofmeasure.org"
            }
          }
        ],
        "text": {
          "status": "generated",
          "div": "<div xmlns=\"http://www.w3.org/1999/xhtml\"><table class=\"hl7__eu__lab__report\"><tr><th>Test</th><th>11-Sep-2015</th><th>Reference&#xA0;Range</th><th>Unit</th></tr><tr><td>Globulin [Mass/volume] in Serum by calculation</td><td>3.4</td><td>2 - 3.5</td><td></td><td>g/L</td></tr></table></div>"
        },
        "status": "final",
        "subject": {
          "reference": "urn:uuid:4f3050b5-486c-4b90-8f13-beefd03e752e",
          "display": "Iva Kratochvílová"
        },
        "effectiveDateTime": "2015-09-11T20:14:29Z",
        "specimen": {
          "reference": "urn:uuid:b7b94ed1-a765-4177-965b-cb407f2b6b8b"
        }
      }
    },
    {
      "fullUrl": "urn:uuid:002a61df-f300-4267-8689-f15dff0144c8",
      "resource": {
        "resourceType": "Observation",
        "id": "002a61df-f300-4267-8689-f15dff0144c8",
        "meta": {
          "profile": [
            "http://hl7.eu/fhir/laboratory/StructureDefinition/Observation-resultslab-eu-lab"
          ]
        },
        "performer": [
          {
            "display": "The Central European Lab"
          }
        ],
        "category": [
          {
            "coding": [
              {
                "system": "http://terminology.hl7.org/CodeSystem/observation-category",
                "code": "laboratory"
              }
            ]
          }
        ],
        "code": {
          "coding": [
            {
              "code": "1975-2",
              "system": "http://loinc.org",
              "display": "Bilirubin.total [Mass/volume] in Serum or Plasma"
            }
          ],
          "text": "Bilirubin.total [Mass/volume] in Serum or Plasma"
        },
        "valueQuantity": {
          "system": "http://unitsofmeasure.org",
          "value": 0.5,
          "unit": "mg/dL",
          "code": "mg/dL"
        },
        "referenceRange": [
          {
            "low": {
              "value": 0.3,
              "code": "mg/dL",
              "system": "http://unitsofmeasure.org"
            }
          },
          {
            "high": {
              "value": 1.2,
              "code": "mg/dL",
              "system": "http://unitsofmeasure.org"
            }
          }
        ],
        "text": {
          "status": "generated",
          "div": "<div xmlns=\"http://www.w3.org/1999/xhtml\"><table class=\"hl7__eu__lab__report\"><tr><th>Test</th><th>11-Sep-2015</th><th>Reference&#xA0;Range</th><th>Unit</th></tr><tr><td>Bilirubin.total [Mass/volume] in Serum or Plasma</td><td>0.5</td><td>0.3 - 1.2</td><td></td><td>mg/dL</td></tr></table></div>"
        },
        "status": "final",
        "subject": {
          "reference": "urn:uuid:4f3050b5-486c-4b90-8f13-beefd03e752e",
          "display": "Iva Kratochvílová"
        },
        "effectiveDateTime": "2015-09-11T20:14:29Z",
        "specimen": {
          "reference": "urn:uuid:41914722-0391-49b3-a8a2-6f37e1e0fbac"
        }
      }
    },
    {
      "fullUrl": "urn:uuid:0127c166-4e82-44e9-8e46-c1bd8c9d5299",
      "resource": {
        "resourceType": "Observation",
        "id": "0127c166-4e82-44e9-8e46-c1bd8c9d5299",
        "meta": {
          "profile": [
            "http://hl7.eu/fhir/laboratory/StructureDefinition/Observation-resultslab-eu-lab"
          ]
        },
        "performer": [
          {
            "display": "The Central European Lab"
          }
        ],
        "category": [
          {
            "coding": [
              {
                "system": "http://terminology.hl7.org/CodeSystem/observation-category",
                "code": "laboratory"
              }
            ]
          }
        ],
        "code": {
          "coding": [
            {
              "code": "6768-6",
              "system": "http://loinc.org",
              "display": "Alkaline phosphatase [Enzymatic activity/volume] in Serum or Plasma"
            }
          ],
          "text": "Alkaline phosphatase [Enzymatic activity/volume] in Serum or Plasma"
        },
        "valueQuantity": {
          "system": "http://unitsofmeasure.org",
          "value": 135.5,
          "unit": "U/L",
          "code": "U/L"
        },
        "referenceRange": [
          {
            "low": {
              "value": 39,
              "code": "U/L",
              "system": "http://unitsofmeasure.org"
            }
          },
          {
            "high": {
              "value": 141,
              "code": "U/L",
              "system": "http://unitsofmeasure.org"
            }
          }
        ],
        "text": {
          "status": "generated",
          "div": "<div xmlns=\"http://www.w3.org/1999/xhtml\"><table class=\"hl7__eu__lab__report\"><tr><th>Test</th><th>11-Sep-2015</th><th>Reference&#xA0;Range</th><th>Unit</th></tr><tr><td>Alkaline phosphatase [Enzymatic activity/volume] in Serum or Plasma</td><td>135.5</td><td>39 - 141</td><td></td><td>U/L</td></tr></table></div>"
        },
        "status": "final",
        "subject": {
          "reference": "urn:uuid:4f3050b5-486c-4b90-8f13-beefd03e752e",
          "display": "Iva Kratochvílová"
        },
        "effectiveDateTime": "2015-09-11T20:14:29Z",
        "specimen": {
          "reference": "urn:uuid:41914722-0391-49b3-a8a2-6f37e1e0fbac"
        }
      }
    },
    {
      "fullUrl": "urn:uuid:e9997b2a-e77d-4189-b63b-bfc7b7bc5f5c",
      "resource": {
        "resourceType": "Observation",
        "id": "e9997b2a-e77d-4189-b63b-bfc7b7bc5f5c",
        "meta": {
          "profile": [
            "http://hl7.eu/fhir/laboratory/StructureDefinition/Observation-resultslab-eu-lab"
          ]
        },
        "performer": [
          {
            "display": "The Central European Lab"
          }
        ],
        "category": [
          {
            "coding": [
              {
                "system": "http://terminology.hl7.org/CodeSystem/observation-category",
                "code": "laboratory"
              }
            ]
          }
        ],
        "code": {
          "coding": [
            {
              "code": "1742-6",
              "system": "http://loinc.org",
              "display": "Alanine aminotransferase [Enzymatic activity/volume] in Serum or Plasma"
            }
          ],
          "text": "Alanine aminotransferase [Enzymatic activity/volume] in Serum or Plasma"
        },
        "valueQuantity": {
          "system": "http://unitsofmeasure.org",
          "value": 49.7,
          "unit": "U/L",
          "code": "U/L"
        },
        "referenceRange": [
          {
            "low": {
              "value": 7,
              "code": "U/L",
              "system": "http://unitsofmeasure.org"
            }
          },
          {
            "high": {
              "value": 40,
              "code": "U/L",
              "system": "http://unitsofmeasure.org"
            }
          }
        ],
        "interpretation": [
          {
            "coding": [
              {
                "code": "H",
                "system": "http://terminology.hl7.org/CodeSystem/v3-ObservationInterpretation",
                "display": "High"
              }
            ]
          }
        ],
        "text": {
          "status": "generated",
          "div": "<div xmlns=\"http://www.w3.org/1999/xhtml\"><table class=\"hl7__eu__lab__report\"><tr><th>Test</th><th>11-Sep-2015</th><th>Reference&#xA0;Range</th><th>Unit</th></tr><tr><td>Alanine aminotransferase [Enzymatic activity/volume] in Serum or Plasma</td><td>49.7</td><td>7 - 40</td><td>H</td><td>U/L</td></tr></table></div>"
        },
        "status": "final",
        "subject": {
          "reference": "urn:uuid:4f3050b5-486c-4b90-8f13-beefd03e752e",
          "display": "Iva Kratochvílová"
        },
        "effectiveDateTime": "2015-09-11T20:14:29Z",
        "specimen": {
          "reference": "urn:uuid:41914722-0391-49b3-a8a2-6f37e1e0fbac"
        }
      }
    },
    {
      "fullUrl": "urn:uuid:4dd17223-e5fb-4cb6-a8a4-8e18ef79d07d",
      "resource": {
        "resourceType": "Observation",
        "id": "4dd17223-e5fb-4cb6-a8a4-8e18ef79d07d",
        "meta": {
          "profile": [
            "http://hl7.eu/fhir/laboratory/StructureDefinition/Observation-resultslab-eu-lab"
          ]
        },
        "performer": [
          {
            "display": "The Central European Lab"
          }
        ],
        "category": [
          {
            "coding": [
              {
                "system": "http://terminology.hl7.org/CodeSystem/observation-category",
                "code": "laboratory"
              }
            ]
          }
        ],
        "code": {
          "coding": [
            {
              "code": "1920-8",
              "system": "http://loinc.org",
              "display": "Aspartate aminotransferase [Enzymatic activity/volume] in Serum or Plasma"
            }
          ],
          "text": "Aspartate aminotransferase [Enzymatic activity/volume] in Serum or Plasma"
        },
        "valueQuantity": {
          "system": "http://unitsofmeasure.org",
          "value": 18.7,
          "unit": "U/L",
          "code": "U/L"
        },
        "referenceRange": [
          {
            "low": {
              "value": 10,
              "code": "U/L",
              "system": "http://unitsofmeasure.org"
            }
          },
          {
            "high": {
              "value": 32,
              "code": "U/L",
              "system": "http://unitsofmeasure.org"
            }
          }
        ],
        "text": {
          "status": "generated",
          "div": "<div xmlns=\"http://www.w3.org/1999/xhtml\"><table class=\"hl7__eu__lab__report\"><tr><th>Test</th><th>11-Sep-2015</th><th>Reference&#xA0;Range</th><th>Unit</th></tr><tr><td>Aspartate aminotransferase [Enzymatic activity/volume] in Serum or Plasma</td><td>18.7</td><td>10 - 32</td><td></td><td>U/L</td></tr></table></div>"
        },
        "status": "final",
        "subject": {
          "reference": "urn:uuid:4f3050b5-486c-4b90-8f13-beefd03e752e",
          "display": "Iva Kratochvílová"
        },
        "effectiveDateTime": "2015-09-11T20:14:29Z",
        "specimen": {
          "reference": "urn:uuid:41914722-0391-49b3-a8a2-6f37e1e0fbac"
        }
      }
    },
    {
      "fullUrl": "urn:uuid:15391237-117b-46bb-85e6-27ab2acd472a",
      "resource": {
        "resourceType": "Observation",
        "id": "15391237-117b-46bb-85e6-27ab2acd472a",
        "meta": {
          "profile": [
            "http://hl7.eu/fhir/laboratory/StructureDefinition/Observation-resultslab-eu-lab"
          ]
        },
        "performer": [
          {
            "display": "The Central European Lab"
          }
        ],
        "category": [
          {
            "coding": [
              {
                "system": "http://terminology.hl7.org/CodeSystem/observation-category",
                "code": "laboratory"
              }
            ]
          }
        ],
        "code": {
          "coding": [
            {
              "code": "5767-9",
              "system": "http://loinc.org",
              "display": "Appearance of Urine"
            }
          ],
          "text": "Appearance of Urine"
        },
        "text": {
          "status": "generated",
          "div": "<div xmlns=\"http://www.w3.org/1999/xhtml\"><table class=\"hl7__eu__lab__report\"><tr><th>Test</th><th>11-Sep-2015</th><th>Reference&#xA0;Range</th><th>Unit</th></tr><tr><td>Appearance of Urine</td></tr></table></div>"
        },
        "status": "final",
        "subject": {
          "reference": "urn:uuid:4f3050b5-486c-4b90-8f13-beefd03e752e",
          "display": "Iva Kratochvílová"
        },
        "effectiveDateTime": "2015-09-11T20:14:29Z",
        "specimen": {
          "reference": "urn:uuid:933befcb-7135-4ac0-800f-675ebe5724cf"
        }
      }
    },
    {
      "fullUrl": "urn:uuid:978229f1-4e98-47cc-9e26-0a3f081df2a6",
      "resource": {
        "resourceType": "Observation",
        "id": "978229f1-4e98-47cc-9e26-0a3f081df2a6",
        "meta": {
          "profile": [
            "http://hl7.eu/fhir/laboratory/StructureDefinition/Observation-resultslab-eu-lab"
          ]
        },
        "performer": [
          {
            "display": "The Central European Lab"
          }
        ],
        "category": [
          {
            "coding": [
              {
                "system": "http://terminology.hl7.org/CodeSystem/observation-category",
                "code": "laboratory"
              }
            ]
          }
        ],
        "code": {
          "coding": [
            {
              "code": "34533-0",
              "system": "http://loinc.org",
              "display": "Odor of Urine"
            }
          ],
          "text": "Odor of Urine"
        },
        "text": {
          "status": "generated",
          "div": "<div xmlns=\"http://www.w3.org/1999/xhtml\"><table class=\"hl7__eu__lab__report\"><tr><th>Test</th><th>11-Sep-2015</th><th>Reference&#xA0;Range</th><th>Unit</th></tr><tr><td>Odor of Urine</td></tr></table></div>"
        },
        "status": "final",
        "subject": {
          "reference": "urn:uuid:4f3050b5-486c-4b90-8f13-beefd03e752e",
          "display": "Iva Kratochvílová"
        },
        "effectiveDateTime": "2015-09-11T20:14:29Z",
        "specimen": {
          "reference": "urn:uuid:933befcb-7135-4ac0-800f-675ebe5724cf"
        }
      }
    },
    {
      "fullUrl": "urn:uuid:606fda7d-527a-4b4d-a361-b3a9d97c70d8",
      "resource": {
        "resourceType": "Observation",
        "id": "606fda7d-527a-4b4d-a361-b3a9d97c70d8",
        "meta": {
          "profile": [
            "http://hl7.eu/fhir/laboratory/StructureDefinition/Observation-resultslab-eu-lab"
          ]
        },
        "performer": [
          {
            "display": "The Central European Lab"
          }
        ],
        "category": [
          {
            "coding": [
              {
                "system": "http://terminology.hl7.org/CodeSystem/observation-category",
                "code": "laboratory"
              }
            ]
          }
        ],
        "code": {
          "coding": [
            {
              "code": "32167-9",
              "system": "http://loinc.org",
              "display": "Clarity of Urine"
            }
          ],
          "text": "Clarity of Urine"
        },
        "text": {
          "status": "generated",
          "div": "<div xmlns=\"http://www.w3.org/1999/xhtml\"><table class=\"hl7__eu__lab__report\"><tr><th>Test</th><th>11-Sep-2015</th><th>Reference&#xA0;Range</th><th>Unit</th></tr><tr><td>Clarity of Urine</td></tr></table></div>"
        },
        "status": "final",
        "subject": {
          "reference": "urn:uuid:4f3050b5-486c-4b90-8f13-beefd03e752e",
          "display": "Iva Kratochvílová"
        },
        "effectiveDateTime": "2015-09-11T20:14:29Z",
        "specimen": {
          "reference": "urn:uuid:933befcb-7135-4ac0-800f-675ebe5724cf"
        }
      }
    },
    {
      "fullUrl": "urn:uuid:428764f5-0dec-4a35-b8ce-4feb52641a24",
      "resource": {
        "resourceType": "Observation",
        "id": "428764f5-0dec-4a35-b8ce-4feb52641a24",
        "meta": {
          "profile": [
            "http://hl7.eu/fhir/laboratory/StructureDefinition/Observation-resultslab-eu-lab"
          ]
        },
        "performer": [
          {
            "display": "The Central European Lab"
          }
        ],
        "category": [
          {
            "coding": [
              {
                "system": "http://terminology.hl7.org/CodeSystem/observation-category",
                "code": "laboratory"
              }
            ]
          }
        ],
        "code": {
          "coding": [
            {
              "code": "5778-6",
              "system": "http://loinc.org",
              "display": "Color of Urine"
            }
          ],
          "text": "Color of Urine"
        },
        "text": {
          "status": "generated",
          "div": "<div xmlns=\"http://www.w3.org/1999/xhtml\"><table class=\"hl7__eu__lab__report\"><tr><th>Test</th><th>11-Sep-2015</th><th>Reference&#xA0;Range</th><th>Unit</th></tr><tr><td>Color of Urine</td></tr></table></div>"
        },
        "status": "final",
        "subject": {
          "reference": "urn:uuid:4f3050b5-486c-4b90-8f13-beefd03e752e",
          "display": "Iva Kratochvílová"
        },
        "effectiveDateTime": "2015-09-11T20:14:29Z",
        "specimen": {
          "reference": "urn:uuid:933befcb-7135-4ac0-800f-675ebe5724cf"
        }
      }
    },
    {
      "fullUrl": "urn:uuid:f2dca41a-a2ac-481b-a117-8dfef3ac64e8",
      "resource": {
        "resourceType": "Observation",
        "id": "f2dca41a-a2ac-481b-a117-8dfef3ac64e8",
        "meta": {
          "profile": [
            "http://hl7.eu/fhir/laboratory/StructureDefinition/Observation-resultslab-eu-lab"
          ]
        },
        "performer": [
          {
            "display": "The Central European Lab"
          }
        ],
        "category": [
          {
            "coding": [
              {
                "system": "http://terminology.hl7.org/CodeSystem/observation-category",
                "code": "laboratory"
              }
            ]
          }
        ],
        "code": {
          "coding": [
            {
              "code": "5792-7",
              "system": "http://loinc.org",
              "display": "Glucose [Mass/volume] in Urine by Test strip"
            }
          ],
          "text": "Glucose [Mass/volume] in Urine by Test strip"
        },
        "valueQuantity": {
          "system": "http://unitsofmeasure.org",
          "value": 0.7,
          "unit": "mg/dL",
          "code": "mg/dL"
        },
        "referenceRange": [
          {
            "low": {
              "value": 0,
              "code": "mg/dL",
              "system": "http://unitsofmeasure.org"
            }
          },
          {
            "high": {
              "value": 0.8,
              "code": "mg/dL",
              "system": "http://unitsofmeasure.org"
            }
          }
        ],
        "text": {
          "status": "generated",
          "div": "<div xmlns=\"http://www.w3.org/1999/xhtml\"><table class=\"hl7__eu__lab__report\"><tr><th>Test</th><th>11-Sep-2015</th><th>Reference&#xA0;Range</th><th>Unit</th></tr><tr><td>Glucose [Mass/volume] in Urine by Test strip</td><td>0.7</td><td>0 - 0.8</td><td></td><td>mg/dL</td></tr></table></div>"
        },
        "status": "final",
        "subject": {
          "reference": "urn:uuid:4f3050b5-486c-4b90-8f13-beefd03e752e",
          "display": "Iva Kratochvílová"
        },
        "effectiveDateTime": "2015-09-11T20:14:29Z",
        "specimen": {
          "reference": "urn:uuid:933befcb-7135-4ac0-800f-675ebe5724cf"
        }
      }
    },
    {
      "fullUrl": "urn:uuid:22213b41-49c2-49e6-839c-2d6c4f40af75",
      "resource": {
        "resourceType": "Observation",
        "id": "22213b41-49c2-49e6-839c-2d6c4f40af75",
        "meta": {
          "profile": [
            "http://hl7.eu/fhir/laboratory/StructureDefinition/Observation-resultslab-eu-lab"
          ]
        },
        "performer": [
          {
            "display": "The Central European Lab"
          }
        ],
        "category": [
          {
            "coding": [
              {
                "system": "http://terminology.hl7.org/CodeSystem/observation-category",
                "code": "laboratory"
              }
            ]
          }
        ],
        "code": {
          "coding": [
            {
              "code": "25428-4",
              "system": "http://loinc.org",
              "display": "Glucose [Presence] in Urine by Test strip"
            }
          ],
          "text": "Glucose [Presence] in Urine by Test strip"
        },
        "text": {
          "status": "generated",
          "div": "<div xmlns=\"http://www.w3.org/1999/xhtml\"><table class=\"hl7__eu__lab__report\"><tr><th>Test</th><th>11-Sep-2015</th><th>Reference&#xA0;Range</th><th>Unit</th></tr><tr><td>Glucose [Presence] in Urine by Test strip</td></tr></table></div>"
        },
        "status": "final",
        "subject": {
          "reference": "urn:uuid:4f3050b5-486c-4b90-8f13-beefd03e752e",
          "display": "Iva Kratochvílová"
        },
        "effectiveDateTime": "2015-09-11T20:14:29Z",
        "specimen": {
          "reference": "urn:uuid:933befcb-7135-4ac0-800f-675ebe5724cf"
        }
      }
    },
    {
      "fullUrl": "urn:uuid:a338be52-a53c-4ac8-8ca4-2239fb86edb5",
      "resource": {
        "resourceType": "Observation",
        "id": "a338be52-a53c-4ac8-8ca4-2239fb86edb5",
        "meta": {
          "profile": [
            "http://hl7.eu/fhir/laboratory/StructureDefinition/Observation-resultslab-eu-lab"
          ]
        },
        "performer": [
          {
            "display": "The Central European Lab"
          }
        ],
        "category": [
          {
            "coding": [
              {
                "system": "http://terminology.hl7.org/CodeSystem/observation-category",
                "code": "laboratory"
              }
            ]
          }
        ],
        "code": {
          "coding": [
            {
              "code": "20505-4",
              "system": "http://loinc.org",
              "display": "Bilirubin.total [Mass/volume] in Urine by Test strip"
            }
          ],
          "text": "Bilirubin.total [Mass/volume] in Urine by Test strip"
        },
        "valueQuantity": {
          "system": "http://unitsofmeasure.org",
          "value": 1.3,
          "unit": "mg/dL",
          "code": "mg/dL"
        },
        "referenceRange": [
          {
            "low": {
              "value": 0,
              "code": "mg/dL",
              "system": "http://unitsofmeasure.org"
            }
          },
          {
            "high": {
              "value": 1,
              "code": "mg/dL",
              "system": "http://unitsofmeasure.org"
            }
          }
        ],
        "interpretation": [
          {
            "coding": [
              {
                "code": "H",
                "system": "http://terminology.hl7.org/CodeSystem/v3-ObservationInterpretation",
                "display": "High"
              }
            ]
          }
        ],
        "text": {
          "status": "generated",
          "div": "<div xmlns=\"http://www.w3.org/1999/xhtml\"><table class=\"hl7__eu__lab__report\"><tr><th>Test</th><th>11-Sep-2015</th><th>Reference&#xA0;Range</th><th>Unit</th></tr><tr><td>Bilirubin.total [Mass/volume] in Urine by Test strip</td><td>1.3</td><td>0 - 1</td><td>H</td><td>mg/dL</td></tr></table></div>"
        },
        "status": "final",
        "subject": {
          "reference": "urn:uuid:4f3050b5-486c-4b90-8f13-beefd03e752e",
          "display": "Iva Kratochvílová"
        },
        "effectiveDateTime": "2015-09-11T20:14:29Z",
        "specimen": {
          "reference": "urn:uuid:933befcb-7135-4ac0-800f-675ebe5724cf"
        }
      }
    },
    {
      "fullUrl": "urn:uuid:16141042-4ff3-4045-9562-b9914279f5cf",
      "resource": {
        "resourceType": "Observation",
        "id": "16141042-4ff3-4045-9562-b9914279f5cf",
        "meta": {
          "profile": [
            "http://hl7.eu/fhir/laboratory/StructureDefinition/Observation-resultslab-eu-lab"
          ]
        },
        "performer": [
          {
            "display": "The Central European Lab"
          }
        ],
        "category": [
          {
            "coding": [
              {
                "system": "http://terminology.hl7.org/CodeSystem/observation-category",
                "code": "laboratory"
              }
            ]
          }
        ],
        "code": {
          "coding": [
            {
              "code": "5770-3",
              "system": "http://loinc.org",
              "display": "Bilirubin.total [Presence] in Urine by Test strip"
            }
          ],
          "text": "Bilirubin.total [Presence] in Urine by Test strip"
        },
        "text": {
          "status": "generated",
          "div": "<div xmlns=\"http://www.w3.org/1999/xhtml\"><table class=\"hl7__eu__lab__report\"><tr><th>Test</th><th>11-Sep-2015</th><th>Reference&#xA0;Range</th><th>Unit</th></tr><tr><td>Bilirubin.total [Presence] in Urine by Test strip</td></tr></table></div>"
        },
        "status": "final",
        "subject": {
          "reference": "urn:uuid:4f3050b5-486c-4b90-8f13-beefd03e752e",
          "display": "Iva Kratochvílová"
        },
        "effectiveDateTime": "2015-09-11T20:14:29Z",
        "specimen": {
          "reference": "urn:uuid:933befcb-7135-4ac0-800f-675ebe5724cf"
        }
      }
    },
    {
      "fullUrl": "urn:uuid:41095120-4403-4d5c-b7c4-92d859a52948",
      "resource": {
        "resourceType": "Observation",
        "id": "41095120-4403-4d5c-b7c4-92d859a52948",
        "meta": {
          "profile": [
            "http://hl7.eu/fhir/laboratory/StructureDefinition/Observation-resultslab-eu-lab"
          ]
        },
        "performer": [
          {
            "display": "The Central European Lab"
          }
        ],
        "category": [
          {
            "coding": [
              {
                "system": "http://terminology.hl7.org/CodeSystem/observation-category",
                "code": "laboratory"
              }
            ]
          }
        ],
        "code": {
          "coding": [
            {
              "code": "5797-6",
              "system": "http://loinc.org",
              "display": "Ketones [Mass/volume] in Urine by Test strip"
            }
          ],
          "text": "Ketones [Mass/volume] in Urine by Test strip"
        },
        "valueQuantity": {
          "system": "http://unitsofmeasure.org",
          "value": 14.5,
          "unit": "mg/dL",
          "code": "mg/dL"
        },
        "referenceRange": [
          {
            "low": {
              "value": 0,
              "code": "mg/dL",
              "system": "http://unitsofmeasure.org"
            }
          },
          {
            "high": {
              "value": 4,
              "code": "mg/dL",
              "system": "http://unitsofmeasure.org"
            }
          }
        ],
        "interpretation": [
          {
            "coding": [
              {
                "code": "H",
                "system": "http://terminology.hl7.org/CodeSystem/v3-ObservationInterpretation",
                "display": "High"
              }
            ]
          }
        ],
        "text": {
          "status": "generated",
          "div": "<div xmlns=\"http://www.w3.org/1999/xhtml\"><table class=\"hl7__eu__lab__report\"><tr><th>Test</th><th>11-Sep-2015</th><th>Reference&#xA0;Range</th><th>Unit</th></tr><tr><td>Ketones [Mass/volume] in Urine by Test strip</td><td>14.5</td><td>0 - 4</td><td>H</td><td>mg/dL</td></tr></table></div>"
        },
        "status": "final",
        "subject": {
          "reference": "urn:uuid:4f3050b5-486c-4b90-8f13-beefd03e752e",
          "display": "Iva Kratochvílová"
        },
        "effectiveDateTime": "2015-09-11T20:14:29Z",
        "specimen": {
          "reference": "urn:uuid:933befcb-7135-4ac0-800f-675ebe5724cf"
        }
      }
    },
    {
      "fullUrl": "urn:uuid:f2a0d6ad-c27d-4b8e-a2eb-56a0317259e3",
      "resource": {
        "resourceType": "Observation",
        "id": "f2a0d6ad-c27d-4b8e-a2eb-56a0317259e3",
        "meta": {
          "profile": [
            "http://hl7.eu/fhir/laboratory/StructureDefinition/Observation-resultslab-eu-lab"
          ]
        },
        "performer": [
          {
            "display": "The Central European Lab"
          }
        ],
        "category": [
          {
            "coding": [
              {
                "system": "http://terminology.hl7.org/CodeSystem/observation-category",
                "code": "laboratory"
              }
            ]
          }
        ],
        "code": {
          "coding": [
            {
              "code": "2514-8",
              "system": "http://loinc.org",
              "display": "Ketones [Presence] in Urine by Test strip"
            }
          ],
          "text": "Ketones [Presence] in Urine by Test strip"
        },
        "text": {
          "status": "generated",
          "div": "<div xmlns=\"http://www.w3.org/1999/xhtml\"><table class=\"hl7__eu__lab__report\"><tr><th>Test</th><th>11-Sep-2015</th><th>Reference&#xA0;Range</th><th>Unit</th></tr><tr><td>Ketones [Presence] in Urine by Test strip</td></tr></table></div>"
        },
        "status": "final",
        "subject": {
          "reference": "urn:uuid:4f3050b5-486c-4b90-8f13-beefd03e752e",
          "display": "Iva Kratochvílová"
        },
        "effectiveDateTime": "2015-09-11T20:14:29Z",
        "specimen": {
          "reference": "urn:uuid:933befcb-7135-4ac0-800f-675ebe5724cf"
        }
      }
    },
    {
      "fullUrl": "urn:uuid:b9108f3a-a4aa-475d-93f0-054f2066f520",
      "resource": {
        "resourceType": "Observation",
        "id": "b9108f3a-a4aa-475d-93f0-054f2066f520",
        "meta": {
          "profile": [
            "http://hl7.eu/fhir/laboratory/StructureDefinition/Observation-resultslab-eu-lab"
          ]
        },
        "performer": [
          {
            "display": "The Central European Lab"
          }
        ],
        "category": [
          {
            "coding": [
              {
                "system": "http://terminology.hl7.org/CodeSystem/observation-category",
                "code": "laboratory"
              }
            ]
          }
        ],
        "code": {
          "coding": [
            {
              "code": "5811-5",
              "system": "http://loinc.org",
              "display": "Specific gravity of Urine by Test strip"
            }
          ],
          "text": "Specific gravity of Urine by Test strip"
        },
        "valueQuantity": {
          "system": "http://unitsofmeasure.org",
          "value": 1,
          "unit": "{nominal}",
          "code": "{nominal}"
        },
        "referenceRange": [
          {
            "low": {
              "value": 1.005,
              "code": "g/mL",
              "system": "http://unitsofmeasure.org"
            }
          },
          {
            "high": {
              "value": 1.03,
              "code": "g/mL",
              "system": "http://unitsofmeasure.org"
            }
          }
        ],
        "interpretation": [
          {
            "coding": [
              {
                "code": "L",
                "system": "http://terminology.hl7.org/CodeSystem/v3-ObservationInterpretation",
                "display": "Low"
              }
            ]
          }
        ],
        "text": {
          "status": "generated",
          "div": "<div xmlns=\"http://www.w3.org/1999/xhtml\"><table class=\"hl7__eu__lab__report\"><tr><th>Test</th><th>11-Sep-2015</th><th>Reference&#xA0;Range</th><th>Unit</th></tr><tr><td>Specific gravity of Urine by Test strip</td><td>1.0</td><td>1.005 - 1.03</td><td>L</td><td>{nominal}</td></tr></table></div>"
        },
        "status": "final",
        "subject": {
          "reference": "urn:uuid:4f3050b5-486c-4b90-8f13-beefd03e752e",
          "display": "Iva Kratochvílová"
        },
        "effectiveDateTime": "2015-09-11T20:14:29Z",
        "specimen": {
          "reference": "urn:uuid:933befcb-7135-4ac0-800f-675ebe5724cf"
        }
      }
    },
    {
      "fullUrl": "urn:uuid:4a9f0a48-bc38-4243-a89f-bc6e41c9de76",
      "resource": {
        "resourceType": "Observation",
        "id": "4a9f0a48-bc38-4243-a89f-bc6e41c9de76",
        "meta": {
          "profile": [
            "http://hl7.eu/fhir/laboratory/StructureDefinition/Observation-resultslab-eu-lab"
          ]
        },
        "performer": [
          {
            "display": "The Central European Lab"
          }
        ],
        "category": [
          {
            "coding": [
              {
                "system": "http://terminology.hl7.org/CodeSystem/observation-category",
                "code": "laboratory"
              }
            ]
          }
        ],
        "code": {
          "coding": [
            {
              "code": "5803-2",
              "system": "http://loinc.org",
              "display": "pH of Urine by Test strip"
            }
          ],
          "text": "pH of Urine by Test strip"
        },
        "valueQuantity": {
          "system": "http://unitsofmeasure.org",
          "value": 6.9,
          "unit": "pH",
          "code": "pH"
        },
        "referenceRange": [
          {
            "low": {
              "value": 4.5,
              "code": "pH",
              "system": "http://unitsofmeasure.org"
            }
          },
          {
            "high": {
              "value": 7,
              "code": "pH",
              "system": "http://unitsofmeasure.org"
            }
          }
        ],
        "text": {
          "status": "generated",
          "div": "<div xmlns=\"http://www.w3.org/1999/xhtml\"><table class=\"hl7__eu__lab__report\"><tr><th>Test</th><th>11-Sep-2015</th><th>Reference&#xA0;Range</th><th>Unit</th></tr><tr><td>pH of Urine by Test strip</td><td>6.9</td><td>4.5 - 7</td><td></td><td>pH</td></tr></table></div>"
        },
        "status": "final",
        "subject": {
          "reference": "urn:uuid:4f3050b5-486c-4b90-8f13-beefd03e752e",
          "display": "Iva Kratochvílová"
        },
        "effectiveDateTime": "2015-09-11T20:14:29Z",
        "specimen": {
          "reference": "urn:uuid:933befcb-7135-4ac0-800f-675ebe5724cf"
        }
      }
    },
    {
      "fullUrl": "urn:uuid:1d218eae-003f-46de-be88-7473cf448d8c",
      "resource": {
        "resourceType": "Observation",
        "id": "1d218eae-003f-46de-be88-7473cf448d8c",
        "meta": {
          "profile": [
            "http://hl7.eu/fhir/laboratory/StructureDefinition/Observation-resultslab-eu-lab"
          ]
        },
        "performer": [
          {
            "display": "The Central European Lab"
          }
        ],
        "category": [
          {
            "coding": [
              {
                "system": "http://terminology.hl7.org/CodeSystem/observation-category",
                "code": "laboratory"
              }
            ]
          }
        ],
        "code": {
          "coding": [
            {
              "code": "5804-0",
              "system": "http://loinc.org",
              "display": "Protein [Mass/volume] in Urine by Test strip"
            }
          ],
          "text": "Protein [Mass/volume] in Urine by Test strip"
        },
        "valueQuantity": {
          "system": "http://unitsofmeasure.org",
          "value": 413.4,
          "unit": "mg/dL",
          "code": "mg/dL"
        },
        "referenceRange": [
          {
            "low": {
              "value": 0,
              "code": "mg/dL",
              "system": "http://unitsofmeasure.org"
            }
          },
          {
            "high": {
              "value": 145,
              "code": "mg/dL",
              "system": "http://unitsofmeasure.org"
            }
          }
        ],
        "interpretation": [
          {
            "coding": [
              {
                "code": "H",
                "system": "http://terminology.hl7.org/CodeSystem/v3-ObservationInterpretation",
                "display": "High"
              }
            ]
          }
        ],
        "text": {
          "status": "generated",
          "div": "<div xmlns=\"http://www.w3.org/1999/xhtml\"><table class=\"hl7__eu__lab__report\"><tr><th>Test</th><th>11-Sep-2015</th><th>Reference&#xA0;Range</th><th>Unit</th></tr><tr><td>Protein [Mass/volume] in Urine by Test strip</td><td>413.4</td><td>0 - 145</td><td>H</td><td>mg/dL</td></tr></table></div>"
        },
        "status": "final",
        "subject": {
          "reference": "urn:uuid:4f3050b5-486c-4b90-8f13-beefd03e752e",
          "display": "Iva Kratochvílová"
        },
        "effectiveDateTime": "2015-09-11T20:14:29Z",
        "specimen": {
          "reference": "urn:uuid:933befcb-7135-4ac0-800f-675ebe5724cf"
        }
      }
    },
    {
      "fullUrl": "urn:uuid:4fcd63e9-ad6c-417b-b687-c05fc5463815",
      "resource": {
        "resourceType": "Observation",
        "id": "4fcd63e9-ad6c-417b-b687-c05fc5463815",
        "meta": {
          "profile": [
            "http://hl7.eu/fhir/laboratory/StructureDefinition/Observation-resultslab-eu-lab"
          ]
        },
        "performer": [
          {
            "display": "The Central European Lab"
          }
        ],
        "category": [
          {
            "coding": [
              {
                "system": "http://terminology.hl7.org/CodeSystem/observation-category",
                "code": "laboratory"
              }
            ]
          }
        ],
        "code": {
          "coding": [
            {
              "code": "20454-5",
              "system": "http://loinc.org",
              "display": "Protein [Presence] in Urine by Test strip"
            }
          ],
          "text": "Protein [Presence] in Urine by Test strip"
        },
        "text": {
          "status": "generated",
          "div": "<div xmlns=\"http://www.w3.org/1999/xhtml\"><table class=\"hl7__eu__lab__report\"><tr><th>Test</th><th>11-Sep-2015</th><th>Reference&#xA0;Range</th><th>Unit</th></tr><tr><td>Protein [Presence] in Urine by Test strip</td></tr></table></div>"
        },
        "status": "final",
        "subject": {
          "reference": "urn:uuid:4f3050b5-486c-4b90-8f13-beefd03e752e",
          "display": "Iva Kratochvílová"
        },
        "effectiveDateTime": "2015-09-11T20:14:29Z",
        "specimen": {
          "reference": "urn:uuid:933befcb-7135-4ac0-800f-675ebe5724cf"
        }
      }
    },
    {
      "fullUrl": "urn:uuid:09d2d174-2274-4503-890f-3a122e0d5083",
      "resource": {
        "resourceType": "Observation",
        "id": "09d2d174-2274-4503-890f-3a122e0d5083",
        "meta": {
          "profile": [
            "http://hl7.eu/fhir/laboratory/StructureDefinition/Observation-resultslab-eu-lab"
          ]
        },
        "performer": [
          {
            "display": "The Central European Lab"
          }
        ],
        "category": [
          {
            "coding": [
              {
                "system": "http://terminology.hl7.org/CodeSystem/observation-category",
                "code": "laboratory"
              }
            ]
          }
        ],
        "code": {
          "coding": [
            {
              "code": "5802-4",
              "system": "http://loinc.org",
              "display": "Nitrite [Presence] in Urine by Test strip"
            }
          ],
          "text": "Nitrite [Presence] in Urine by Test strip"
        },
        "text": {
          "status": "generated",
          "div": "<div xmlns=\"http://www.w3.org/1999/xhtml\"><table class=\"hl7__eu__lab__report\"><tr><th>Test</th><th>11-Sep-2015</th><th>Reference&#xA0;Range</th><th>Unit</th></tr><tr><td>Nitrite [Presence] in Urine by Test strip</td></tr></table></div>"
        },
        "status": "final",
        "subject": {
          "reference": "urn:uuid:4f3050b5-486c-4b90-8f13-beefd03e752e",
          "display": "Iva Kratochvílová"
        },
        "effectiveDateTime": "2015-09-11T20:14:29Z",
        "specimen": {
          "reference": "urn:uuid:933befcb-7135-4ac0-800f-675ebe5724cf"
        }
      }
    },
    {
      "fullUrl": "urn:uuid:c5c6f8ba-7395-441b-9db8-b893f0c8df4d",
      "resource": {
        "resourceType": "Observation",
        "id": "c5c6f8ba-7395-441b-9db8-b893f0c8df4d",
        "meta": {
          "profile": [
            "http://hl7.eu/fhir/laboratory/StructureDefinition/Observation-resultslab-eu-lab"
          ]
        },
        "performer": [
          {
            "display": "The Central European Lab"
          }
        ],
        "category": [
          {
            "coding": [
              {
                "system": "http://terminology.hl7.org/CodeSystem/observation-category",
                "code": "laboratory"
              }
            ]
          }
        ],
        "code": {
          "coding": [
            {
              "code": "5794-3",
              "system": "http://loinc.org",
              "display": "Hemoglobin [Presence] in Urine by Test strip"
            }
          ],
          "text": "Hemoglobin [Presence] in Urine by Test strip"
        },
        "text": {
          "status": "generated",
          "div": "<div xmlns=\"http://www.w3.org/1999/xhtml\"><table class=\"hl7__eu__lab__report\"><tr><th>Test</th><th>11-Sep-2015</th><th>Reference&#xA0;Range</th><th>Unit</th></tr><tr><td>Hemoglobin [Presence] in Urine by Test strip</td></tr></table></div>"
        },
        "status": "final",
        "subject": {
          "reference": "urn:uuid:4f3050b5-486c-4b90-8f13-beefd03e752e",
          "display": "Iva Kratochvílová"
        },
        "effectiveDateTime": "2015-09-11T20:14:29Z",
        "specimen": {
          "reference": "urn:uuid:933befcb-7135-4ac0-800f-675ebe5724cf"
        }
      }
    },
    {
      "fullUrl": "urn:uuid:59e931a4-a1cd-4d0a-bf01-86e7c09faf83",
      "resource": {
        "resourceType": "Observation",
        "id": "59e931a4-a1cd-4d0a-bf01-86e7c09faf83",
        "meta": {
          "profile": [
            "http://hl7.eu/fhir/laboratory/StructureDefinition/Observation-resultslab-eu-lab"
          ]
        },
        "performer": [
          {
            "display": "The Central European Lab"
          }
        ],
        "category": [
          {
            "coding": [
              {
                "system": "http://terminology.hl7.org/CodeSystem/observation-category",
                "code": "laboratory"
              }
            ]
          }
        ],
        "code": {
          "coding": [
            {
              "code": "5799-2",
              "system": "http://loinc.org",
              "display": "Leukocyte esterase [Presence] in Urine by Test strip"
            }
          ],
          "text": "Leukocyte esterase [Presence] in Urine by Test strip"
        },
        "text": {
          "status": "generated",
          "div": "<div xmlns=\"http://www.w3.org/1999/xhtml\"><table class=\"hl7__eu__lab__report\"><tr><th>Test</th><th>11-Sep-2015</th><th>Reference&#xA0;Range</th><th>Unit</th></tr><tr><td>Leukocyte esterase [Presence] in Urine by Test strip</td></tr></table></div>"
        },
        "status": "final",
        "subject": {
          "reference": "urn:uuid:4f3050b5-486c-4b90-8f13-beefd03e752e",
          "display": "Iva Kratochvílová"
        },
        "effectiveDateTime": "2015-09-11T20:14:29Z",
        "specimen": {
          "reference": "urn:uuid:933befcb-7135-4ac0-800f-675ebe5724cf"
        }
      }
    },
    {
      "fullUrl": "urn:uuid:0fc0a499-1852-4456-842e-52798058206a",
      "resource": {
        "resourceType": "Device",
        "id": "0fc0a499-1852-4456-842e-52798058206a",
        "deviceName": [
          {
            "name": "SYNDERAI Synthetic Generator",
            "type": "manufacturer-name"
          }
        ],
        "version": [
          {
            "value": "5.0"
          }
        ],
        "text": {
          "status": "generated",
          "div": "<div xmlns=\"http://www.w3.org/1999/xhtml\">SYNDERAI Synthetic Generator v5.0</div>"
        },
        "status": "active\"",
        "distinctIdentifier": "synderai-generator-50",
        "manufacturer": "SYNDERAI Project"
      }
    },
    {
      "fullUrl": "urn:uuid:0e06b773-6182-49e0-b7ec-aca6810b7625",
      "resource": {
        "resourceType": "Provenance",
        "id": "0e06b773-6182-49e0-b7ec-aca6810b7625",
        "target": [
          {
            "reference": "Patient/4f3050b5-486c-4b90-8f13-beefd03e752e"
          },
          {
            "reference": "Bundle/5b7fe801-b8ae-4337-9e73-9fb0891f5774"
          },
          {
            "reference": "Composition/74f6bf76-4c6a-43a0-81f4-b1d23ddba8dd"
          },
          {
            "reference": "PractitionerRole/17561cdb-8d30-4f56-a7cb-35aff820e429"
          },
          {
            "reference": "Practitioner/e7c07779-ef6e-4e8b-b131-0b79d34dbdbf"
          },
          {
            "reference": "PractitionerRole/d66470b9-c6b4-40d6-9c2d-d1b3998d5e5d"
          },
          {
            "reference": "Organization/7e97ae55-98f3-4f22-a295-b9841899a70a"
          }
        ],
        "activity": {
          "text": "Synthetic Example Data Generation"
        },
        "policy": [
          "https://synderai.net/synderai-synthetic-data-policy"
        ],
        "agent": [
          {
            "type": {
              "text": "author"
            },
            "who": {
              "reference": "Device/0fc0a499-1852-4456-842e-52798058206a"
            }
          }
        ],
        "reason": [
          {
            "text": "Interoperability Testing and Training (non-clinical use)"
          }
        ],
        "text": {
          "status": "generated",
          "div": "<div xmlns=\"http://www.w3.org/1999/xhtml\">Provenance for SYNDERAI Synthetic Example Data Resource</div>"
        },
        "recorded": "2015-09-11T22:14:29Z"
      }
    },
    {
      "fullUrl": "urn:uuid:17561cdb-8d30-4f56-a7cb-35aff820e429",
      "resource": {
        "resourceType": "PractitionerRole",
        "id": "17561cdb-8d30-4f56-a7cb-35aff820e429",
        "meta": {
          "profile": [
            "http://hl7.eu/fhir/base/StructureDefinition/practitionerRole-eu"
          ]
        },
        "text": {
          "status": "generated",
          "div": "<div xmlns=\"http://www.w3.org/1999/xhtml\">Laboratory Role Id: 17561cdb-8d30-4f56-a7cb-35aff820e429</div>"
        },
        "practitioner": {
          "reference": "urn:uuid:e7c07779-ef6e-4e8b-b131-0b79d34dbdbf"
        }
      }
    },
    {
      "fullUrl": "urn:uuid:e7c07779-ef6e-4e8b-b131-0b79d34dbdbf",
      "resource": {
        "resourceType": "Practitioner",
        "id": "e7c07779-ef6e-4e8b-b131-0b79d34dbdbf",
        "meta": {
          "profile": [
            "http://hl7.eu/fhir/base/StructureDefinition/practitioner-eu"
          ]
        },
        "identifier": [
          {
            "assigner": {
              "display": "HL7 Europe"
            },
            "system": "urn:oid:2.16.840.1.113883.2.51.999",
            "value": "c1b5bb12-d891-42f7-9955-219907b5c47c"
          }
        ],
        "name": [
          {
            "prefix": [
              "dr"
            ],
            "given": [
              "Ex"
            ],
            "family": "Ample"
          }
        ],
        "address": [
          {
            "line": [
              "Laboratoire Central Européenne",
              "Boulevard du Jardin Botanique 32"
            ],
            "postalCode": "1000",
            "city": "Brussels",
            "country": "Belgium"
          }
        ],
        "text": {
          "status": "generated",
          "div": "<div xmlns=\"http://www.w3.org/1999/xhtml\">Laboratory: Laboratoire Central Européenne, 1000 Brussels, Belgium</div>"
        }
      }
    }
  ],
  "type": "document",
  "timestamp": "2015-09-11T22:14:29Z"
}
