{
  "resourceType": "Bundle",
  "id": "a93d5130-e953-41f0-81e8-b212571a28c6",
  "meta": {
    "profile": [
      "http://hl7.eu/fhir/laboratory/StructureDefinition/Bundle-eu-lab"
    ]
  },
  "identifier": {
    "assigner": {
      "display": "HL7 Europe"
    },
    "system": "urn:oid:2.16.840.1.113883.2.51.999",
    "value": "b7d05130-24c7-4f73-8871-f7ac33c17816"
  },
  "entry": [
    {
      "fullUrl": "urn:uuid:a2f54871-a288-459e-88c6-749ba2e6d45d",
      "resource": {
        "resourceType": "Composition",
        "id": "a2f54871-a288-459e-88c6-749ba2e6d45d",
        "meta": {
          "profile": [
            "http://hl7.eu/fhir/laboratory/StructureDefinition/Composition-eu-lab"
          ]
        },
        "identifier": {
          "assigner": {
            "display": "HL7 Europe"
          },
          "system": "urn:oid:2.16.840.1.113883.2.51.999",
          "value": "fcf67de9-4a77-4d5b-a2de-47b00d948fc5"
        },
        "author": [
          {
            "reference": "urn:uuid:8496668e-4813-408b-a685-15adccfd5677"
          }
        ],
        "category": [
          {
            "coding": [
              {
                "code": "26436-6",
                "system": "http://loinc.org",
                "display": "Laboratory studies (set)"
              }
            ]
          }
        ],
        "type": {
          "coding": [
            {
              "code": "11502-2",
              "system": "http://loinc.org",
              "display": "Laboratory report"
            }
          ],
          "text": "Laboratory Report"
        },
        "section": [
          {
            "code": {
              "coding": [
                {
                  "code": "26436-6",
                  "system": "http://loinc.org",
                  "display": "Laboratory studies (set)"
                }
              ],
              "text": "Laboratory studies"
            },
            "section": [
              {
                "code": {
                  "coding": [
                    {
                      "code": "$18719-5",
                      "system": "http://loinc.org",
                      "display": "Chemistry studies (set)"
                    }
                  ],
                  "text": "Chemistry"
                },
                "entry": [
                  {
                    "reference": "urn:uuid:4bd90578-292d-4a08-89cd-0e34f12f0a97"
                  },
                  {
                    "reference": "urn:uuid:3c5ab94f-5848-40ce-835d-1e4368410f33"
                  },
                  {
                    "reference": "urn:uuid:41dd7f5f-01ca-4792-93d0-ae37a79a6d68"
                  },
                  {
                    "reference": "urn:uuid:5be48779-0d96-4b4b-becf-ca45b760196b"
                  },
                  {
                    "reference": "urn:uuid:5b688383-6c8e-4e55-87c1-e3f72842c2f8"
                  },
                  {
                    "reference": "urn:uuid:67432869-02b5-49a7-a76d-27c8adf392ad"
                  },
                  {
                    "reference": "urn:uuid:e46f0efe-ae1d-4d68-82e6-f36560d9dc6d"
                  },
                  {
                    "reference": "urn:uuid:1eb67957-f063-4d07-9cea-6081e6ae3ca7"
                  },
                  {
                    "reference": "urn:uuid:2691e610-52e6-42d0-953e-11e7c5a90b18"
                  },
                  {
                    "reference": "urn:uuid:060ca738-d7e9-4ede-9deb-ea0b46e0737d"
                  },
                  {
                    "reference": "urn:uuid:4918514d-8c45-404d-8a4b-b68800bae7c4"
                  },
                  {
                    "reference": "urn:uuid:9e2b5226-f60b-4fa0-b50f-37101c0668a3"
                  },
                  {
                    "reference": "urn:uuid:77367a2d-fd71-4b1d-80a0-c198fd7c0bca"
                  },
                  {
                    "reference": "urn:uuid:def1594d-e545-408f-be2b-df08eb007547"
                  },
                  {
                    "reference": "urn:uuid:3dbeabc4-b5ef-47ed-b7bb-f93bf1beaa28"
                  },
                  {
                    "reference": "urn:uuid:94119dab-9c37-40af-93d0-9eb1efd407ea"
                  }
                ],
                "text": {
                  "status": "generated",
                  "div": "<div xmlns=\"http://www.w3.org/1999/xhtml\"><h3>Chemistry</h3><table class=\"hl7__eu__lab__report\"><thead><tr><th>Test</th><th>25-OCT-2016</th><th>Reference&#xA0;Range</th><th>Unit</th></tr></thead><tbody><tr><td>Glucose [Mass/volume] in Blood</td><td>95.6</td><td>70 - 140</td><td>mg/dL</td></tr><tr><td>Urea nitrogen [Mass/volume] in Blood</td><td>12.0</td><td>7 - 30</td><td>mg/dL</td></tr><tr><td>Creatinine [Mass/volume] in Blood</td><td><strong>2.6 H</strong></td><td>0.5 - 1.3</td><td>mg/dL</td></tr><tr><td>Calcium [Mass/volume] in Blood</td><td>9.3</td><td>8.6 - 10.2</td><td>mg/dL</td></tr><tr><td>Sodium [Moles/volume] in Blood</td><td>143.7</td><td>135 - 145</td><td>mmol/L</td></tr><tr><td>Potassium [Moles/volume] in Blood</td><td>3.8</td><td>3.5 - 5.1</td><td>mmol/L</td></tr><tr><td>Chloride [Moles/volume] in Blood</td><td>108.1</td><td>98 - 114</td><td>mmol/L</td></tr><tr><td>Carbon dioxide, total [Moles/volume] in Blood</td><td><strong>21.8 L</strong></td><td>22 - 32</td><td>mmol/L</td></tr><tr><td>Protein [Mass/volume] in Serum or Plasma</td><td>6.5</td><td>6 - 8.3</td><td>g/dL</td></tr><tr><td>Albumin [Mass/volume] in Serum or Plasma</td><td>4.2</td><td>3.5 - 5.5</td><td>g/dL</td></tr><tr><td>Globulin [Mass/volume] in Serum by calculation</td><td>3.3</td><td>2 - 3.5</td><td>g/L</td></tr><tr><td>Bilirubin.total [Mass/volume] in Serum or Plasma</td><td>0.8</td><td>0.3 - 1.2</td><td>mg/dL</td></tr><tr><td>Alkaline phosphatase [Enzymatic activity/volume] in Serum or Plasma</td><td>53.8</td><td>44 - 142</td><td>U/L</td></tr><tr><td>Alanine aminotransferase [Enzymatic activity/volume] in Serum or Plasma</td><td>24.6</td><td>7 - 40</td><td>U/L</td></tr><tr><td>Aspartate aminotransferase [Enzymatic activity/volume] in Serum or Plasma</td><td>18.9</td><td>10 - 40</td><td>U/L</td></tr><tr><td>Ketones [Presence] in Urine by Test strip</td><td>Urine ketone test = +++</td><td></td><td></td></tr></tbody></table></div>"
                },
                "title": "Chemistry"
              },
              {
                "code": {
                  "coding": [
                    {
                      "code": "$18729-4",
                      "system": "http://loinc.org",
                      "display": "Urinalysis studies (set)"
                    }
                  ],
                  "text": "Urinalysis"
                },
                "entry": [
                  {
                    "reference": "urn:uuid:69e2daeb-6da9-49db-9600-82a98e742413"
                  },
                  {
                    "reference": "urn:uuid:4a9eb34e-681d-4d3d-9a7a-234fbce393df"
                  },
                  {
                    "reference": "urn:uuid:c10b930a-8878-4673-a044-c430fbcee9c2"
                  },
                  {
                    "reference": "urn:uuid:469b4c15-a25b-4cf3-8642-eaacc8fe4007"
                  },
                  {
                    "reference": "urn:uuid:5bb21ddf-7ab8-45d2-b633-980ead14e953"
                  },
                  {
                    "reference": "urn:uuid:13b90533-36de-428e-b1e5-cfcb6331afec"
                  },
                  {
                    "reference": "urn:uuid:fa3ce8fb-124b-4d2f-94cf-5ddcb3d7603b"
                  },
                  {
                    "reference": "urn:uuid:d3e337cb-20d6-4bdf-9621-7b9440fb37f8"
                  },
                  {
                    "reference": "urn:uuid:22a454cc-b791-4ed6-9c00-5b1029b70e2a"
                  },
                  {
                    "reference": "urn:uuid:186922c6-8cc7-44c8-b70c-2e6f469cc105"
                  },
                  {
                    "reference": "urn:uuid:b8f57f36-08cc-4b49-88ca-87b5758ecb98"
                  },
                  {
                    "reference": "urn:uuid:37fb45a0-84df-459f-9563-2ffa3f7f4a6b"
                  }
                ],
                "text": {
                  "status": "generated",
                  "div": "<div xmlns=\"http://www.w3.org/1999/xhtml\"><h3>Urinalysis</h3><table class=\"hl7__eu__lab__report\"><thead><tr><th>Test</th><th>25-OCT-2016</th><th>Reference&#xA0;Range</th><th>Unit</th></tr></thead><tbody><tr><td>Glucose [Mass/volume] in Urine by Test strip</td><td><strong>2.5 H</strong></td><td>0.8 - 0</td><td>mg/dL</td></tr><tr><td>Glucose [Presence] in Urine by Test strip</td><td>++</td><td></td><td></td></tr><tr><td>Bilirubin.total [Mass/volume] in Urine by Test strip</td><td>0.3</td><td>0 - 1.5</td><td>mg/dL</td></tr><tr><td>Bilirubin.total [Presence] in Urine by Test strip</td><td>Finding of bilirubin in urine</td><td></td><td></td></tr><tr><td>Ketones [Mass/volume] in Urine by Test strip</td><td><strong>11.4 H</strong></td><td>0 - 8</td><td>mg/dL</td></tr><tr><td>Specific gravity of Urine by Test strip</td><td><strong>1.0 L</strong></td><td>1.01 - 1.03</td><td>{nominal}</td></tr><tr><td>pH of Urine by Test strip</td><td>5.4</td><td>4.6 - 7.5</td><td>pH</td></tr><tr><td>Protein [Mass/volume] in Urine by Test strip</td><td><strong>340.2 H</strong></td><td>0 - 14</td><td>mg/dL</td></tr><tr><td>Protein [Presence] in Urine by Test strip</td><td>Urine protein test = +++</td><td></td><td></td></tr><tr><td>Nitrite [Presence] in Urine by Test strip</td><td>Urine nitrite negative</td><td></td><td></td></tr><tr><td>Hemoglobin [Presence] in Urine by Test strip</td><td>Urine blood test = negative</td><td></td><td></td></tr><tr><td>Leukocyte esterase [Presence] in Urine by Test strip</td><td>Urine leukocyte test negative</td><td></td><td></td></tr></tbody></table></div>"
                },
                "title": "Urinalysis"
              },
              {
                "code": {
                  "coding": [
                    {
                      "code": "$LP7846-1",
                      "system": "http://loinc.org",
                      "display": "Specimen information"
                    }
                  ],
                  "text": "Specimen information"
                },
                "entry": [
                  {
                    "reference": "urn:uuid:23489356-8a16-4254-8101-443d76106ddd"
                  },
                  {
                    "reference": "urn:uuid:8b06a9e5-25c3-4b25-802f-2c56ca4d0874"
                  },
                  {
                    "reference": "urn:uuid:dba0ecb7-b581-4a9a-9957-c4675baffac0"
                  },
                  {
                    "reference": "urn:uuid:d3029e6b-e27b-435c-a600-db16acc2563b"
                  }
                ],
                "text": {
                  "status": "generated",
                  "div": "<div xmlns=\"http://www.w3.org/1999/xhtml\"><h3>Specimen information</h3><table class=\"hl7__eu__lab__report\"><thead><tr><th>Test</th><th>25-OCT-2016</th><th>Specimen</th><th></th></tr></thead><tbody><tr><td>Appearance of Urine</td><td>Cloudy urine</td><td>Urine</td><td></td></tr><tr><td>Odor of Urine</td><td>Urine smell ammoniacal</td><td>Urine</td><td></td></tr><tr><td>Clarity of Urine</td><td>Translucent</td><td>Urine</td><td></td></tr><tr><td>Color of Urine</td><td>Brown color</td><td>Urine</td><td></td></tr></tbody></table></div>"
                },
                "title": "Specimen information"
              }
            ],
            "title": "Laboratory Report"
          },
          {
            "text": {
              "status": "generated",
              "div": "<div xmlns=\"http://www.w3.org/1999/xhtml\"><h3>Annotation</h3><table class=\"hl7__eu__lab__report\"><tr><th>Conclusion and Recommendations based on this report and previous findings known to us</th></tr><tr><td>The patient shows elevated serum creatinine, indicating impaired renal function, and low total CO₂, suggesting possible metabolic acidosis. Urinalysis reveals significant proteinuria, glucosuria, and ketonuria, with low specific gravity and abnormal urine appearance, supporting renal dysfunction and possible diabetic or metabolic decompensation. Liver enzymes and electrolytes are within normal limits. Findings are consistent with acute or chronic kidney disease, possibly with a metabolic component; clinical correlation and further nephrological evaluation are recommended.</td></tr></table></div>"
            },
            "code": {
              "coding": [
                {
                  "system": "http://loinc.org",
                  "code": "48767-8",
                  "display": "Annotation comment"
                }
              ]
            },
            "title": "Annotation comment"
          }
        ],
        "status": "final",
        "subject": {
          "reference": "urn:uuid:cae3ee12-2471-4674-80d5-a33398bea0f4",
          "display": "Maria Nohlmans"
        },
        "date": "2016-10-25T00:13:39Z",
        "title": "Laboratory Report",
        "confidentiality": "N"
      }
    },
    {
      "fullUrl": "urn:uuid:93dcb20a-3ead-4643-b1b6-3c828475c35b",
      "resource": {
        "resourceType": "DiagnosticReport",
        "id": "93dcb20a-3ead-4643-b1b6-3c828475c35b",
        "meta": {
          "profile": [
            "http://hl7.eu/fhir/laboratory/StructureDefinition/DiagnosticReport-eu-lab"
          ]
        },
        "identifier": [
          {
            "assigner": {
              "display": "HL7 Europe"
            },
            "system": "urn:oid:2.16.840.1.113883.2.51.999",
            "value": "a7d27625-5e07-40be-99d1-1acfb3e946ce"
          }
        ],
        "extension": [
          {
            "url": "http://hl7.org/fhir/5.0/StructureDefinition/extension-DiagnosticReport.composition",
            "valueReference": {
              "reference": "urn:uuid:fcf67de9-4a77-4d5b-a2de-47b00d948fc5"
            }
          }
        ],
        "category": [
          {
            "coding": [
              {
                "code": "26436-6",
                "system": "http://loinc.org",
                "display": "Laboratory studies (set)"
              }
            ]
          }
        ],
        "specimen": [
          {
            "reference": "urn:uuid:244838d3-2560-4197-8bc5-9bfda4ca8768"
          },
          {
            "reference": "urn:uuid:49463442-6358-4a16-80a2-f5d0d34cd3ea"
          },
          {
            "reference": "urn:uuid:20175b53-fb11-42c4-842e-cd26589272e7"
          },
          {
            "reference": "urn:uuid:5a858a21-34f8-4fa3-88a7-1aad0174b91b"
          }
        ],
        "result": [
          {
            "reference": "urn:uuid:4bd90578-292d-4a08-89cd-0e34f12f0a97"
          },
          {
            "reference": "urn:uuid:3c5ab94f-5848-40ce-835d-1e4368410f33"
          },
          {
            "reference": "urn:uuid:41dd7f5f-01ca-4792-93d0-ae37a79a6d68"
          },
          {
            "reference": "urn:uuid:5be48779-0d96-4b4b-becf-ca45b760196b"
          },
          {
            "reference": "urn:uuid:5b688383-6c8e-4e55-87c1-e3f72842c2f8"
          },
          {
            "reference": "urn:uuid:67432869-02b5-49a7-a76d-27c8adf392ad"
          },
          {
            "reference": "urn:uuid:e46f0efe-ae1d-4d68-82e6-f36560d9dc6d"
          },
          {
            "reference": "urn:uuid:1eb67957-f063-4d07-9cea-6081e6ae3ca7"
          },
          {
            "reference": "urn:uuid:2691e610-52e6-42d0-953e-11e7c5a90b18"
          },
          {
            "reference": "urn:uuid:060ca738-d7e9-4ede-9deb-ea0b46e0737d"
          },
          {
            "reference": "urn:uuid:4918514d-8c45-404d-8a4b-b68800bae7c4"
          },
          {
            "reference": "urn:uuid:9e2b5226-f60b-4fa0-b50f-37101c0668a3"
          },
          {
            "reference": "urn:uuid:77367a2d-fd71-4b1d-80a0-c198fd7c0bca"
          },
          {
            "reference": "urn:uuid:def1594d-e545-408f-be2b-df08eb007547"
          },
          {
            "reference": "urn:uuid:3dbeabc4-b5ef-47ed-b7bb-f93bf1beaa28"
          },
          {
            "reference": "urn:uuid:23489356-8a16-4254-8101-443d76106ddd"
          },
          {
            "reference": "urn:uuid:8b06a9e5-25c3-4b25-802f-2c56ca4d0874"
          },
          {
            "reference": "urn:uuid:dba0ecb7-b581-4a9a-9957-c4675baffac0"
          },
          {
            "reference": "urn:uuid:d3029e6b-e27b-435c-a600-db16acc2563b"
          },
          {
            "reference": "urn:uuid:69e2daeb-6da9-49db-9600-82a98e742413"
          },
          {
            "reference": "urn:uuid:4a9eb34e-681d-4d3d-9a7a-234fbce393df"
          },
          {
            "reference": "urn:uuid:c10b930a-8878-4673-a044-c430fbcee9c2"
          },
          {
            "reference": "urn:uuid:469b4c15-a25b-4cf3-8642-eaacc8fe4007"
          },
          {
            "reference": "urn:uuid:5bb21ddf-7ab8-45d2-b633-980ead14e953"
          },
          {
            "reference": "urn:uuid:94119dab-9c37-40af-93d0-9eb1efd407ea"
          },
          {
            "reference": "urn:uuid:13b90533-36de-428e-b1e5-cfcb6331afec"
          },
          {
            "reference": "urn:uuid:fa3ce8fb-124b-4d2f-94cf-5ddcb3d7603b"
          },
          {
            "reference": "urn:uuid:d3e337cb-20d6-4bdf-9621-7b9440fb37f8"
          },
          {
            "reference": "urn:uuid:22a454cc-b791-4ed6-9c00-5b1029b70e2a"
          },
          {
            "reference": "urn:uuid:186922c6-8cc7-44c8-b70c-2e6f469cc105"
          },
          {
            "reference": "urn:uuid:b8f57f36-08cc-4b49-88ca-87b5758ecb98"
          },
          {
            "reference": "urn:uuid:37fb45a0-84df-459f-9563-2ffa3f7f4a6b"
          }
        ],
        "status": "registered",
        "code": {
          "coding": [
            {
              "code": "11502-2",
              "system": "http://loinc.org",
              "display": "Laboratory report"
            }
          ]
        },
        "subject": {
          "reference": "urn:uuid:cae3ee12-2471-4674-80d5-a33398bea0f4",
          "display": "Maria Nohlmans"
        }
      }
    },
    {
      "fullUrl": "urn:uuid:cae3ee12-2471-4674-80d5-a33398bea0f4",
      "resource": {
        "resourceType": "Patient",
        "id": "cae3ee12-2471-4674-80d5-a33398bea0f4",
        "meta": {
          "security": [
            {
              "system": "http://terminology.hl7.org/CodeSystem/v3-ActReason",
              "code": "HTEST"
            },
            {
              "system": "http://terminology.hl7.org/CodeSystem/v3-ActReason",
              "code": "TRAIN"
            }
          ],
          "tag": [
            {
              "system": "https://synderai.net/fhir/CodeSystem/tags",
              "code": "synthetic",
              "display": "SYNDERAI Synthetic data"
            }
          ],
          "profile": [
            "http://hl7.eu/fhir/base/StructureDefinition/patient-eu-core"
          ]
        },
        "identifier": [
          {
            "type": {
              "coding": [
                {
                  "code": "PT",
                  "system": "http://terminology.hl7.org/CodeSystem/v2-0203"
                }
              ]
            },
            "system": "http://ec.europa.eu/identifier/eci",
            "value": "6886-506417-1"
          },
          {
            "type": {
              "coding": [
                {
                  "code": "MR",
                  "system": "http://terminology.hl7.org/CodeSystem/v2-0203"
                }
              ]
            },
            "system": "http://local.setting.eu/identifier",
            "value": "2cb21ed6-b617-b1f3-2290-589a710de5ee"
          }
        ],
        "name": [
          {
            "family": "Nohlmans"
          },
          {
            "given": [
              "Maria"
            ]
          },
          {
            "text": "Maria Nohlmans"
          }
        ],
        "address": [
          {
            "line": [
              "Alfons-Wulff-Weg 1"
            ],
            "use": "home",
            "type": "physical",
            "postalCode": "25813",
            "city": "Husum",
            "country": "Germany"
          }
        ],
        "telecom": [
          {
            "system": "phone",
            "value": "+49(0)1911 105501"
          }
        ],
        "extension": [
          {
            "url": "http://hl7.org/fhir/StructureDefinition/patient-nationality",
            "valueCodeableConcept": {
              "coding": [
                {
                  "code": "DE",
                  "system": "http://hl7.org/fhir/ValueSet/country"
                }
              ]
            }
          }
        ],
        "text": {
          "status": "generated",
          "div": "<div xmlns=\"http://www.w3.org/1999/xhtml\"><table class=\"hl7__ips\"><tr><td>Maria Nohlmans</td><td>female</td><td>11-Jun-1947</td></tr></table></div>"
        },
        "gender": "female",
        "birthDate": "1947-06-11"
      }
    },
    {
      "fullUrl": "urn:uuid:78c53cdf-7a90-4c6f-8b17-8403b861d993",
      "resource": {
        "resourceType": "ServiceRequest",
        "id": "78c53cdf-7a90-4c6f-8b17-8403b861d993",
        "meta": {
          "profile": [
            "http://hl7.eu/fhir/laboratory/StructureDefinition/ServiceRequest-eu-lab"
          ]
        },
        "identifier": [
          {
            "system": "http://example.org",
            "value": "7baa2b8e-fe6b-4e96-988b-e6151a8f09cb"
          }
        ],
        "specimen": [
          {
            "reference": "urn:uuid:244838d3-2560-4197-8bc5-9bfda4ca8768"
          },
          {
            "reference": "urn:uuid:49463442-6358-4a16-80a2-f5d0d34cd3ea"
          },
          {
            "reference": "urn:uuid:20175b53-fb11-42c4-842e-cd26589272e7"
          },
          {
            "reference": "urn:uuid:5a858a21-34f8-4fa3-88a7-1aad0174b91b"
          }
        ],
        "reasonCode": [
          {
            "coding": [
              {
                "code": "401314000",
                "system": "http://snomed.info/sct",
                "display": "Acute non-ST segment elevation myocardial infarction"
              }
            ]
          },
          {
            "coding": [
              {
                "code": "157141000119108",
                "system": "http://snomed.info/sct",
                "display": "Proteinuria due to type 2 diabetes mellitus"
              }
            ]
          },
          {
            "coding": [
              {
                "code": "237602007",
                "system": "http://snomed.info/sct",
                "display": "Metabolic syndrome X"
              }
            ]
          },
          {
            "coding": [
              {
                "code": "90781000119102",
                "system": "http://snomed.info/sct",
                "display": "Microalbuminuria due to type 2 diabetes mellitus"
              }
            ]
          },
          {
            "coding": [
              {
                "code": "127013003",
                "system": "http://snomed.info/sct",
                "display": "Disorder of kidney due to diabetes mellitus"
              }
            ]
          },
          {
            "coding": [
              {
                "code": "59621000",
                "system": "http://snomed.info/sct",
                "display": "Essential hypertension"
              }
            ]
          },
          {
            "coding": [
              {
                "code": "271737000",
                "system": "http://snomed.info/sct",
                "display": "Anemia"
              }
            ]
          },
          {
            "coding": [
              {
                "code": "15777000",
                "system": "http://snomed.info/sct",
                "display": "Prediabetes"
              }
            ]
          }
        ],
        "status": "active",
        "intent": "order",
        "code": {
          "coding": [
            {
              "code": "108252007",
              "system": "http://snomed.info/sct",
              "display": "Laboratory procedure"
            }
          ]
        },
        "subject": {
          "reference": "urn:uuid:cae3ee12-2471-4674-80d5-a33398bea0f4",
          "display": "Maria Nohlmans"
        },
        "requester": {
          "reference": "urn:uuid:602a4113-524f-46aa-9738-e87dc1013e4f"
        }
      }
    },
    {
      "fullUrl": "urn:uuid:602a4113-524f-46aa-9738-e87dc1013e4f",
      "resource": {
        "resourceType": "PractitionerRole",
        "id": "602a4113-524f-46aa-9738-e87dc1013e4f",
        "meta": {
          "profile": [
            "http://hl7.eu/fhir/base/StructureDefinition/practitionerRole-eu"
          ]
        },
        "text": {
          "status": "generated",
          "div": "<div xmlns=\"http://www.w3.org/1999/xhtml\">Provider Role Id: 602a4113-524f-46aa-9738-e87dc1013e4f</div>"
        },
        "organization": {
          "reference": "urn:uuid:bff94ae5-9054-462d-8736-bc14a881aef9"
        }
      }
    },
    {
      "fullUrl": "urn:uuid:bff94ae5-9054-462d-8736-bc14a881aef9",
      "resource": {
        "resourceType": "Organization",
        "id": "bff94ae5-9054-462d-8736-bc14a881aef9",
        "meta": {
          "profile": [
            "http://hl7.eu/fhir/base/StructureDefinition/organization-eu"
          ]
        },
        "identifier": [
          {
            "assigner": {
              "display": "HL7 Europe"
            },
            "system": "urn:oid:2.16.840.1.113883.2.51.999",
            "value": "9e4ad159-6bbe-4510-847d-a0311d3f0153"
          }
        ],
        "address": [
          {
            "line": [
              "Brinckmannstraße 35"
            ],
            "city": "Husum",
            "postalCode": "25813",
            "country": "Germany"
          }
        ],
        "text": {
          "status": "generated",
          "div": "<div xmlns=\"http://www.w3.org/1999/xhtml\">Provider Organization: Dr. Wolfram Hussels Kieferorthopäde</div>"
        },
        "name": "Dr. Wolfram Hussels Kieferorthopäde"
      }
    },
    {
      "fullUrl": "urn:uuid:244838d3-2560-4197-8bc5-9bfda4ca8768",
      "resource": {
        "resourceType": "Specimen",
        "id": "244838d3-2560-4197-8bc5-9bfda4ca8768",
        "meta": {
          "profile": [
            "http://hl7.eu/fhir/laboratory/StructureDefinition/Specimen-eu-lab"
          ]
        },
        "collection": {
          "collectedDateTime": "2016-10-24"
        },
        "text": {
          "status": "generated",
          "div": "<div xmlns=\"http://www.w3.org/1999/xhtml\"><table class=\"hl7__eu__lab__report\"><tr><th>Specimen</th><th>Collection Date</th></tr><tr><td>Whole blood specimen (specimen)</td><td><span class=\"nb\">24-Oct-2016</span></td></tr></table></div>"
        },
        "type": {
          "coding": [
            {
              "code": "258580003",
              "system": "http://snomed.info/sct",
              "display": "Whole blood specimen (specimen)"
            }
          ]
        }
      }
    },
    {
      "fullUrl": "urn:uuid:49463442-6358-4a16-80a2-f5d0d34cd3ea",
      "resource": {
        "resourceType": "Specimen",
        "id": "49463442-6358-4a16-80a2-f5d0d34cd3ea",
        "meta": {
          "profile": [
            "http://hl7.eu/fhir/laboratory/StructureDefinition/Specimen-eu-lab"
          ]
        },
        "collection": {
          "collectedDateTime": "2016-10-24"
        },
        "text": {
          "status": "generated",
          "div": "<div xmlns=\"http://www.w3.org/1999/xhtml\"><table class=\"hl7__eu__lab__report\"><tr><th>Specimen</th><th>Collection Date</th></tr><tr><td>Acellular blood (serum or plasma) specimen</td><td><span class=\"nb\">24-Oct-2016</span></td></tr></table></div>"
        },
        "type": {
          "coding": [
            {
              "code": "122592007",
              "system": "http://snomed.info/sct",
              "display": "Acellular blood (serum or plasma) specimen"
            }
          ]
        }
      }
    },
    {
      "fullUrl": "urn:uuid:20175b53-fb11-42c4-842e-cd26589272e7",
      "resource": {
        "resourceType": "Specimen",
        "id": "20175b53-fb11-42c4-842e-cd26589272e7",
        "meta": {
          "profile": [
            "http://hl7.eu/fhir/laboratory/StructureDefinition/Specimen-eu-lab"
          ]
        },
        "collection": {
          "collectedDateTime": "2016-10-24"
        },
        "text": {
          "status": "generated",
          "div": "<div xmlns=\"http://www.w3.org/1999/xhtml\"><table class=\"hl7__eu__lab__report\"><tr><th>Specimen</th><th>Collection Date</th></tr><tr><td>Serum specimen</td><td><span class=\"nb\">24-Oct-2016</span></td></tr></table></div>"
        },
        "type": {
          "coding": [
            {
              "code": "119364003",
              "system": "http://snomed.info/sct",
              "display": "Serum specimen"
            }
          ]
        }
      }
    },
    {
      "fullUrl": "urn:uuid:5a858a21-34f8-4fa3-88a7-1aad0174b91b",
      "resource": {
        "resourceType": "Specimen",
        "id": "5a858a21-34f8-4fa3-88a7-1aad0174b91b",
        "meta": {
          "profile": [
            "http://hl7.eu/fhir/laboratory/StructureDefinition/Specimen-eu-lab"
          ]
        },
        "collection": {
          "collectedDateTime": "2016-10-24"
        },
        "text": {
          "status": "generated",
          "div": "<div xmlns=\"http://www.w3.org/1999/xhtml\"><table class=\"hl7__eu__lab__report\"><tr><th>Specimen</th><th>Collection Date</th></tr><tr><td>Urine specimen</td><td><span class=\"nb\">24-Oct-2016</span></td></tr></table></div>"
        },
        "type": {
          "coding": [
            {
              "code": "122575003",
              "system": "http://snomed.info/sct",
              "display": "Urine specimen"
            }
          ]
        }
      }
    },
    {
      "fullUrl": "urn:uuid:4bd90578-292d-4a08-89cd-0e34f12f0a97",
      "resource": {
        "resourceType": "Observation",
        "id": "4bd90578-292d-4a08-89cd-0e34f12f0a97",
        "meta": {
          "profile": [
            "http://hl7.eu/fhir/laboratory/StructureDefinition/Observation-resultslab-eu-lab"
          ]
        },
        "performer": [
          {
            "display": "The Central European Lab"
          }
        ],
        "category": [
          {
            "coding": [
              {
                "system": "http://terminology.hl7.org/CodeSystem/observation-category",
                "code": "laboratory"
              }
            ]
          }
        ],
        "code": {
          "coding": [
            {
              "code": "2339-0",
              "system": "http://loinc.org",
              "display": "Glucose [Mass/volume] in Blood"
            }
          ],
          "text": "Glucose [Mass/volume] in Blood"
        },
        "valueQuantity": {
          "system": "http://unitsofmeasure.org",
          "value": 95.6,
          "unit": "mg/dL",
          "code": "mg/dL"
        },
        "referenceRange": [
          {
            "low": {
              "value": 70,
              "code": "mg/dL",
              "system": "http://unitsofmeasure.org"
            }
          },
          {
            "high": {
              "value": 140,
              "code": "mg/dL",
              "system": "http://unitsofmeasure.org"
            }
          }
        ],
        "text": {
          "status": "generated",
          "div": "<div xmlns=\"http://www.w3.org/1999/xhtml\"><table class=\"hl7__eu__lab__report\"><tr><th>Test</th><th>25-Oct-2016</th><th>Reference&#xA0;Range</th><th>Unit</th></tr><tr><td>Glucose [Mass/volume] in Blood</td><td>95.6</td><td>70 - 140</td><td></td><td>mg/dL</td></tr></table></div>"
        },
        "status": "final",
        "subject": {
          "reference": "urn:uuid:cae3ee12-2471-4674-80d5-a33398bea0f4",
          "display": "Maria Nohlmans"
        },
        "effectiveDateTime": "2016-10-24T22:13:39Z",
        "specimen": {
          "reference": "urn:uuid:244838d3-2560-4197-8bc5-9bfda4ca8768"
        }
      }
    },
    {
      "fullUrl": "urn:uuid:3c5ab94f-5848-40ce-835d-1e4368410f33",
      "resource": {
        "resourceType": "Observation",
        "id": "3c5ab94f-5848-40ce-835d-1e4368410f33",
        "meta": {
          "profile": [
            "http://hl7.eu/fhir/laboratory/StructureDefinition/Observation-resultslab-eu-lab"
          ]
        },
        "performer": [
          {
            "display": "The Central European Lab"
          }
        ],
        "category": [
          {
            "coding": [
              {
                "system": "http://terminology.hl7.org/CodeSystem/observation-category",
                "code": "laboratory"
              }
            ]
          }
        ],
        "code": {
          "coding": [
            {
              "code": "6299-2",
              "system": "http://loinc.org",
              "display": "Urea nitrogen [Mass/volume] in Blood"
            }
          ],
          "text": "Urea nitrogen [Mass/volume] in Blood"
        },
        "valueQuantity": {
          "system": "http://unitsofmeasure.org",
          "value": 12,
          "unit": "mg/dL",
          "code": "mg/dL"
        },
        "referenceRange": [
          {
            "low": {
              "value": 7,
              "code": "mg/dL",
              "system": "http://unitsofmeasure.org"
            }
          },
          {
            "high": {
              "value": 30,
              "code": "mg/dL",
              "system": "http://unitsofmeasure.org"
            }
          }
        ],
        "text": {
          "status": "generated",
          "div": "<div xmlns=\"http://www.w3.org/1999/xhtml\"><table class=\"hl7__eu__lab__report\"><tr><th>Test</th><th>25-Oct-2016</th><th>Reference&#xA0;Range</th><th>Unit</th></tr><tr><td>Urea nitrogen [Mass/volume] in Blood</td><td>12.0</td><td>7 - 30</td><td></td><td>mg/dL</td></tr></table></div>"
        },
        "status": "final",
        "subject": {
          "reference": "urn:uuid:cae3ee12-2471-4674-80d5-a33398bea0f4",
          "display": "Maria Nohlmans"
        },
        "effectiveDateTime": "2016-10-24T22:13:39Z",
        "specimen": {
          "reference": "urn:uuid:244838d3-2560-4197-8bc5-9bfda4ca8768"
        }
      }
    },
    {
      "fullUrl": "urn:uuid:41dd7f5f-01ca-4792-93d0-ae37a79a6d68",
      "resource": {
        "resourceType": "Observation",
        "id": "41dd7f5f-01ca-4792-93d0-ae37a79a6d68",
        "meta": {
          "profile": [
            "http://hl7.eu/fhir/laboratory/StructureDefinition/Observation-resultslab-eu-lab"
          ]
        },
        "performer": [
          {
            "display": "The Central European Lab"
          }
        ],
        "category": [
          {
            "coding": [
              {
                "system": "http://terminology.hl7.org/CodeSystem/observation-category",
                "code": "laboratory"
              }
            ]
          }
        ],
        "code": {
          "coding": [
            {
              "code": "38483-4",
              "system": "http://loinc.org",
              "display": "Creatinine [Mass/volume] in Blood"
            }
          ],
          "text": "Creatinine [Mass/volume] in Blood"
        },
        "valueQuantity": {
          "system": "http://unitsofmeasure.org",
          "value": 2.6,
          "unit": "mg/dL",
          "code": "mg/dL"
        },
        "referenceRange": [
          {
            "low": {
              "value": 0.5,
              "code": "mg/dL",
              "system": "http://unitsofmeasure.org"
            }
          },
          {
            "high": {
              "value": 1.3,
              "code": "mg/dL",
              "system": "http://unitsofmeasure.org"
            }
          }
        ],
        "interpretation": [
          {
            "coding": [
              {
                "code": "H",
                "system": "http://terminology.hl7.org/CodeSystem/v3-ObservationInterpretation",
                "display": "High"
              }
            ]
          }
        ],
        "text": {
          "status": "generated",
          "div": "<div xmlns=\"http://www.w3.org/1999/xhtml\"><table class=\"hl7__eu__lab__report\"><tr><th>Test</th><th>25-Oct-2016</th><th>Reference&#xA0;Range</th><th>Unit</th></tr><tr><td>Creatinine [Mass/volume] in Blood</td><td>2.6</td><td>0.5 - 1.3</td><td>H</td><td>mg/dL</td></tr></table></div>"
        },
        "status": "final",
        "subject": {
          "reference": "urn:uuid:cae3ee12-2471-4674-80d5-a33398bea0f4",
          "display": "Maria Nohlmans"
        },
        "effectiveDateTime": "2016-10-24T22:13:39Z",
        "specimen": {
          "reference": "urn:uuid:244838d3-2560-4197-8bc5-9bfda4ca8768"
        }
      }
    },
    {
      "fullUrl": "urn:uuid:5be48779-0d96-4b4b-becf-ca45b760196b",
      "resource": {
        "resourceType": "Observation",
        "id": "5be48779-0d96-4b4b-becf-ca45b760196b",
        "meta": {
          "profile": [
            "http://hl7.eu/fhir/laboratory/StructureDefinition/Observation-resultslab-eu-lab"
          ]
        },
        "performer": [
          {
            "display": "The Central European Lab"
          }
        ],
        "category": [
          {
            "coding": [
              {
                "system": "http://terminology.hl7.org/CodeSystem/observation-category",
                "code": "laboratory"
              }
            ]
          }
        ],
        "code": {
          "coding": [
            {
              "code": "49765-1",
              "system": "http://loinc.org",
              "display": "Calcium [Mass/volume] in Blood"
            }
          ],
          "text": "Calcium [Mass/volume] in Blood"
        },
        "valueQuantity": {
          "system": "http://unitsofmeasure.org",
          "value": 9.3,
          "unit": "mg/dL",
          "code": "mg/dL"
        },
        "referenceRange": [
          {
            "low": {
              "value": 8.6,
              "code": "mg/dL",
              "system": "http://unitsofmeasure.org"
            }
          },
          {
            "high": {
              "value": 10.2,
              "code": "mg/dL",
              "system": "http://unitsofmeasure.org"
            }
          }
        ],
        "text": {
          "status": "generated",
          "div": "<div xmlns=\"http://www.w3.org/1999/xhtml\"><table class=\"hl7__eu__lab__report\"><tr><th>Test</th><th>25-Oct-2016</th><th>Reference&#xA0;Range</th><th>Unit</th></tr><tr><td>Calcium [Mass/volume] in Blood</td><td>9.3</td><td>8.6 - 10.2</td><td></td><td>mg/dL</td></tr></table></div>"
        },
        "status": "final",
        "subject": {
          "reference": "urn:uuid:cae3ee12-2471-4674-80d5-a33398bea0f4",
          "display": "Maria Nohlmans"
        },
        "effectiveDateTime": "2016-10-24T22:13:39Z",
        "specimen": {
          "reference": "urn:uuid:244838d3-2560-4197-8bc5-9bfda4ca8768"
        }
      }
    },
    {
      "fullUrl": "urn:uuid:5b688383-6c8e-4e55-87c1-e3f72842c2f8",
      "resource": {
        "resourceType": "Observation",
        "id": "5b688383-6c8e-4e55-87c1-e3f72842c2f8",
        "meta": {
          "profile": [
            "http://hl7.eu/fhir/laboratory/StructureDefinition/Observation-resultslab-eu-lab"
          ]
        },
        "performer": [
          {
            "display": "The Central European Lab"
          }
        ],
        "category": [
          {
            "coding": [
              {
                "system": "http://terminology.hl7.org/CodeSystem/observation-category",
                "code": "laboratory"
              }
            ]
          }
        ],
        "code": {
          "coding": [
            {
              "code": "2947-0",
              "system": "http://loinc.org",
              "display": "Sodium [Moles/volume] in Blood"
            }
          ],
          "text": "Sodium [Moles/volume] in Blood"
        },
        "valueQuantity": {
          "system": "http://unitsofmeasure.org",
          "value": 143.7,
          "unit": "mmol/L",
          "code": "mmol/L"
        },
        "referenceRange": [
          {
            "low": {
              "value": 135,
              "code": "mmol/L",
              "system": "http://unitsofmeasure.org"
            }
          },
          {
            "high": {
              "value": 145,
              "code": "mmol/L",
              "system": "http://unitsofmeasure.org"
            }
          }
        ],
        "text": {
          "status": "generated",
          "div": "<div xmlns=\"http://www.w3.org/1999/xhtml\"><table class=\"hl7__eu__lab__report\"><tr><th>Test</th><th>25-Oct-2016</th><th>Reference&#xA0;Range</th><th>Unit</th></tr><tr><td>Sodium [Moles/volume] in Blood</td><td>143.7</td><td>135 - 145</td><td></td><td>mmol/L</td></tr></table></div>"
        },
        "status": "final",
        "subject": {
          "reference": "urn:uuid:cae3ee12-2471-4674-80d5-a33398bea0f4",
          "display": "Maria Nohlmans"
        },
        "effectiveDateTime": "2016-10-24T22:13:39Z",
        "specimen": {
          "reference": "urn:uuid:244838d3-2560-4197-8bc5-9bfda4ca8768"
        }
      }
    },
    {
      "fullUrl": "urn:uuid:67432869-02b5-49a7-a76d-27c8adf392ad",
      "resource": {
        "resourceType": "Observation",
        "id": "67432869-02b5-49a7-a76d-27c8adf392ad",
        "meta": {
          "profile": [
            "http://hl7.eu/fhir/laboratory/StructureDefinition/Observation-resultslab-eu-lab"
          ]
        },
        "performer": [
          {
            "display": "The Central European Lab"
          }
        ],
        "category": [
          {
            "coding": [
              {
                "system": "http://terminology.hl7.org/CodeSystem/observation-category",
                "code": "laboratory"
              }
            ]
          }
        ],
        "code": {
          "coding": [
            {
              "code": "6298-4",
              "system": "http://loinc.org",
              "display": "Potassium [Moles/volume] in Blood"
            }
          ],
          "text": "Potassium [Moles/volume] in Blood"
        },
        "valueQuantity": {
          "system": "http://unitsofmeasure.org",
          "value": 3.8,
          "unit": "mmol/L",
          "code": "mmol/L"
        },
        "referenceRange": [
          {
            "low": {
              "value": 3.5,
              "code": "mmol/L",
              "system": "http://unitsofmeasure.org"
            }
          },
          {
            "high": {
              "value": 5.1,
              "code": "mmol/L",
              "system": "http://unitsofmeasure.org"
            }
          }
        ],
        "text": {
          "status": "generated",
          "div": "<div xmlns=\"http://www.w3.org/1999/xhtml\"><table class=\"hl7__eu__lab__report\"><tr><th>Test</th><th>25-Oct-2016</th><th>Reference&#xA0;Range</th><th>Unit</th></tr><tr><td>Potassium [Moles/volume] in Blood</td><td>3.8</td><td>3.5 - 5.1</td><td></td><td>mmol/L</td></tr></table></div>"
        },
        "status": "final",
        "subject": {
          "reference": "urn:uuid:cae3ee12-2471-4674-80d5-a33398bea0f4",
          "display": "Maria Nohlmans"
        },
        "effectiveDateTime": "2016-10-24T22:13:39Z",
        "specimen": {
          "reference": "urn:uuid:244838d3-2560-4197-8bc5-9bfda4ca8768"
        }
      }
    },
    {
      "fullUrl": "urn:uuid:e46f0efe-ae1d-4d68-82e6-f36560d9dc6d",
      "resource": {
        "resourceType": "Observation",
        "id": "e46f0efe-ae1d-4d68-82e6-f36560d9dc6d",
        "meta": {
          "profile": [
            "http://hl7.eu/fhir/laboratory/StructureDefinition/Observation-resultslab-eu-lab"
          ]
        },
        "performer": [
          {
            "display": "The Central European Lab"
          }
        ],
        "category": [
          {
            "coding": [
              {
                "system": "http://terminology.hl7.org/CodeSystem/observation-category",
                "code": "laboratory"
              }
            ]
          }
        ],
        "code": {
          "coding": [
            {
              "code": "2069-3",
              "system": "http://loinc.org",
              "display": "Chloride [Moles/volume] in Blood"
            }
          ],
          "text": "Chloride [Moles/volume] in Blood"
        },
        "valueQuantity": {
          "system": "http://unitsofmeasure.org",
          "value": 108.1,
          "unit": "mmol/L",
          "code": "mmol/L"
        },
        "referenceRange": [
          {
            "low": {
              "value": 98,
              "code": "mmol/L",
              "system": "http://unitsofmeasure.org"
            }
          },
          {
            "high": {
              "value": 114,
              "code": "mmol/L",
              "system": "http://unitsofmeasure.org"
            }
          }
        ],
        "text": {
          "status": "generated",
          "div": "<div xmlns=\"http://www.w3.org/1999/xhtml\"><table class=\"hl7__eu__lab__report\"><tr><th>Test</th><th>25-Oct-2016</th><th>Reference&#xA0;Range</th><th>Unit</th></tr><tr><td>Chloride [Moles/volume] in Blood</td><td>108.1</td><td>98 - 114</td><td></td><td>mmol/L</td></tr></table></div>"
        },
        "status": "final",
        "subject": {
          "reference": "urn:uuid:cae3ee12-2471-4674-80d5-a33398bea0f4",
          "display": "Maria Nohlmans"
        },
        "effectiveDateTime": "2016-10-24T22:13:39Z",
        "specimen": {
          "reference": "urn:uuid:244838d3-2560-4197-8bc5-9bfda4ca8768"
        }
      }
    },
    {
      "fullUrl": "urn:uuid:1eb67957-f063-4d07-9cea-6081e6ae3ca7",
      "resource": {
        "resourceType": "Observation",
        "id": "1eb67957-f063-4d07-9cea-6081e6ae3ca7",
        "meta": {
          "profile": [
            "http://hl7.eu/fhir/laboratory/StructureDefinition/Observation-resultslab-eu-lab"
          ]
        },
        "performer": [
          {
            "display": "The Central European Lab"
          }
        ],
        "category": [
          {
            "coding": [
              {
                "system": "http://terminology.hl7.org/CodeSystem/observation-category",
                "code": "laboratory"
              }
            ]
          }
        ],
        "code": {
          "coding": [
            {
              "code": "20565-8",
              "system": "http://loinc.org",
              "display": "Carbon dioxide, total [Moles/volume] in Blood"
            }
          ],
          "text": "Carbon dioxide, total [Moles/volume] in Blood"
        },
        "valueQuantity": {
          "system": "http://unitsofmeasure.org",
          "value": 21.8,
          "unit": "mmol/L",
          "code": "mmol/L"
        },
        "referenceRange": [
          {
            "low": {
              "value": 22,
              "code": "mmol/L",
              "system": "http://unitsofmeasure.org"
            }
          },
          {
            "high": {
              "value": 32,
              "code": "mmol/L",
              "system": "http://unitsofmeasure.org"
            }
          }
        ],
        "interpretation": [
          {
            "coding": [
              {
                "code": "L",
                "system": "http://terminology.hl7.org/CodeSystem/v3-ObservationInterpretation",
                "display": "Low"
              }
            ]
          }
        ],
        "text": {
          "status": "generated",
          "div": "<div xmlns=\"http://www.w3.org/1999/xhtml\"><table class=\"hl7__eu__lab__report\"><tr><th>Test</th><th>25-Oct-2016</th><th>Reference&#xA0;Range</th><th>Unit</th></tr><tr><td>Carbon dioxide, total [Moles/volume] in Blood</td><td>21.8</td><td>22 - 32</td><td>L</td><td>mmol/L</td></tr></table></div>"
        },
        "status": "final",
        "subject": {
          "reference": "urn:uuid:cae3ee12-2471-4674-80d5-a33398bea0f4",
          "display": "Maria Nohlmans"
        },
        "effectiveDateTime": "2016-10-24T22:13:39Z",
        "specimen": {
          "reference": "urn:uuid:244838d3-2560-4197-8bc5-9bfda4ca8768"
        }
      }
    },
    {
      "fullUrl": "urn:uuid:2691e610-52e6-42d0-953e-11e7c5a90b18",
      "resource": {
        "resourceType": "Observation",
        "id": "2691e610-52e6-42d0-953e-11e7c5a90b18",
        "meta": {
          "profile": [
            "http://hl7.eu/fhir/laboratory/StructureDefinition/Observation-resultslab-eu-lab"
          ]
        },
        "performer": [
          {
            "display": "The Central European Lab"
          }
        ],
        "category": [
          {
            "coding": [
              {
                "system": "http://terminology.hl7.org/CodeSystem/observation-category",
                "code": "laboratory"
              }
            ]
          }
        ],
        "code": {
          "coding": [
            {
              "code": "2885-2",
              "system": "http://loinc.org",
              "display": "Protein [Mass/volume] in Serum or Plasma"
            }
          ],
          "text": "Protein [Mass/volume] in Serum or Plasma"
        },
        "valueQuantity": {
          "system": "http://unitsofmeasure.org",
          "value": 6.5,
          "unit": "g/dL",
          "code": "g/dL"
        },
        "referenceRange": [
          {
            "low": {
              "value": 6,
              "code": "g/dL",
              "system": "http://unitsofmeasure.org"
            }
          },
          {
            "high": {
              "value": 8.3,
              "code": "g/dL",
              "system": "http://unitsofmeasure.org"
            }
          }
        ],
        "text": {
          "status": "generated",
          "div": "<div xmlns=\"http://www.w3.org/1999/xhtml\"><table class=\"hl7__eu__lab__report\"><tr><th>Test</th><th>25-Oct-2016</th><th>Reference&#xA0;Range</th><th>Unit</th></tr><tr><td>Protein [Mass/volume] in Serum or Plasma</td><td>6.5</td><td>6 - 8.3</td><td></td><td>g/dL</td></tr></table></div>"
        },
        "status": "final",
        "subject": {
          "reference": "urn:uuid:cae3ee12-2471-4674-80d5-a33398bea0f4",
          "display": "Maria Nohlmans"
        },
        "effectiveDateTime": "2016-10-24T22:13:39Z",
        "specimen": {
          "reference": "urn:uuid:49463442-6358-4a16-80a2-f5d0d34cd3ea"
        }
      }
    },
    {
      "fullUrl": "urn:uuid:060ca738-d7e9-4ede-9deb-ea0b46e0737d",
      "resource": {
        "resourceType": "Observation",
        "id": "060ca738-d7e9-4ede-9deb-ea0b46e0737d",
        "meta": {
          "profile": [
            "http://hl7.eu/fhir/laboratory/StructureDefinition/Observation-resultslab-eu-lab"
          ]
        },
        "performer": [
          {
            "display": "The Central European Lab"
          }
        ],
        "category": [
          {
            "coding": [
              {
                "system": "http://terminology.hl7.org/CodeSystem/observation-category",
                "code": "laboratory"
              }
            ]
          }
        ],
        "code": {
          "coding": [
            {
              "code": "1751-7",
              "system": "http://loinc.org",
              "display": "Albumin [Mass/volume] in Serum or Plasma"
            }
          ],
          "text": "Albumin [Mass/volume] in Serum or Plasma"
        },
        "valueQuantity": {
          "system": "http://unitsofmeasure.org",
          "value": 4.2,
          "unit": "g/dL",
          "code": "g/dL"
        },
        "referenceRange": [
          {
            "low": {
              "value": 3.5,
              "code": "g/dL",
              "system": "http://unitsofmeasure.org"
            }
          },
          {
            "high": {
              "value": 5.5,
              "code": "g/dL",
              "system": "http://unitsofmeasure.org"
            }
          }
        ],
        "text": {
          "status": "generated",
          "div": "<div xmlns=\"http://www.w3.org/1999/xhtml\"><table class=\"hl7__eu__lab__report\"><tr><th>Test</th><th>25-Oct-2016</th><th>Reference&#xA0;Range</th><th>Unit</th></tr><tr><td>Albumin [Mass/volume] in Serum or Plasma</td><td>4.2</td><td>3.5 - 5.5</td><td></td><td>g/dL</td></tr></table></div>"
        },
        "status": "final",
        "subject": {
          "reference": "urn:uuid:cae3ee12-2471-4674-80d5-a33398bea0f4",
          "display": "Maria Nohlmans"
        },
        "effectiveDateTime": "2016-10-24T22:13:39Z",
        "specimen": {
          "reference": "urn:uuid:49463442-6358-4a16-80a2-f5d0d34cd3ea"
        }
      }
    },
    {
      "fullUrl": "urn:uuid:4918514d-8c45-404d-8a4b-b68800bae7c4",
      "resource": {
        "resourceType": "Observation",
        "id": "4918514d-8c45-404d-8a4b-b68800bae7c4",
        "meta": {
          "profile": [
            "http://hl7.eu/fhir/laboratory/StructureDefinition/Observation-resultslab-eu-lab"
          ]
        },
        "performer": [
          {
            "display": "The Central European Lab"
          }
        ],
        "category": [
          {
            "coding": [
              {
                "system": "http://terminology.hl7.org/CodeSystem/observation-category",
                "code": "laboratory"
              }
            ]
          }
        ],
        "code": {
          "coding": [
            {
              "code": "10834-0",
              "system": "http://loinc.org",
              "display": "Globulin [Mass/volume] in Serum by calculation"
            }
          ],
          "text": "Globulin [Mass/volume] in Serum by calculation"
        },
        "valueQuantity": {
          "system": "http://unitsofmeasure.org",
          "value": 3.3,
          "unit": "g/L",
          "code": "g/L"
        },
        "referenceRange": [
          {
            "low": {
              "value": 2,
              "code": "g/L",
              "system": "http://unitsofmeasure.org"
            }
          },
          {
            "high": {
              "value": 3.5,
              "code": "g/L",
              "system": "http://unitsofmeasure.org"
            }
          }
        ],
        "text": {
          "status": "generated",
          "div": "<div xmlns=\"http://www.w3.org/1999/xhtml\"><table class=\"hl7__eu__lab__report\"><tr><th>Test</th><th>25-Oct-2016</th><th>Reference&#xA0;Range</th><th>Unit</th></tr><tr><td>Globulin [Mass/volume] in Serum by calculation</td><td>3.3</td><td>2 - 3.5</td><td></td><td>g/L</td></tr></table></div>"
        },
        "status": "final",
        "subject": {
          "reference": "urn:uuid:cae3ee12-2471-4674-80d5-a33398bea0f4",
          "display": "Maria Nohlmans"
        },
        "effectiveDateTime": "2016-10-24T22:13:39Z",
        "specimen": {
          "reference": "urn:uuid:20175b53-fb11-42c4-842e-cd26589272e7"
        }
      }
    },
    {
      "fullUrl": "urn:uuid:9e2b5226-f60b-4fa0-b50f-37101c0668a3",
      "resource": {
        "resourceType": "Observation",
        "id": "9e2b5226-f60b-4fa0-b50f-37101c0668a3",
        "meta": {
          "profile": [
            "http://hl7.eu/fhir/laboratory/StructureDefinition/Observation-resultslab-eu-lab"
          ]
        },
        "performer": [
          {
            "display": "The Central European Lab"
          }
        ],
        "category": [
          {
            "coding": [
              {
                "system": "http://terminology.hl7.org/CodeSystem/observation-category",
                "code": "laboratory"
              }
            ]
          }
        ],
        "code": {
          "coding": [
            {
              "code": "1975-2",
              "system": "http://loinc.org",
              "display": "Bilirubin.total [Mass/volume] in Serum or Plasma"
            }
          ],
          "text": "Bilirubin.total [Mass/volume] in Serum or Plasma"
        },
        "valueQuantity": {
          "system": "http://unitsofmeasure.org",
          "value": 0.8,
          "unit": "mg/dL",
          "code": "mg/dL"
        },
        "referenceRange": [
          {
            "low": {
              "value": 0.3,
              "code": "mg/dL",
              "system": "http://unitsofmeasure.org"
            }
          },
          {
            "high": {
              "value": 1.2,
              "code": "mg/dL",
              "system": "http://unitsofmeasure.org"
            }
          }
        ],
        "text": {
          "status": "generated",
          "div": "<div xmlns=\"http://www.w3.org/1999/xhtml\"><table class=\"hl7__eu__lab__report\"><tr><th>Test</th><th>25-Oct-2016</th><th>Reference&#xA0;Range</th><th>Unit</th></tr><tr><td>Bilirubin.total [Mass/volume] in Serum or Plasma</td><td>0.8</td><td>0.3 - 1.2</td><td></td><td>mg/dL</td></tr></table></div>"
        },
        "status": "final",
        "subject": {
          "reference": "urn:uuid:cae3ee12-2471-4674-80d5-a33398bea0f4",
          "display": "Maria Nohlmans"
        },
        "effectiveDateTime": "2016-10-24T22:13:39Z",
        "specimen": {
          "reference": "urn:uuid:49463442-6358-4a16-80a2-f5d0d34cd3ea"
        }
      }
    },
    {
      "fullUrl": "urn:uuid:77367a2d-fd71-4b1d-80a0-c198fd7c0bca",
      "resource": {
        "resourceType": "Observation",
        "id": "77367a2d-fd71-4b1d-80a0-c198fd7c0bca",
        "meta": {
          "profile": [
            "http://hl7.eu/fhir/laboratory/StructureDefinition/Observation-resultslab-eu-lab"
          ]
        },
        "performer": [
          {
            "display": "The Central European Lab"
          }
        ],
        "category": [
          {
            "coding": [
              {
                "system": "http://terminology.hl7.org/CodeSystem/observation-category",
                "code": "laboratory"
              }
            ]
          }
        ],
        "code": {
          "coding": [
            {
              "code": "6768-6",
              "system": "http://loinc.org",
              "display": "Alkaline phosphatase [Enzymatic activity/volume] in Serum or Plasma"
            }
          ],
          "text": "Alkaline phosphatase [Enzymatic activity/volume] in Serum or Plasma"
        },
        "valueQuantity": {
          "system": "http://unitsofmeasure.org",
          "value": 53.8,
          "unit": "U/L",
          "code": "U/L"
        },
        "referenceRange": [
          {
            "low": {
              "value": 44,
              "code": "U/L",
              "system": "http://unitsofmeasure.org"
            }
          },
          {
            "high": {
              "value": 142,
              "code": "U/L",
              "system": "http://unitsofmeasure.org"
            }
          }
        ],
        "text": {
          "status": "generated",
          "div": "<div xmlns=\"http://www.w3.org/1999/xhtml\"><table class=\"hl7__eu__lab__report\"><tr><th>Test</th><th>25-Oct-2016</th><th>Reference&#xA0;Range</th><th>Unit</th></tr><tr><td>Alkaline phosphatase [Enzymatic activity/volume] in Serum or Plasma</td><td>53.8</td><td>44 - 142</td><td></td><td>U/L</td></tr></table></div>"
        },
        "status": "final",
        "subject": {
          "reference": "urn:uuid:cae3ee12-2471-4674-80d5-a33398bea0f4",
          "display": "Maria Nohlmans"
        },
        "effectiveDateTime": "2016-10-24T22:13:39Z",
        "specimen": {
          "reference": "urn:uuid:49463442-6358-4a16-80a2-f5d0d34cd3ea"
        }
      }
    },
    {
      "fullUrl": "urn:uuid:def1594d-e545-408f-be2b-df08eb007547",
      "resource": {
        "resourceType": "Observation",
        "id": "def1594d-e545-408f-be2b-df08eb007547",
        "meta": {
          "profile": [
            "http://hl7.eu/fhir/laboratory/StructureDefinition/Observation-resultslab-eu-lab"
          ]
        },
        "performer": [
          {
            "display": "The Central European Lab"
          }
        ],
        "category": [
          {
            "coding": [
              {
                "system": "http://terminology.hl7.org/CodeSystem/observation-category",
                "code": "laboratory"
              }
            ]
          }
        ],
        "code": {
          "coding": [
            {
              "code": "1742-6",
              "system": "http://loinc.org",
              "display": "Alanine aminotransferase [Enzymatic activity/volume] in Serum or Plasma"
            }
          ],
          "text": "Alanine aminotransferase [Enzymatic activity/volume] in Serum or Plasma"
        },
        "valueQuantity": {
          "system": "http://unitsofmeasure.org",
          "value": 24.6,
          "unit": "U/L",
          "code": "U/L"
        },
        "referenceRange": [
          {
            "low": {
              "value": 7,
              "code": "U/L",
              "system": "http://unitsofmeasure.org"
            }
          },
          {
            "high": {
              "value": 40,
              "code": "U/L",
              "system": "http://unitsofmeasure.org"
            }
          }
        ],
        "text": {
          "status": "generated",
          "div": "<div xmlns=\"http://www.w3.org/1999/xhtml\"><table class=\"hl7__eu__lab__report\"><tr><th>Test</th><th>25-Oct-2016</th><th>Reference&#xA0;Range</th><th>Unit</th></tr><tr><td>Alanine aminotransferase [Enzymatic activity/volume] in Serum or Plasma</td><td>24.6</td><td>7 - 40</td><td></td><td>U/L</td></tr></table></div>"
        },
        "status": "final",
        "subject": {
          "reference": "urn:uuid:cae3ee12-2471-4674-80d5-a33398bea0f4",
          "display": "Maria Nohlmans"
        },
        "effectiveDateTime": "2016-10-24T22:13:39Z",
        "specimen": {
          "reference": "urn:uuid:49463442-6358-4a16-80a2-f5d0d34cd3ea"
        }
      }
    },
    {
      "fullUrl": "urn:uuid:3dbeabc4-b5ef-47ed-b7bb-f93bf1beaa28",
      "resource": {
        "resourceType": "Observation",
        "id": "3dbeabc4-b5ef-47ed-b7bb-f93bf1beaa28",
        "meta": {
          "profile": [
            "http://hl7.eu/fhir/laboratory/StructureDefinition/Observation-resultslab-eu-lab"
          ]
        },
        "performer": [
          {
            "display": "The Central European Lab"
          }
        ],
        "category": [
          {
            "coding": [
              {
                "system": "http://terminology.hl7.org/CodeSystem/observation-category",
                "code": "laboratory"
              }
            ]
          }
        ],
        "code": {
          "coding": [
            {
              "code": "1920-8",
              "system": "http://loinc.org",
              "display": "Aspartate aminotransferase [Enzymatic activity/volume] in Serum or Plasma"
            }
          ],
          "text": "Aspartate aminotransferase [Enzymatic activity/volume] in Serum or Plasma"
        },
        "valueQuantity": {
          "system": "http://unitsofmeasure.org",
          "value": 18.9,
          "unit": "U/L",
          "code": "U/L"
        },
        "referenceRange": [
          {
            "low": {
              "value": 10,
              "code": "U/L",
              "system": "http://unitsofmeasure.org"
            }
          },
          {
            "high": {
              "value": 40,
              "code": "U/L",
              "system": "http://unitsofmeasure.org"
            }
          }
        ],
        "text": {
          "status": "generated",
          "div": "<div xmlns=\"http://www.w3.org/1999/xhtml\"><table class=\"hl7__eu__lab__report\"><tr><th>Test</th><th>25-Oct-2016</th><th>Reference&#xA0;Range</th><th>Unit</th></tr><tr><td>Aspartate aminotransferase [Enzymatic activity/volume] in Serum or Plasma</td><td>18.9</td><td>10 - 40</td><td></td><td>U/L</td></tr></table></div>"
        },
        "status": "final",
        "subject": {
          "reference": "urn:uuid:cae3ee12-2471-4674-80d5-a33398bea0f4",
          "display": "Maria Nohlmans"
        },
        "effectiveDateTime": "2016-10-24T22:13:39Z",
        "specimen": {
          "reference": "urn:uuid:49463442-6358-4a16-80a2-f5d0d34cd3ea"
        }
      }
    },
    {
      "fullUrl": "urn:uuid:23489356-8a16-4254-8101-443d76106ddd",
      "resource": {
        "resourceType": "Observation",
        "id": "23489356-8a16-4254-8101-443d76106ddd",
        "meta": {
          "profile": [
            "http://hl7.eu/fhir/laboratory/StructureDefinition/Observation-resultslab-eu-lab"
          ]
        },
        "performer": [
          {
            "display": "The Central European Lab"
          }
        ],
        "category": [
          {
            "coding": [
              {
                "system": "http://terminology.hl7.org/CodeSystem/observation-category",
                "code": "laboratory"
              }
            ]
          }
        ],
        "code": {
          "coding": [
            {
              "code": "5767-9",
              "system": "http://loinc.org",
              "display": "Appearance of Urine"
            }
          ],
          "text": "Appearance of Urine"
        },
        "text": {
          "status": "generated",
          "div": "<div xmlns=\"http://www.w3.org/1999/xhtml\"><table class=\"hl7__eu__lab__report\"><tr><th>Test</th><th>25-Oct-2016</th><th>Reference&#xA0;Range</th><th>Unit</th></tr><tr><td>Appearance of Urine</td></tr></table></div>"
        },
        "status": "final",
        "subject": {
          "reference": "urn:uuid:cae3ee12-2471-4674-80d5-a33398bea0f4",
          "display": "Maria Nohlmans"
        },
        "effectiveDateTime": "2016-10-24T22:13:39Z",
        "specimen": {
          "reference": "urn:uuid:5a858a21-34f8-4fa3-88a7-1aad0174b91b"
        }
      }
    },
    {
      "fullUrl": "urn:uuid:8b06a9e5-25c3-4b25-802f-2c56ca4d0874",
      "resource": {
        "resourceType": "Observation",
        "id": "8b06a9e5-25c3-4b25-802f-2c56ca4d0874",
        "meta": {
          "profile": [
            "http://hl7.eu/fhir/laboratory/StructureDefinition/Observation-resultslab-eu-lab"
          ]
        },
        "performer": [
          {
            "display": "The Central European Lab"
          }
        ],
        "category": [
          {
            "coding": [
              {
                "system": "http://terminology.hl7.org/CodeSystem/observation-category",
                "code": "laboratory"
              }
            ]
          }
        ],
        "code": {
          "coding": [
            {
              "code": "34533-0",
              "system": "http://loinc.org",
              "display": "Odor of Urine"
            }
          ],
          "text": "Odor of Urine"
        },
        "text": {
          "status": "generated",
          "div": "<div xmlns=\"http://www.w3.org/1999/xhtml\"><table class=\"hl7__eu__lab__report\"><tr><th>Test</th><th>25-Oct-2016</th><th>Reference&#xA0;Range</th><th>Unit</th></tr><tr><td>Odor of Urine</td></tr></table></div>"
        },
        "status": "final",
        "subject": {
          "reference": "urn:uuid:cae3ee12-2471-4674-80d5-a33398bea0f4",
          "display": "Maria Nohlmans"
        },
        "effectiveDateTime": "2016-10-24T22:13:39Z",
        "specimen": {
          "reference": "urn:uuid:5a858a21-34f8-4fa3-88a7-1aad0174b91b"
        }
      }
    },
    {
      "fullUrl": "urn:uuid:dba0ecb7-b581-4a9a-9957-c4675baffac0",
      "resource": {
        "resourceType": "Observation",
        "id": "dba0ecb7-b581-4a9a-9957-c4675baffac0",
        "meta": {
          "profile": [
            "http://hl7.eu/fhir/laboratory/StructureDefinition/Observation-resultslab-eu-lab"
          ]
        },
        "performer": [
          {
            "display": "The Central European Lab"
          }
        ],
        "category": [
          {
            "coding": [
              {
                "system": "http://terminology.hl7.org/CodeSystem/observation-category",
                "code": "laboratory"
              }
            ]
          }
        ],
        "code": {
          "coding": [
            {
              "code": "32167-9",
              "system": "http://loinc.org",
              "display": "Clarity of Urine"
            }
          ],
          "text": "Clarity of Urine"
        },
        "text": {
          "status": "generated",
          "div": "<div xmlns=\"http://www.w3.org/1999/xhtml\"><table class=\"hl7__eu__lab__report\"><tr><th>Test</th><th>25-Oct-2016</th><th>Reference&#xA0;Range</th><th>Unit</th></tr><tr><td>Clarity of Urine</td></tr></table></div>"
        },
        "status": "final",
        "subject": {
          "reference": "urn:uuid:cae3ee12-2471-4674-80d5-a33398bea0f4",
          "display": "Maria Nohlmans"
        },
        "effectiveDateTime": "2016-10-24T22:13:39Z",
        "specimen": {
          "reference": "urn:uuid:5a858a21-34f8-4fa3-88a7-1aad0174b91b"
        }
      }
    },
    {
      "fullUrl": "urn:uuid:d3029e6b-e27b-435c-a600-db16acc2563b",
      "resource": {
        "resourceType": "Observation",
        "id": "d3029e6b-e27b-435c-a600-db16acc2563b",
        "meta": {
          "profile": [
            "http://hl7.eu/fhir/laboratory/StructureDefinition/Observation-resultslab-eu-lab"
          ]
        },
        "performer": [
          {
            "display": "The Central European Lab"
          }
        ],
        "category": [
          {
            "coding": [
              {
                "system": "http://terminology.hl7.org/CodeSystem/observation-category",
                "code": "laboratory"
              }
            ]
          }
        ],
        "code": {
          "coding": [
            {
              "code": "5778-6",
              "system": "http://loinc.org",
              "display": "Color of Urine"
            }
          ],
          "text": "Color of Urine"
        },
        "text": {
          "status": "generated",
          "div": "<div xmlns=\"http://www.w3.org/1999/xhtml\"><table class=\"hl7__eu__lab__report\"><tr><th>Test</th><th>25-Oct-2016</th><th>Reference&#xA0;Range</th><th>Unit</th></tr><tr><td>Color of Urine</td></tr></table></div>"
        },
        "status": "final",
        "subject": {
          "reference": "urn:uuid:cae3ee12-2471-4674-80d5-a33398bea0f4",
          "display": "Maria Nohlmans"
        },
        "effectiveDateTime": "2016-10-24T22:13:39Z",
        "specimen": {
          "reference": "urn:uuid:5a858a21-34f8-4fa3-88a7-1aad0174b91b"
        }
      }
    },
    {
      "fullUrl": "urn:uuid:69e2daeb-6da9-49db-9600-82a98e742413",
      "resource": {
        "resourceType": "Observation",
        "id": "69e2daeb-6da9-49db-9600-82a98e742413",
        "meta": {
          "profile": [
            "http://hl7.eu/fhir/laboratory/StructureDefinition/Observation-resultslab-eu-lab"
          ]
        },
        "performer": [
          {
            "display": "The Central European Lab"
          }
        ],
        "category": [
          {
            "coding": [
              {
                "system": "http://terminology.hl7.org/CodeSystem/observation-category",
                "code": "laboratory"
              }
            ]
          }
        ],
        "code": {
          "coding": [
            {
              "code": "5792-7",
              "system": "http://loinc.org",
              "display": "Glucose [Mass/volume] in Urine by Test strip"
            }
          ],
          "text": "Glucose [Mass/volume] in Urine by Test strip"
        },
        "valueQuantity": {
          "system": "http://unitsofmeasure.org",
          "value": 2.5,
          "unit": "mg/dL",
          "code": "mg/dL"
        },
        "referenceRange": [
          {
            "low": {
              "value": 0.8,
              "code": "mg/dL",
              "system": "http://unitsofmeasure.org"
            }
          },
          {
            "high": {
              "value": 0,
              "code": "mg/dL",
              "system": "http://unitsofmeasure.org"
            }
          }
        ],
        "interpretation": [
          {
            "coding": [
              {
                "code": "H",
                "system": "http://terminology.hl7.org/CodeSystem/v3-ObservationInterpretation",
                "display": "High"
              }
            ]
          }
        ],
        "text": {
          "status": "generated",
          "div": "<div xmlns=\"http://www.w3.org/1999/xhtml\"><table class=\"hl7__eu__lab__report\"><tr><th>Test</th><th>25-Oct-2016</th><th>Reference&#xA0;Range</th><th>Unit</th></tr><tr><td>Glucose [Mass/volume] in Urine by Test strip</td><td>2.5</td><td>0.8 - 0</td><td>H</td><td>mg/dL</td></tr></table></div>"
        },
        "status": "final",
        "subject": {
          "reference": "urn:uuid:cae3ee12-2471-4674-80d5-a33398bea0f4",
          "display": "Maria Nohlmans"
        },
        "effectiveDateTime": "2016-10-24T22:13:39Z",
        "specimen": {
          "reference": "urn:uuid:5a858a21-34f8-4fa3-88a7-1aad0174b91b"
        }
      }
    },
    {
      "fullUrl": "urn:uuid:4a9eb34e-681d-4d3d-9a7a-234fbce393df",
      "resource": {
        "resourceType": "Observation",
        "id": "4a9eb34e-681d-4d3d-9a7a-234fbce393df",
        "meta": {
          "profile": [
            "http://hl7.eu/fhir/laboratory/StructureDefinition/Observation-resultslab-eu-lab"
          ]
        },
        "performer": [
          {
            "display": "The Central European Lab"
          }
        ],
        "category": [
          {
            "coding": [
              {
                "system": "http://terminology.hl7.org/CodeSystem/observation-category",
                "code": "laboratory"
              }
            ]
          }
        ],
        "code": {
          "coding": [
            {
              "code": "25428-4",
              "system": "http://loinc.org",
              "display": "Glucose [Presence] in Urine by Test strip"
            }
          ],
          "text": "Glucose [Presence] in Urine by Test strip"
        },
        "text": {
          "status": "generated",
          "div": "<div xmlns=\"http://www.w3.org/1999/xhtml\"><table class=\"hl7__eu__lab__report\"><tr><th>Test</th><th>25-Oct-2016</th><th>Reference&#xA0;Range</th><th>Unit</th></tr><tr><td>Glucose [Presence] in Urine by Test strip</td></tr></table></div>"
        },
        "status": "final",
        "subject": {
          "reference": "urn:uuid:cae3ee12-2471-4674-80d5-a33398bea0f4",
          "display": "Maria Nohlmans"
        },
        "effectiveDateTime": "2016-10-24T22:13:39Z",
        "specimen": {
          "reference": "urn:uuid:5a858a21-34f8-4fa3-88a7-1aad0174b91b"
        }
      }
    },
    {
      "fullUrl": "urn:uuid:c10b930a-8878-4673-a044-c430fbcee9c2",
      "resource": {
        "resourceType": "Observation",
        "id": "c10b930a-8878-4673-a044-c430fbcee9c2",
        "meta": {
          "profile": [
            "http://hl7.eu/fhir/laboratory/StructureDefinition/Observation-resultslab-eu-lab"
          ]
        },
        "performer": [
          {
            "display": "The Central European Lab"
          }
        ],
        "category": [
          {
            "coding": [
              {
                "system": "http://terminology.hl7.org/CodeSystem/observation-category",
                "code": "laboratory"
              }
            ]
          }
        ],
        "code": {
          "coding": [
            {
              "code": "20505-4",
              "system": "http://loinc.org",
              "display": "Bilirubin.total [Mass/volume] in Urine by Test strip"
            }
          ],
          "text": "Bilirubin.total [Mass/volume] in Urine by Test strip"
        },
        "valueQuantity": {
          "system": "http://unitsofmeasure.org",
          "value": 0.3,
          "unit": "mg/dL",
          "code": "mg/dL"
        },
        "referenceRange": [
          {
            "low": {
              "value": 0,
              "code": "mg/dL",
              "system": "http://unitsofmeasure.org"
            }
          },
          {
            "high": {
              "value": 1.5,
              "code": "mg/dL",
              "system": "http://unitsofmeasure.org"
            }
          }
        ],
        "text": {
          "status": "generated",
          "div": "<div xmlns=\"http://www.w3.org/1999/xhtml\"><table class=\"hl7__eu__lab__report\"><tr><th>Test</th><th>25-Oct-2016</th><th>Reference&#xA0;Range</th><th>Unit</th></tr><tr><td>Bilirubin.total [Mass/volume] in Urine by Test strip</td><td>0.3</td><td>0 - 1.5</td><td></td><td>mg/dL</td></tr></table></div>"
        },
        "status": "final",
        "subject": {
          "reference": "urn:uuid:cae3ee12-2471-4674-80d5-a33398bea0f4",
          "display": "Maria Nohlmans"
        },
        "effectiveDateTime": "2016-10-24T22:13:39Z",
        "specimen": {
          "reference": "urn:uuid:5a858a21-34f8-4fa3-88a7-1aad0174b91b"
        }
      }
    },
    {
      "fullUrl": "urn:uuid:469b4c15-a25b-4cf3-8642-eaacc8fe4007",
      "resource": {
        "resourceType": "Observation",
        "id": "469b4c15-a25b-4cf3-8642-eaacc8fe4007",
        "meta": {
          "profile": [
            "http://hl7.eu/fhir/laboratory/StructureDefinition/Observation-resultslab-eu-lab"
          ]
        },
        "performer": [
          {
            "display": "The Central European Lab"
          }
        ],
        "category": [
          {
            "coding": [
              {
                "system": "http://terminology.hl7.org/CodeSystem/observation-category",
                "code": "laboratory"
              }
            ]
          }
        ],
        "code": {
          "coding": [
            {
              "code": "5770-3",
              "system": "http://loinc.org",
              "display": "Bilirubin.total [Presence] in Urine by Test strip"
            }
          ],
          "text": "Bilirubin.total [Presence] in Urine by Test strip"
        },
        "text": {
          "status": "generated",
          "div": "<div xmlns=\"http://www.w3.org/1999/xhtml\"><table class=\"hl7__eu__lab__report\"><tr><th>Test</th><th>25-Oct-2016</th><th>Reference&#xA0;Range</th><th>Unit</th></tr><tr><td>Bilirubin.total [Presence] in Urine by Test strip</td></tr></table></div>"
        },
        "status": "final",
        "subject": {
          "reference": "urn:uuid:cae3ee12-2471-4674-80d5-a33398bea0f4",
          "display": "Maria Nohlmans"
        },
        "effectiveDateTime": "2016-10-24T22:13:39Z",
        "specimen": {
          "reference": "urn:uuid:5a858a21-34f8-4fa3-88a7-1aad0174b91b"
        }
      }
    },
    {
      "fullUrl": "urn:uuid:5bb21ddf-7ab8-45d2-b633-980ead14e953",
      "resource": {
        "resourceType": "Observation",
        "id": "5bb21ddf-7ab8-45d2-b633-980ead14e953",
        "meta": {
          "profile": [
            "http://hl7.eu/fhir/laboratory/StructureDefinition/Observation-resultslab-eu-lab"
          ]
        },
        "performer": [
          {
            "display": "The Central European Lab"
          }
        ],
        "category": [
          {
            "coding": [
              {
                "system": "http://terminology.hl7.org/CodeSystem/observation-category",
                "code": "laboratory"
              }
            ]
          }
        ],
        "code": {
          "coding": [
            {
              "code": "5797-6",
              "system": "http://loinc.org",
              "display": "Ketones [Mass/volume] in Urine by Test strip"
            }
          ],
          "text": "Ketones [Mass/volume] in Urine by Test strip"
        },
        "valueQuantity": {
          "system": "http://unitsofmeasure.org",
          "value": 11.4,
          "unit": "mg/dL",
          "code": "mg/dL"
        },
        "referenceRange": [
          {
            "low": {
              "value": 0,
              "code": "mg/dL",
              "system": "http://unitsofmeasure.org"
            }
          },
          {
            "high": {
              "value": 8,
              "code": "mg/dL",
              "system": "http://unitsofmeasure.org"
            }
          }
        ],
        "interpretation": [
          {
            "coding": [
              {
                "code": "H",
                "system": "http://terminology.hl7.org/CodeSystem/v3-ObservationInterpretation",
                "display": "High"
              }
            ]
          }
        ],
        "text": {
          "status": "generated",
          "div": "<div xmlns=\"http://www.w3.org/1999/xhtml\"><table class=\"hl7__eu__lab__report\"><tr><th>Test</th><th>25-Oct-2016</th><th>Reference&#xA0;Range</th><th>Unit</th></tr><tr><td>Ketones [Mass/volume] in Urine by Test strip</td><td>11.4</td><td>0 - 8</td><td>H</td><td>mg/dL</td></tr></table></div>"
        },
        "status": "final",
        "subject": {
          "reference": "urn:uuid:cae3ee12-2471-4674-80d5-a33398bea0f4",
          "display": "Maria Nohlmans"
        },
        "effectiveDateTime": "2016-10-24T22:13:39Z",
        "specimen": {
          "reference": "urn:uuid:5a858a21-34f8-4fa3-88a7-1aad0174b91b"
        }
      }
    },
    {
      "fullUrl": "urn:uuid:94119dab-9c37-40af-93d0-9eb1efd407ea",
      "resource": {
        "resourceType": "Observation",
        "id": "94119dab-9c37-40af-93d0-9eb1efd407ea",
        "meta": {
          "profile": [
            "http://hl7.eu/fhir/laboratory/StructureDefinition/Observation-resultslab-eu-lab"
          ]
        },
        "performer": [
          {
            "display": "The Central European Lab"
          }
        ],
        "category": [
          {
            "coding": [
              {
                "system": "http://terminology.hl7.org/CodeSystem/observation-category",
                "code": "laboratory"
              }
            ]
          }
        ],
        "code": {
          "coding": [
            {
              "code": "2514-8",
              "system": "http://loinc.org",
              "display": "Ketones [Presence] in Urine by Test strip"
            }
          ],
          "text": "Ketones [Presence] in Urine by Test strip"
        },
        "text": {
          "status": "generated",
          "div": "<div xmlns=\"http://www.w3.org/1999/xhtml\"><table class=\"hl7__eu__lab__report\"><tr><th>Test</th><th>25-Oct-2016</th><th>Reference&#xA0;Range</th><th>Unit</th></tr><tr><td>Ketones [Presence] in Urine by Test strip</td></tr></table></div>"
        },
        "status": "final",
        "subject": {
          "reference": "urn:uuid:cae3ee12-2471-4674-80d5-a33398bea0f4",
          "display": "Maria Nohlmans"
        },
        "effectiveDateTime": "2016-10-24T22:13:39Z",
        "specimen": {
          "reference": "urn:uuid:5a858a21-34f8-4fa3-88a7-1aad0174b91b"
        }
      }
    },
    {
      "fullUrl": "urn:uuid:13b90533-36de-428e-b1e5-cfcb6331afec",
      "resource": {
        "resourceType": "Observation",
        "id": "13b90533-36de-428e-b1e5-cfcb6331afec",
        "meta": {
          "profile": [
            "http://hl7.eu/fhir/laboratory/StructureDefinition/Observation-resultslab-eu-lab"
          ]
        },
        "performer": [
          {
            "display": "The Central European Lab"
          }
        ],
        "category": [
          {
            "coding": [
              {
                "system": "http://terminology.hl7.org/CodeSystem/observation-category",
                "code": "laboratory"
              }
            ]
          }
        ],
        "code": {
          "coding": [
            {
              "code": "5811-5",
              "system": "http://loinc.org",
              "display": "Specific gravity of Urine by Test strip"
            }
          ],
          "text": "Specific gravity of Urine by Test strip"
        },
        "valueQuantity": {
          "system": "http://unitsofmeasure.org",
          "value": 1,
          "unit": "{nominal}",
          "code": "{nominal}"
        },
        "referenceRange": [
          {
            "low": {
              "value": 1.01,
              "code": "g/mL",
              "system": "http://unitsofmeasure.org"
            }
          },
          {
            "high": {
              "value": 1.03,
              "code": "g/mL",
              "system": "http://unitsofmeasure.org"
            }
          }
        ],
        "interpretation": [
          {
            "coding": [
              {
                "code": "L",
                "system": "http://terminology.hl7.org/CodeSystem/v3-ObservationInterpretation",
                "display": "Low"
              }
            ]
          }
        ],
        "text": {
          "status": "generated",
          "div": "<div xmlns=\"http://www.w3.org/1999/xhtml\"><table class=\"hl7__eu__lab__report\"><tr><th>Test</th><th>25-Oct-2016</th><th>Reference&#xA0;Range</th><th>Unit</th></tr><tr><td>Specific gravity of Urine by Test strip</td><td>1.0</td><td>1.01 - 1.03</td><td>L</td><td>{nominal}</td></tr></table></div>"
        },
        "status": "final",
        "subject": {
          "reference": "urn:uuid:cae3ee12-2471-4674-80d5-a33398bea0f4",
          "display": "Maria Nohlmans"
        },
        "effectiveDateTime": "2016-10-24T22:13:39Z",
        "specimen": {
          "reference": "urn:uuid:5a858a21-34f8-4fa3-88a7-1aad0174b91b"
        }
      }
    },
    {
      "fullUrl": "urn:uuid:fa3ce8fb-124b-4d2f-94cf-5ddcb3d7603b",
      "resource": {
        "resourceType": "Observation",
        "id": "fa3ce8fb-124b-4d2f-94cf-5ddcb3d7603b",
        "meta": {
          "profile": [
            "http://hl7.eu/fhir/laboratory/StructureDefinition/Observation-resultslab-eu-lab"
          ]
        },
        "performer": [
          {
            "display": "The Central European Lab"
          }
        ],
        "category": [
          {
            "coding": [
              {
                "system": "http://terminology.hl7.org/CodeSystem/observation-category",
                "code": "laboratory"
              }
            ]
          }
        ],
        "code": {
          "coding": [
            {
              "code": "5803-2",
              "system": "http://loinc.org",
              "display": "pH of Urine by Test strip"
            }
          ],
          "text": "pH of Urine by Test strip"
        },
        "valueQuantity": {
          "system": "http://unitsofmeasure.org",
          "value": 5.4,
          "unit": "pH",
          "code": "pH"
        },
        "referenceRange": [
          {
            "low": {
              "value": 4.6,
              "code": "pH",
              "system": "http://unitsofmeasure.org"
            }
          },
          {
            "high": {
              "value": 7.5,
              "code": "pH",
              "system": "http://unitsofmeasure.org"
            }
          }
        ],
        "text": {
          "status": "generated",
          "div": "<div xmlns=\"http://www.w3.org/1999/xhtml\"><table class=\"hl7__eu__lab__report\"><tr><th>Test</th><th>25-Oct-2016</th><th>Reference&#xA0;Range</th><th>Unit</th></tr><tr><td>pH of Urine by Test strip</td><td>5.4</td><td>4.6 - 7.5</td><td></td><td>pH</td></tr></table></div>"
        },
        "status": "final",
        "subject": {
          "reference": "urn:uuid:cae3ee12-2471-4674-80d5-a33398bea0f4",
          "display": "Maria Nohlmans"
        },
        "effectiveDateTime": "2016-10-24T22:13:39Z",
        "specimen": {
          "reference": "urn:uuid:5a858a21-34f8-4fa3-88a7-1aad0174b91b"
        }
      }
    },
    {
      "fullUrl": "urn:uuid:d3e337cb-20d6-4bdf-9621-7b9440fb37f8",
      "resource": {
        "resourceType": "Observation",
        "id": "d3e337cb-20d6-4bdf-9621-7b9440fb37f8",
        "meta": {
          "profile": [
            "http://hl7.eu/fhir/laboratory/StructureDefinition/Observation-resultslab-eu-lab"
          ]
        },
        "performer": [
          {
            "display": "The Central European Lab"
          }
        ],
        "category": [
          {
            "coding": [
              {
                "system": "http://terminology.hl7.org/CodeSystem/observation-category",
                "code": "laboratory"
              }
            ]
          }
        ],
        "code": {
          "coding": [
            {
              "code": "5804-0",
              "system": "http://loinc.org",
              "display": "Protein [Mass/volume] in Urine by Test strip"
            }
          ],
          "text": "Protein [Mass/volume] in Urine by Test strip"
        },
        "valueQuantity": {
          "system": "http://unitsofmeasure.org",
          "value": 340.2,
          "unit": "mg/dL",
          "code": "mg/dL"
        },
        "referenceRange": [
          {
            "low": {
              "value": 0,
              "code": "mg/dL",
              "system": "http://unitsofmeasure.org"
            }
          },
          {
            "high": {
              "value": 14,
              "code": "mg/dL",
              "system": "http://unitsofmeasure.org"
            }
          }
        ],
        "interpretation": [
          {
            "coding": [
              {
                "code": "H",
                "system": "http://terminology.hl7.org/CodeSystem/v3-ObservationInterpretation",
                "display": "High"
              }
            ]
          }
        ],
        "text": {
          "status": "generated",
          "div": "<div xmlns=\"http://www.w3.org/1999/xhtml\"><table class=\"hl7__eu__lab__report\"><tr><th>Test</th><th>25-Oct-2016</th><th>Reference&#xA0;Range</th><th>Unit</th></tr><tr><td>Protein [Mass/volume] in Urine by Test strip</td><td>340.2</td><td>0 - 14</td><td>H</td><td>mg/dL</td></tr></table></div>"
        },
        "status": "final",
        "subject": {
          "reference": "urn:uuid:cae3ee12-2471-4674-80d5-a33398bea0f4",
          "display": "Maria Nohlmans"
        },
        "effectiveDateTime": "2016-10-24T22:13:39Z",
        "specimen": {
          "reference": "urn:uuid:5a858a21-34f8-4fa3-88a7-1aad0174b91b"
        }
      }
    },
    {
      "fullUrl": "urn:uuid:22a454cc-b791-4ed6-9c00-5b1029b70e2a",
      "resource": {
        "resourceType": "Observation",
        "id": "22a454cc-b791-4ed6-9c00-5b1029b70e2a",
        "meta": {
          "profile": [
            "http://hl7.eu/fhir/laboratory/StructureDefinition/Observation-resultslab-eu-lab"
          ]
        },
        "performer": [
          {
            "display": "The Central European Lab"
          }
        ],
        "category": [
          {
            "coding": [
              {
                "system": "http://terminology.hl7.org/CodeSystem/observation-category",
                "code": "laboratory"
              }
            ]
          }
        ],
        "code": {
          "coding": [
            {
              "code": "20454-5",
              "system": "http://loinc.org",
              "display": "Protein [Presence] in Urine by Test strip"
            }
          ],
          "text": "Protein [Presence] in Urine by Test strip"
        },
        "text": {
          "status": "generated",
          "div": "<div xmlns=\"http://www.w3.org/1999/xhtml\"><table class=\"hl7__eu__lab__report\"><tr><th>Test</th><th>25-Oct-2016</th><th>Reference&#xA0;Range</th><th>Unit</th></tr><tr><td>Protein [Presence] in Urine by Test strip</td></tr></table></div>"
        },
        "status": "final",
        "subject": {
          "reference": "urn:uuid:cae3ee12-2471-4674-80d5-a33398bea0f4",
          "display": "Maria Nohlmans"
        },
        "effectiveDateTime": "2016-10-24T22:13:39Z",
        "specimen": {
          "reference": "urn:uuid:5a858a21-34f8-4fa3-88a7-1aad0174b91b"
        }
      }
    },
    {
      "fullUrl": "urn:uuid:186922c6-8cc7-44c8-b70c-2e6f469cc105",
      "resource": {
        "resourceType": "Observation",
        "id": "186922c6-8cc7-44c8-b70c-2e6f469cc105",
        "meta": {
          "profile": [
            "http://hl7.eu/fhir/laboratory/StructureDefinition/Observation-resultslab-eu-lab"
          ]
        },
        "performer": [
          {
            "display": "The Central European Lab"
          }
        ],
        "category": [
          {
            "coding": [
              {
                "system": "http://terminology.hl7.org/CodeSystem/observation-category",
                "code": "laboratory"
              }
            ]
          }
        ],
        "code": {
          "coding": [
            {
              "code": "5802-4",
              "system": "http://loinc.org",
              "display": "Nitrite [Presence] in Urine by Test strip"
            }
          ],
          "text": "Nitrite [Presence] in Urine by Test strip"
        },
        "text": {
          "status": "generated",
          "div": "<div xmlns=\"http://www.w3.org/1999/xhtml\"><table class=\"hl7__eu__lab__report\"><tr><th>Test</th><th>25-Oct-2016</th><th>Reference&#xA0;Range</th><th>Unit</th></tr><tr><td>Nitrite [Presence] in Urine by Test strip</td></tr></table></div>"
        },
        "status": "final",
        "subject": {
          "reference": "urn:uuid:cae3ee12-2471-4674-80d5-a33398bea0f4",
          "display": "Maria Nohlmans"
        },
        "effectiveDateTime": "2016-10-24T22:13:39Z",
        "specimen": {
          "reference": "urn:uuid:5a858a21-34f8-4fa3-88a7-1aad0174b91b"
        }
      }
    },
    {
      "fullUrl": "urn:uuid:b8f57f36-08cc-4b49-88ca-87b5758ecb98",
      "resource": {
        "resourceType": "Observation",
        "id": "b8f57f36-08cc-4b49-88ca-87b5758ecb98",
        "meta": {
          "profile": [
            "http://hl7.eu/fhir/laboratory/StructureDefinition/Observation-resultslab-eu-lab"
          ]
        },
        "performer": [
          {
            "display": "The Central European Lab"
          }
        ],
        "category": [
          {
            "coding": [
              {
                "system": "http://terminology.hl7.org/CodeSystem/observation-category",
                "code": "laboratory"
              }
            ]
          }
        ],
        "code": {
          "coding": [
            {
              "code": "5794-3",
              "system": "http://loinc.org",
              "display": "Hemoglobin [Presence] in Urine by Test strip"
            }
          ],
          "text": "Hemoglobin [Presence] in Urine by Test strip"
        },
        "text": {
          "status": "generated",
          "div": "<div xmlns=\"http://www.w3.org/1999/xhtml\"><table class=\"hl7__eu__lab__report\"><tr><th>Test</th><th>25-Oct-2016</th><th>Reference&#xA0;Range</th><th>Unit</th></tr><tr><td>Hemoglobin [Presence] in Urine by Test strip</td></tr></table></div>"
        },
        "status": "final",
        "subject": {
          "reference": "urn:uuid:cae3ee12-2471-4674-80d5-a33398bea0f4",
          "display": "Maria Nohlmans"
        },
        "effectiveDateTime": "2016-10-24T22:13:39Z",
        "specimen": {
          "reference": "urn:uuid:5a858a21-34f8-4fa3-88a7-1aad0174b91b"
        }
      }
    },
    {
      "fullUrl": "urn:uuid:37fb45a0-84df-459f-9563-2ffa3f7f4a6b",
      "resource": {
        "resourceType": "Observation",
        "id": "37fb45a0-84df-459f-9563-2ffa3f7f4a6b",
        "meta": {
          "profile": [
            "http://hl7.eu/fhir/laboratory/StructureDefinition/Observation-resultslab-eu-lab"
          ]
        },
        "performer": [
          {
            "display": "The Central European Lab"
          }
        ],
        "category": [
          {
            "coding": [
              {
                "system": "http://terminology.hl7.org/CodeSystem/observation-category",
                "code": "laboratory"
              }
            ]
          }
        ],
        "code": {
          "coding": [
            {
              "code": "5799-2",
              "system": "http://loinc.org",
              "display": "Leukocyte esterase [Presence] in Urine by Test strip"
            }
          ],
          "text": "Leukocyte esterase [Presence] in Urine by Test strip"
        },
        "text": {
          "status": "generated",
          "div": "<div xmlns=\"http://www.w3.org/1999/xhtml\"><table class=\"hl7__eu__lab__report\"><tr><th>Test</th><th>25-Oct-2016</th><th>Reference&#xA0;Range</th><th>Unit</th></tr><tr><td>Leukocyte esterase [Presence] in Urine by Test strip</td></tr></table></div>"
        },
        "status": "final",
        "subject": {
          "reference": "urn:uuid:cae3ee12-2471-4674-80d5-a33398bea0f4",
          "display": "Maria Nohlmans"
        },
        "effectiveDateTime": "2016-10-24T22:13:39Z",
        "specimen": {
          "reference": "urn:uuid:5a858a21-34f8-4fa3-88a7-1aad0174b91b"
        }
      }
    },
    {
      "fullUrl": "urn:uuid:e1964c49-a850-4157-95b2-a8b834f65ffb",
      "resource": {
        "resourceType": "Device",
        "id": "e1964c49-a850-4157-95b2-a8b834f65ffb",
        "deviceName": [
          {
            "name": "SYNDERAI Synthetic Generator",
            "type": "manufacturer-name"
          }
        ],
        "version": [
          {
            "value": "5.0"
          }
        ],
        "text": {
          "status": "generated",
          "div": "<div xmlns=\"http://www.w3.org/1999/xhtml\">SYNDERAI Synthetic Generator v5.0</div>"
        },
        "status": "active\"",
        "distinctIdentifier": "synderai-generator-50",
        "manufacturer": "SYNDERAI Project"
      }
    },
    {
      "fullUrl": "urn:uuid:7e394827-5172-4396-8e07-2591b50fd125",
      "resource": {
        "resourceType": "Provenance",
        "id": "7e394827-5172-4396-8e07-2591b50fd125",
        "target": [
          {
            "reference": "Patient/cae3ee12-2471-4674-80d5-a33398bea0f4"
          },
          {
            "reference": "Bundle/a93d5130-e953-41f0-81e8-b212571a28c6"
          },
          {
            "reference": "Composition/a2f54871-a288-459e-88c6-749ba2e6d45d"
          },
          {
            "reference": "PractitionerRole/8496668e-4813-408b-a685-15adccfd5677"
          },
          {
            "reference": "Practitioner/829c2315-8e35-4508-b717-5b79b9fa21fb"
          },
          {
            "reference": "PractitionerRole/602a4113-524f-46aa-9738-e87dc1013e4f"
          },
          {
            "reference": "Organization/bff94ae5-9054-462d-8736-bc14a881aef9"
          }
        ],
        "activity": {
          "text": "Synthetic Example Data Generation"
        },
        "policy": [
          "https://synderai.net/synderai-synthetic-data-policy"
        ],
        "agent": [
          {
            "type": {
              "text": "author"
            },
            "who": {
              "reference": "Device/e1964c49-a850-4157-95b2-a8b834f65ffb"
            }
          }
        ],
        "reason": [
          {
            "text": "Interoperability Testing and Training (non-clinical use)"
          }
        ],
        "text": {
          "status": "generated",
          "div": "<div xmlns=\"http://www.w3.org/1999/xhtml\">Provenance for SYNDERAI Synthetic Example Data Resource</div>"
        },
        "recorded": "2016-10-25T00:13:39Z"
      }
    },
    {
      "fullUrl": "urn:uuid:8496668e-4813-408b-a685-15adccfd5677",
      "resource": {
        "resourceType": "PractitionerRole",
        "id": "8496668e-4813-408b-a685-15adccfd5677",
        "meta": {
          "profile": [
            "http://hl7.eu/fhir/base/StructureDefinition/practitionerRole-eu"
          ]
        },
        "text": {
          "status": "generated",
          "div": "<div xmlns=\"http://www.w3.org/1999/xhtml\">Laboratory Role Id: 8496668e-4813-408b-a685-15adccfd5677</div>"
        },
        "practitioner": {
          "reference": "urn:uuid:829c2315-8e35-4508-b717-5b79b9fa21fb"
        }
      }
    },
    {
      "fullUrl": "urn:uuid:829c2315-8e35-4508-b717-5b79b9fa21fb",
      "resource": {
        "resourceType": "Practitioner",
        "id": "829c2315-8e35-4508-b717-5b79b9fa21fb",
        "meta": {
          "profile": [
            "http://hl7.eu/fhir/base/StructureDefinition/practitioner-eu"
          ]
        },
        "identifier": [
          {
            "assigner": {
              "display": "HL7 Europe"
            },
            "system": "urn:oid:2.16.840.1.113883.2.51.999",
            "value": "c5e1b1ae-b9c4-4d61-89d4-5b537c0dfbec"
          }
        ],
        "name": [
          {
            "prefix": [
              "dr"
            ],
            "given": [
              "Ex"
            ],
            "family": "Ample"
          }
        ],
        "address": [
          {
            "line": [
              "Laboratoire Central Européenne",
              "Boulevard du Jardin Botanique 32"
            ],
            "postalCode": "1000",
            "city": "Brussels",
            "country": "Belgium"
          }
        ],
        "text": {
          "status": "generated",
          "div": "<div xmlns=\"http://www.w3.org/1999/xhtml\">Laboratory: Laboratoire Central Européenne, 1000 Brussels, Belgium</div>"
        }
      }
    }
  ],
  "type": "document",
  "timestamp": "2016-10-25T00:13:39Z"
}
