{
  "resourceType": "Bundle",
  "id": "922f0abc-b840-4c93-b77b-16a76a99781d",
  "meta": {
    "profile": [
      "http://hl7.eu/fhir/laboratory/StructureDefinition/Bundle-eu-lab"
    ]
  },
  "identifier": {
    "assigner": {
      "display": "HL7 Europe"
    },
    "system": "urn:oid:2.16.840.1.113883.2.51.999",
    "value": "b31f73c1-2d14-4109-8935-900e41cdb1ec"
  },
  "entry": [
    {
      "fullUrl": "urn:uuid:8e934518-1ddf-481a-a696-a9a8f024ba0f",
      "resource": {
        "resourceType": "Composition",
        "id": "8e934518-1ddf-481a-a696-a9a8f024ba0f",
        "meta": {
          "profile": [
            "http://hl7.eu/fhir/laboratory/StructureDefinition/Composition-eu-lab"
          ]
        },
        "identifier": {
          "assigner": {
            "display": "HL7 Europe"
          },
          "system": "urn:oid:2.16.840.1.113883.2.51.999",
          "value": "bc3b3bf2-97b7-4de1-9d55-aba04ba6ad1b"
        },
        "author": [
          {
            "reference": "urn:uuid:f7f5e89a-642a-45ac-b608-f5ec318282d6"
          }
        ],
        "category": [
          {
            "coding": [
              {
                "code": "26436-6",
                "system": "http://loinc.org",
                "display": "Laboratory studies (set)"
              }
            ]
          }
        ],
        "type": {
          "coding": [
            {
              "code": "11502-2",
              "system": "http://loinc.org",
              "display": "Laboratory report"
            }
          ],
          "text": "Laboratory Report"
        },
        "section": [
          {
            "code": {
              "coding": [
                {
                  "code": "26436-6",
                  "system": "http://loinc.org",
                  "display": "Laboratory studies (set)"
                }
              ],
              "text": "Laboratory studies"
            },
            "section": [
              {
                "code": {
                  "coding": [
                    {
                      "code": "$18719-5",
                      "system": "http://loinc.org",
                      "display": "Chemistry studies (set)"
                    }
                  ],
                  "text": "Chemistry"
                },
                "entry": [
                  {
                    "reference": "urn:uuid:f5cb5c6e-badc-47b5-9f6a-c45ee679552b"
                  },
                  {
                    "reference": "urn:uuid:05a3e2a9-1383-4d08-9407-ff167c86f30f"
                  },
                  {
                    "reference": "urn:uuid:1a23847d-9a1b-49a0-9461-13d6e19cf0ed"
                  },
                  {
                    "reference": "urn:uuid:c6e0afb3-2d89-4f4a-a55c-410c70442aa6"
                  },
                  {
                    "reference": "urn:uuid:f5694738-1c14-4166-a469-eaae40cb6896"
                  },
                  {
                    "reference": "urn:uuid:c4c0fc7e-6227-49b8-bf23-299b74751f61"
                  },
                  {
                    "reference": "urn:uuid:27904d9a-8fe1-49ce-92fc-0a3e0747948f"
                  },
                  {
                    "reference": "urn:uuid:a53b9dfa-41c7-42f7-aa63-253d262fe4ea"
                  },
                  {
                    "reference": "urn:uuid:94ed323a-7cd9-4f72-ad84-1900a8d33b0c"
                  },
                  {
                    "reference": "urn:uuid:a8bf11c6-2cd7-4581-a8bd-b080398765c6"
                  },
                  {
                    "reference": "urn:uuid:8960cff7-930d-4e11-9928-e88848a9f7d5"
                  },
                  {
                    "reference": "urn:uuid:6810b750-4f6e-48df-9091-bc0ea75334fc"
                  },
                  {
                    "reference": "urn:uuid:ce7029d8-862b-4f17-8958-82a7cfd7d382"
                  },
                  {
                    "reference": "urn:uuid:6d3c8821-4503-4445-b8ec-8e541555d021"
                  },
                  {
                    "reference": "urn:uuid:5b2356d8-dd9b-459a-a72e-27320620bedb"
                  },
                  {
                    "reference": "urn:uuid:0a18bf3d-b251-457d-b806-9e647fa4642e"
                  }
                ],
                "text": {
                  "status": "generated",
                  "div": "<div xmlns=\"http://www.w3.org/1999/xhtml\"><h3>Chemistry</h3><table class=\"hl7__eu__lab__report\"><thead><tr><th>Test</th><th>07-JUL-2025</th><th>Reference&#xA0;Range</th><th>Unit</th></tr></thead><tbody><tr><td>Glucose [Mass/volume] in Blood</td><td>79.6</td><td>70 - 140</td><td>mg/dL</td></tr><tr><td>Urea nitrogen [Mass/volume] in Blood</td><td>11.8</td><td>7 - 20</td><td>mg/dL</td></tr><tr><td>Creatinine [Mass/volume] in Blood</td><td><strong>3.1 H</strong></td><td>0.9 - 1.3</td><td>mg/dL</td></tr><tr><td>Calcium [Mass/volume] in Blood</td><td>9.2</td><td>8.5 - 10.5</td><td>mg/dL</td></tr><tr><td>Sodium [Moles/volume] in Blood</td><td>137.8</td><td>135 - 145</td><td>mmol/L</td></tr><tr><td>Potassium [Moles/volume] in Blood</td><td>4.8</td><td>3.5 - 5.1</td><td>mmol/L</td></tr><tr><td>Chloride [Moles/volume] in Blood</td><td><strong>108.5 H</strong></td><td>98 - 108</td><td>mmol/L</td></tr><tr><td>Carbon dioxide, total [Moles/volume] in Blood</td><td>25.7</td><td>22 - 29</td><td>mmol/L</td></tr><tr><td>Protein [Mass/volume] in Serum or Plasma</td><td>6.6</td><td>6 - 8.3</td><td>g/dL</td></tr><tr><td>Albumin [Mass/volume] in Serum or Plasma</td><td>4.5</td><td>3.5 - 5.5</td><td>g/dL</td></tr><tr><td>Globulin [Mass/volume] in Serum by calculation</td><td>2.3</td><td>2 - 3.5</td><td>g/L</td></tr><tr><td>Bilirubin.total [Mass/volume] in Serum or Plasma</td><td>0.5</td><td>0.3 - 1.2</td><td>mg/dL</td></tr><tr><td>Alkaline phosphatase [Enzymatic activity/volume] in Serum or Plasma</td><td><strong>24.4 L</strong></td><td>39 - 147</td><td>U/L</td></tr><tr><td>Alanine aminotransferase [Enzymatic activity/volume] in Serum or Plasma</td><td>59.0</td><td>10 - 63</td><td>U/L</td></tr><tr><td>Aspartate aminotransferase [Enzymatic activity/volume] in Serum or Plasma</td><td>32.5</td><td>10 - 40</td><td>U/L</td></tr><tr><td>Ketones [Presence] in Urine by Test strip</td><td>Urine ketone test = +++</td><td></td><td></td></tr></tbody></table></div>"
                },
                "title": "Chemistry"
              },
              {
                "code": {
                  "coding": [
                    {
                      "code": "$18729-4",
                      "system": "http://loinc.org",
                      "display": "Urinalysis studies (set)"
                    }
                  ],
                  "text": "Urinalysis"
                },
                "entry": [
                  {
                    "reference": "urn:uuid:e488d495-2e8d-4b31-b3bc-e96ac215f4ad"
                  },
                  {
                    "reference": "urn:uuid:b186b4ee-1c4e-4fd7-8259-81b36e939a54"
                  },
                  {
                    "reference": "urn:uuid:80722731-169d-46fa-8b01-8876923947a1"
                  },
                  {
                    "reference": "urn:uuid:53f5331f-768f-4917-a783-a79b7a16e8e9"
                  },
                  {
                    "reference": "urn:uuid:de6a6023-02f4-4ad1-a1ff-bac78412b76a"
                  },
                  {
                    "reference": "urn:uuid:e11129cd-ccc4-4d88-8a7e-419163506166"
                  },
                  {
                    "reference": "urn:uuid:045b7554-0a17-402e-9e56-02350f10a31d"
                  },
                  {
                    "reference": "urn:uuid:376a12f0-ffd0-4e47-b926-231f21652141"
                  },
                  {
                    "reference": "urn:uuid:5246706e-099d-4a50-b9e6-158b64ccfa22"
                  },
                  {
                    "reference": "urn:uuid:c9b5920f-29eb-4796-bfcb-1eaf98c15d08"
                  },
                  {
                    "reference": "urn:uuid:b6959436-4632-43e2-820c-3405db4153f6"
                  },
                  {
                    "reference": "urn:uuid:14b9d087-5c8e-43d6-b2a9-2bdf231c5d34"
                  }
                ],
                "text": {
                  "status": "generated",
                  "div": "<div xmlns=\"http://www.w3.org/1999/xhtml\"><h3>Urinalysis</h3><table class=\"hl7__eu__lab__report\"><thead><tr><th>Test</th><th>07-JUL-2025</th><th>Reference&#xA0;Range</th><th>Unit</th></tr></thead><tbody><tr><td>Glucose [Mass/volume] in Urine by Test strip</td><td>0.6</td><td>0 - 0.8</td><td>mg/dL</td></tr><tr><td>Glucose [Presence] in Urine by Test strip</td><td>++</td><td></td><td></td></tr><tr><td>Bilirubin.total [Mass/volume] in Urine by Test strip</td><td>0.9</td><td>0 - 1.9</td><td>mg/dL</td></tr><tr><td>Bilirubin.total [Presence] in Urine by Test strip</td><td>Finding of bilirubin in urine</td><td></td><td></td></tr><tr><td>Ketones [Mass/volume] in Urine by Test strip</td><td><strong>16.4 H</strong></td><td>0 - 3</td><td>mg/dL</td></tr><tr><td>Specific gravity of Urine by Test strip</td><td><strong>1.0 L</strong></td><td>1.01 - 1.03</td><td>{nominal}</td></tr><tr><td>pH of Urine by Test strip</td><td>5.6</td><td>4.5 - 7.5</td><td>pH</td></tr><tr><td>Protein [Mass/volume] in Urine by Test strip</td><td><strong>326.8 H</strong></td><td>0 - 149</td><td>mg/dL</td></tr><tr><td>Protein [Presence] in Urine by Test strip</td><td>Urine protein test = +++</td><td></td><td></td></tr><tr><td>Nitrite [Presence] in Urine by Test strip</td><td>Urine nitrite negative</td><td></td><td></td></tr><tr><td>Hemoglobin [Presence] in Urine by Test strip</td><td>Urine blood test = negative</td><td></td><td></td></tr><tr><td>Leukocyte esterase [Presence] in Urine by Test strip</td><td>Urine leukocyte test negative</td><td></td><td></td></tr></tbody></table></div>"
                },
                "title": "Urinalysis"
              },
              {
                "code": {
                  "coding": [
                    {
                      "code": "$LP7846-1",
                      "system": "http://loinc.org",
                      "display": "Specimen information"
                    }
                  ],
                  "text": "Specimen information"
                },
                "entry": [
                  {
                    "reference": "urn:uuid:ab1e2a61-7027-4849-a109-5062cc32d061"
                  },
                  {
                    "reference": "urn:uuid:9c2d2f5e-3673-475f-a6e2-314d62a5ea05"
                  },
                  {
                    "reference": "urn:uuid:e67ac0bc-707b-43ec-85d8-3bb18a8955c5"
                  },
                  {
                    "reference": "urn:uuid:d8db7896-b9fb-45c3-9ed1-6e573a1a9b66"
                  }
                ],
                "text": {
                  "status": "generated",
                  "div": "<div xmlns=\"http://www.w3.org/1999/xhtml\"><h3>Specimen information</h3><table class=\"hl7__eu__lab__report\"><thead><tr><th>Test</th><th>07-JUL-2025</th><th>Specimen</th><th></th></tr></thead><tbody><tr><td>Appearance of Urine</td><td>Cloudy urine</td><td>Urine</td><td></td></tr><tr><td>Odor of Urine</td><td>Urine smell ammoniacal</td><td>Urine</td><td></td></tr><tr><td>Clarity of Urine</td><td>Translucent</td><td>Urine</td><td></td></tr><tr><td>Color of Urine</td><td>Brown color</td><td>Urine</td><td></td></tr></tbody></table></div>"
                },
                "title": "Specimen information"
              }
            ],
            "title": "Laboratory Report"
          },
          {
            "text": {
              "status": "generated",
              "div": "<div xmlns=\"http://www.w3.org/1999/xhtml\"><h3>Annotation</h3><table class=\"hl7__eu__lab__report\"><tr><th>Conclusion and Recommendations based on this report and previous findings known to us</th></tr><tr><td>The patient shows markedly elevated serum creatinine, indicating significant renal impairment. Urinalysis reveals proteinuria, glucosuria, and marked ketonuria, with low specific gravity and abnormal urine appearance, suggesting possible nephrotic syndrome or acute kidney injury, possibly with a component of diabetic or metabolic decompensation. No evidence of urinary tract infection. Liver and electrolyte parameters are within normal limits except for mildly elevated chloride and low alkaline phosphatase. Immediate clinical evaluation and nephrology consultation are recommended.</td></tr></table></div>"
            },
            "code": {
              "coding": [
                {
                  "system": "http://loinc.org",
                  "code": "48767-8",
                  "display": "Annotation comment"
                }
              ]
            },
            "title": "Annotation comment"
          }
        ],
        "status": "final",
        "subject": {
          "reference": "urn:uuid:49ce65c8-1bba-49a6-a58b-33caef8a5880",
          "display": "Victor Lagarde"
        },
        "date": "2025-07-07T09:04:18Z",
        "title": "Laboratory Report",
        "confidentiality": "N"
      }
    },
    {
      "fullUrl": "urn:uuid:dff5786b-5348-4f81-8819-284eb17736fc",
      "resource": {
        "resourceType": "DiagnosticReport",
        "id": "dff5786b-5348-4f81-8819-284eb17736fc",
        "meta": {
          "profile": [
            "http://hl7.eu/fhir/laboratory/StructureDefinition/DiagnosticReport-eu-lab"
          ]
        },
        "identifier": [
          {
            "assigner": {
              "display": "HL7 Europe"
            },
            "system": "urn:oid:2.16.840.1.113883.2.51.999",
            "value": "919c8703-297c-4555-9667-035bcba7390d"
          }
        ],
        "extension": [
          {
            "url": "http://hl7.org/fhir/5.0/StructureDefinition/extension-DiagnosticReport.composition",
            "valueReference": {
              "reference": "urn:uuid:bc3b3bf2-97b7-4de1-9d55-aba04ba6ad1b"
            }
          }
        ],
        "category": [
          {
            "coding": [
              {
                "code": "26436-6",
                "system": "http://loinc.org",
                "display": "Laboratory studies (set)"
              }
            ]
          }
        ],
        "specimen": [
          {
            "reference": "urn:uuid:781fccd7-e6b7-484e-889d-6624027fe638"
          },
          {
            "reference": "urn:uuid:6638fbaa-6191-49bb-96ae-456d75e7ae5f"
          },
          {
            "reference": "urn:uuid:461ee026-0aed-48fd-a36f-93595d7274bb"
          },
          {
            "reference": "urn:uuid:54b91a9c-5936-4349-bad3-03bc2176403b"
          }
        ],
        "result": [
          {
            "reference": "urn:uuid:f5cb5c6e-badc-47b5-9f6a-c45ee679552b"
          },
          {
            "reference": "urn:uuid:05a3e2a9-1383-4d08-9407-ff167c86f30f"
          },
          {
            "reference": "urn:uuid:1a23847d-9a1b-49a0-9461-13d6e19cf0ed"
          },
          {
            "reference": "urn:uuid:c6e0afb3-2d89-4f4a-a55c-410c70442aa6"
          },
          {
            "reference": "urn:uuid:f5694738-1c14-4166-a469-eaae40cb6896"
          },
          {
            "reference": "urn:uuid:c4c0fc7e-6227-49b8-bf23-299b74751f61"
          },
          {
            "reference": "urn:uuid:27904d9a-8fe1-49ce-92fc-0a3e0747948f"
          },
          {
            "reference": "urn:uuid:a53b9dfa-41c7-42f7-aa63-253d262fe4ea"
          },
          {
            "reference": "urn:uuid:94ed323a-7cd9-4f72-ad84-1900a8d33b0c"
          },
          {
            "reference": "urn:uuid:a8bf11c6-2cd7-4581-a8bd-b080398765c6"
          },
          {
            "reference": "urn:uuid:8960cff7-930d-4e11-9928-e88848a9f7d5"
          },
          {
            "reference": "urn:uuid:6810b750-4f6e-48df-9091-bc0ea75334fc"
          },
          {
            "reference": "urn:uuid:ce7029d8-862b-4f17-8958-82a7cfd7d382"
          },
          {
            "reference": "urn:uuid:6d3c8821-4503-4445-b8ec-8e541555d021"
          },
          {
            "reference": "urn:uuid:5b2356d8-dd9b-459a-a72e-27320620bedb"
          },
          {
            "reference": "urn:uuid:ab1e2a61-7027-4849-a109-5062cc32d061"
          },
          {
            "reference": "urn:uuid:9c2d2f5e-3673-475f-a6e2-314d62a5ea05"
          },
          {
            "reference": "urn:uuid:e67ac0bc-707b-43ec-85d8-3bb18a8955c5"
          },
          {
            "reference": "urn:uuid:d8db7896-b9fb-45c3-9ed1-6e573a1a9b66"
          },
          {
            "reference": "urn:uuid:e488d495-2e8d-4b31-b3bc-e96ac215f4ad"
          },
          {
            "reference": "urn:uuid:b186b4ee-1c4e-4fd7-8259-81b36e939a54"
          },
          {
            "reference": "urn:uuid:80722731-169d-46fa-8b01-8876923947a1"
          },
          {
            "reference": "urn:uuid:53f5331f-768f-4917-a783-a79b7a16e8e9"
          },
          {
            "reference": "urn:uuid:de6a6023-02f4-4ad1-a1ff-bac78412b76a"
          },
          {
            "reference": "urn:uuid:0a18bf3d-b251-457d-b806-9e647fa4642e"
          },
          {
            "reference": "urn:uuid:e11129cd-ccc4-4d88-8a7e-419163506166"
          },
          {
            "reference": "urn:uuid:045b7554-0a17-402e-9e56-02350f10a31d"
          },
          {
            "reference": "urn:uuid:376a12f0-ffd0-4e47-b926-231f21652141"
          },
          {
            "reference": "urn:uuid:5246706e-099d-4a50-b9e6-158b64ccfa22"
          },
          {
            "reference": "urn:uuid:c9b5920f-29eb-4796-bfcb-1eaf98c15d08"
          },
          {
            "reference": "urn:uuid:b6959436-4632-43e2-820c-3405db4153f6"
          },
          {
            "reference": "urn:uuid:14b9d087-5c8e-43d6-b2a9-2bdf231c5d34"
          }
        ],
        "status": "registered",
        "code": {
          "coding": [
            {
              "code": "11502-2",
              "system": "http://loinc.org",
              "display": "Laboratory report"
            }
          ]
        },
        "subject": {
          "reference": "urn:uuid:49ce65c8-1bba-49a6-a58b-33caef8a5880",
          "display": "Victor Lagarde"
        }
      }
    },
    {
      "fullUrl": "urn:uuid:49ce65c8-1bba-49a6-a58b-33caef8a5880",
      "resource": {
        "resourceType": "Patient",
        "id": "49ce65c8-1bba-49a6-a58b-33caef8a5880",
        "meta": {
          "security": [
            {
              "system": "http://terminology.hl7.org/CodeSystem/v3-ActReason",
              "code": "HTEST"
            },
            {
              "system": "http://terminology.hl7.org/CodeSystem/v3-ActReason",
              "code": "TRAIN"
            }
          ],
          "tag": [
            {
              "system": "https://synderai.net/fhir/CodeSystem/tags",
              "code": "synthetic",
              "display": "SYNDERAI Synthetic data"
            }
          ],
          "profile": [
            "http://hl7.eu/fhir/base/StructureDefinition/patient-eu-core"
          ]
        },
        "identifier": [
          {
            "type": {
              "coding": [
                {
                  "code": "PT",
                  "system": "http://terminology.hl7.org/CodeSystem/v2-0203"
                }
              ]
            },
            "system": "http://ec.europa.eu/identifier/eci",
            "value": "9925-001801-9"
          },
          {
            "type": {
              "coding": [
                {
                  "code": "MR",
                  "system": "http://terminology.hl7.org/CodeSystem/v2-0203"
                }
              ]
            },
            "system": "http://local.setting.eu/identifier",
            "value": "22c2dfd0-ac57-8833-2532-848f180896a4"
          }
        ],
        "name": [
          {
            "family": "Lagarde"
          },
          {
            "given": [
              "Victor"
            ]
          },
          {
            "text": "Victor Lagarde"
          }
        ],
        "address": [
          {
            "line": [
              "avenue Robert"
            ],
            "use": "home",
            "type": "physical",
            "postalCode": "80300",
            "city": "Albert",
            "country": "France"
          }
        ],
        "telecom": [
          {
            "system": "phone",
            "value": "0177941801"
          }
        ],
        "extension": [
          {
            "url": "http://hl7.org/fhir/StructureDefinition/patient-nationality",
            "valueCodeableConcept": {
              "coding": [
                {
                  "code": "FR",
                  "system": "http://hl7.org/fhir/ValueSet/country"
                }
              ]
            }
          }
        ],
        "text": {
          "status": "generated",
          "div": "<div xmlns=\"http://www.w3.org/1999/xhtml\"><table class=\"hl7__ips\"><tr><td>Victor Lagarde</td><td>male</td><td>31-Aug-1939</td></tr></table></div>"
        },
        "gender": "male",
        "birthDate": "1939-08-31"
      }
    },
    {
      "fullUrl": "urn:uuid:55693188-3814-404a-94e1-49254065124e",
      "resource": {
        "resourceType": "ServiceRequest",
        "id": "55693188-3814-404a-94e1-49254065124e",
        "meta": {
          "profile": [
            "http://hl7.eu/fhir/laboratory/StructureDefinition/ServiceRequest-eu-lab"
          ]
        },
        "identifier": [
          {
            "system": "http://example.org",
            "value": "f8c4bcb8-704d-4171-953c-4800c0186af6"
          }
        ],
        "specimen": [
          {
            "reference": "urn:uuid:781fccd7-e6b7-484e-889d-6624027fe638"
          },
          {
            "reference": "urn:uuid:6638fbaa-6191-49bb-96ae-456d75e7ae5f"
          },
          {
            "reference": "urn:uuid:461ee026-0aed-48fd-a36f-93595d7274bb"
          },
          {
            "reference": "urn:uuid:54b91a9c-5936-4349-bad3-03bc2176403b"
          }
        ],
        "reasonCode": [
          {
            "coding": [
              {
                "code": "433144002",
                "system": "http://snomed.info/sct",
                "display": "Chronic kidney disease stage 3"
              }
            ]
          },
          {
            "coding": [
              {
                "code": "157141000119108",
                "system": "http://snomed.info/sct",
                "display": "Proteinuria due to type 2 diabetes mellitus"
              }
            ]
          },
          {
            "coding": [
              {
                "code": "431856006",
                "system": "http://snomed.info/sct",
                "display": "Chronic kidney disease stage 2"
              }
            ]
          },
          {
            "coding": [
              {
                "code": "90781000119102",
                "system": "http://snomed.info/sct",
                "display": "Microalbuminuria due to type 2 diabetes mellitus"
              }
            ]
          },
          {
            "coding": [
              {
                "code": "127013003",
                "system": "http://snomed.info/sct",
                "display": "Disorder of kidney due to diabetes mellitus"
              }
            ]
          },
          {
            "coding": [
              {
                "code": "431855005",
                "system": "http://snomed.info/sct",
                "display": "Chronic kidney disease stage 1"
              }
            ]
          },
          {
            "coding": [
              {
                "code": "55822004",
                "system": "http://snomed.info/sct",
                "display": "Hyperlipidemia"
              }
            ]
          },
          {
            "coding": [
              {
                "code": "59621000",
                "system": "http://snomed.info/sct",
                "display": "Essential hypertension"
              }
            ]
          },
          {
            "coding": [
              {
                "code": "237602007",
                "system": "http://snomed.info/sct",
                "display": "Metabolic syndrome X"
              }
            ]
          },
          {
            "coding": [
              {
                "code": "414545008",
                "system": "http://snomed.info/sct",
                "display": "Ischemic heart disease"
              }
            ]
          },
          {
            "coding": [
              {
                "code": "40055000",
                "system": "http://snomed.info/sct",
                "display": "Chronic sinusitis"
              }
            ]
          },
          {
            "coding": [
              {
                "code": "15777000",
                "system": "http://snomed.info/sct",
                "display": "Prediabetes"
              }
            ]
          },
          {
            "coding": [
              {
                "code": "271737000",
                "system": "http://snomed.info/sct",
                "display": "Anemia"
              }
            ]
          }
        ],
        "status": "active",
        "intent": "order",
        "code": {
          "coding": [
            {
              "code": "108252007",
              "system": "http://snomed.info/sct",
              "display": "Laboratory procedure"
            }
          ]
        },
        "subject": {
          "reference": "urn:uuid:49ce65c8-1bba-49a6-a58b-33caef8a5880",
          "display": "Victor Lagarde"
        },
        "requester": {
          "reference": "urn:uuid:92af647f-7e65-40ea-936a-de6c23e2e2c6"
        }
      }
    },
    {
      "fullUrl": "urn:uuid:92af647f-7e65-40ea-936a-de6c23e2e2c6",
      "resource": {
        "resourceType": "PractitionerRole",
        "id": "92af647f-7e65-40ea-936a-de6c23e2e2c6",
        "meta": {
          "profile": [
            "http://hl7.eu/fhir/base/StructureDefinition/practitionerRole-eu"
          ]
        },
        "text": {
          "status": "generated",
          "div": "<div xmlns=\"http://www.w3.org/1999/xhtml\">Provider Role Id: 92af647f-7e65-40ea-936a-de6c23e2e2c6</div>"
        },
        "organization": {
          "reference": "urn:uuid:db66bac4-49e8-4524-a467-c5a0af44de96"
        }
      }
    },
    {
      "fullUrl": "urn:uuid:db66bac4-49e8-4524-a467-c5a0af44de96",
      "resource": {
        "resourceType": "Organization",
        "id": "db66bac4-49e8-4524-a467-c5a0af44de96",
        "meta": {
          "profile": [
            "http://hl7.eu/fhir/base/StructureDefinition/organization-eu"
          ]
        },
        "identifier": [
          {
            "assigner": {
              "display": "HL7 Europe"
            },
            "system": "urn:oid:2.16.840.1.113883.2.51.999",
            "value": "b2835569-7130-4142-87c2-345dc8def6d8"
          }
        ],
        "address": [
          {
            "city": "Auxerre",
            "postalCode": "89000",
            "country": "France"
          }
        ],
        "text": {
          "status": "generated",
          "div": "<div xmlns=\"http://www.w3.org/1999/xhtml\">Provider Organization: Thiriot Didier (Cardiologie)</div>"
        },
        "name": "Thiriot Didier (Cardiologie)"
      }
    },
    {
      "fullUrl": "urn:uuid:781fccd7-e6b7-484e-889d-6624027fe638",
      "resource": {
        "resourceType": "Specimen",
        "id": "781fccd7-e6b7-484e-889d-6624027fe638",
        "meta": {
          "profile": [
            "http://hl7.eu/fhir/laboratory/StructureDefinition/Specimen-eu-lab"
          ]
        },
        "collection": {
          "collectedDateTime": "2025-07-07"
        },
        "text": {
          "status": "generated",
          "div": "<div xmlns=\"http://www.w3.org/1999/xhtml\"><table class=\"hl7__eu__lab__report\"><tr><th>Specimen</th><th>Collection Date</th></tr><tr><td>Whole blood specimen (specimen)</td><td><span class=\"nb\">07-Jul-2025</span></td></tr></table></div>"
        },
        "type": {
          "coding": [
            {
              "code": "258580003",
              "system": "http://snomed.info/sct",
              "display": "Whole blood specimen (specimen)"
            }
          ]
        }
      }
    },
    {
      "fullUrl": "urn:uuid:6638fbaa-6191-49bb-96ae-456d75e7ae5f",
      "resource": {
        "resourceType": "Specimen",
        "id": "6638fbaa-6191-49bb-96ae-456d75e7ae5f",
        "meta": {
          "profile": [
            "http://hl7.eu/fhir/laboratory/StructureDefinition/Specimen-eu-lab"
          ]
        },
        "collection": {
          "collectedDateTime": "2025-07-07"
        },
        "text": {
          "status": "generated",
          "div": "<div xmlns=\"http://www.w3.org/1999/xhtml\"><table class=\"hl7__eu__lab__report\"><tr><th>Specimen</th><th>Collection Date</th></tr><tr><td>Acellular blood (serum or plasma) specimen</td><td><span class=\"nb\">07-Jul-2025</span></td></tr></table></div>"
        },
        "type": {
          "coding": [
            {
              "code": "122592007",
              "system": "http://snomed.info/sct",
              "display": "Acellular blood (serum or plasma) specimen"
            }
          ]
        }
      }
    },
    {
      "fullUrl": "urn:uuid:461ee026-0aed-48fd-a36f-93595d7274bb",
      "resource": {
        "resourceType": "Specimen",
        "id": "461ee026-0aed-48fd-a36f-93595d7274bb",
        "meta": {
          "profile": [
            "http://hl7.eu/fhir/laboratory/StructureDefinition/Specimen-eu-lab"
          ]
        },
        "collection": {
          "collectedDateTime": "2025-07-07"
        },
        "text": {
          "status": "generated",
          "div": "<div xmlns=\"http://www.w3.org/1999/xhtml\"><table class=\"hl7__eu__lab__report\"><tr><th>Specimen</th><th>Collection Date</th></tr><tr><td>Serum specimen</td><td><span class=\"nb\">07-Jul-2025</span></td></tr></table></div>"
        },
        "type": {
          "coding": [
            {
              "code": "119364003",
              "system": "http://snomed.info/sct",
              "display": "Serum specimen"
            }
          ]
        }
      }
    },
    {
      "fullUrl": "urn:uuid:54b91a9c-5936-4349-bad3-03bc2176403b",
      "resource": {
        "resourceType": "Specimen",
        "id": "54b91a9c-5936-4349-bad3-03bc2176403b",
        "meta": {
          "profile": [
            "http://hl7.eu/fhir/laboratory/StructureDefinition/Specimen-eu-lab"
          ]
        },
        "collection": {
          "collectedDateTime": "2025-07-07"
        },
        "text": {
          "status": "generated",
          "div": "<div xmlns=\"http://www.w3.org/1999/xhtml\"><table class=\"hl7__eu__lab__report\"><tr><th>Specimen</th><th>Collection Date</th></tr><tr><td>Urine specimen</td><td><span class=\"nb\">07-Jul-2025</span></td></tr></table></div>"
        },
        "type": {
          "coding": [
            {
              "code": "122575003",
              "system": "http://snomed.info/sct",
              "display": "Urine specimen"
            }
          ]
        }
      }
    },
    {
      "fullUrl": "urn:uuid:f5cb5c6e-badc-47b5-9f6a-c45ee679552b",
      "resource": {
        "resourceType": "Observation",
        "id": "f5cb5c6e-badc-47b5-9f6a-c45ee679552b",
        "meta": {
          "profile": [
            "http://hl7.eu/fhir/laboratory/StructureDefinition/Observation-resultslab-eu-lab"
          ]
        },
        "performer": [
          {
            "display": "The Central European Lab"
          }
        ],
        "category": [
          {
            "coding": [
              {
                "system": "http://terminology.hl7.org/CodeSystem/observation-category",
                "code": "laboratory"
              }
            ]
          }
        ],
        "code": {
          "coding": [
            {
              "code": "2339-0",
              "system": "http://loinc.org",
              "display": "Glucose [Mass/volume] in Blood"
            }
          ],
          "text": "Glucose [Mass/volume] in Blood"
        },
        "valueQuantity": {
          "system": "http://unitsofmeasure.org",
          "value": 79.6,
          "unit": "mg/dL",
          "code": "mg/dL"
        },
        "referenceRange": [
          {
            "low": {
              "value": 70,
              "code": "mg/dL",
              "system": "http://unitsofmeasure.org"
            }
          },
          {
            "high": {
              "value": 140,
              "code": "mg/dL",
              "system": "http://unitsofmeasure.org"
            }
          }
        ],
        "text": {
          "status": "generated",
          "div": "<div xmlns=\"http://www.w3.org/1999/xhtml\"><table class=\"hl7__eu__lab__report\"><tr><th>Test</th><th>07-Jul-2025</th><th>Reference&#xA0;Range</th><th>Unit</th></tr><tr><td>Glucose [Mass/volume] in Blood</td><td>79.6</td><td>70 - 140</td><td></td><td>mg/dL</td></tr></table></div>"
        },
        "status": "final",
        "subject": {
          "reference": "urn:uuid:49ce65c8-1bba-49a6-a58b-33caef8a5880",
          "display": "Victor Lagarde"
        },
        "effectiveDateTime": "2025-07-07T07:04:18Z",
        "specimen": {
          "reference": "urn:uuid:781fccd7-e6b7-484e-889d-6624027fe638"
        }
      }
    },
    {
      "fullUrl": "urn:uuid:05a3e2a9-1383-4d08-9407-ff167c86f30f",
      "resource": {
        "resourceType": "Observation",
        "id": "05a3e2a9-1383-4d08-9407-ff167c86f30f",
        "meta": {
          "profile": [
            "http://hl7.eu/fhir/laboratory/StructureDefinition/Observation-resultslab-eu-lab"
          ]
        },
        "performer": [
          {
            "display": "The Central European Lab"
          }
        ],
        "category": [
          {
            "coding": [
              {
                "system": "http://terminology.hl7.org/CodeSystem/observation-category",
                "code": "laboratory"
              }
            ]
          }
        ],
        "code": {
          "coding": [
            {
              "code": "6299-2",
              "system": "http://loinc.org",
              "display": "Urea nitrogen [Mass/volume] in Blood"
            }
          ],
          "text": "Urea nitrogen [Mass/volume] in Blood"
        },
        "valueQuantity": {
          "system": "http://unitsofmeasure.org",
          "value": 11.8,
          "unit": "mg/dL",
          "code": "mg/dL"
        },
        "referenceRange": [
          {
            "low": {
              "value": 7,
              "code": "mg/dL",
              "system": "http://unitsofmeasure.org"
            }
          },
          {
            "high": {
              "value": 20,
              "code": "mg/dL",
              "system": "http://unitsofmeasure.org"
            }
          }
        ],
        "text": {
          "status": "generated",
          "div": "<div xmlns=\"http://www.w3.org/1999/xhtml\"><table class=\"hl7__eu__lab__report\"><tr><th>Test</th><th>07-Jul-2025</th><th>Reference&#xA0;Range</th><th>Unit</th></tr><tr><td>Urea nitrogen [Mass/volume] in Blood</td><td>11.8</td><td>7 - 20</td><td></td><td>mg/dL</td></tr></table></div>"
        },
        "status": "final",
        "subject": {
          "reference": "urn:uuid:49ce65c8-1bba-49a6-a58b-33caef8a5880",
          "display": "Victor Lagarde"
        },
        "effectiveDateTime": "2025-07-07T07:04:18Z",
        "specimen": {
          "reference": "urn:uuid:781fccd7-e6b7-484e-889d-6624027fe638"
        }
      }
    },
    {
      "fullUrl": "urn:uuid:1a23847d-9a1b-49a0-9461-13d6e19cf0ed",
      "resource": {
        "resourceType": "Observation",
        "id": "1a23847d-9a1b-49a0-9461-13d6e19cf0ed",
        "meta": {
          "profile": [
            "http://hl7.eu/fhir/laboratory/StructureDefinition/Observation-resultslab-eu-lab"
          ]
        },
        "performer": [
          {
            "display": "The Central European Lab"
          }
        ],
        "category": [
          {
            "coding": [
              {
                "system": "http://terminology.hl7.org/CodeSystem/observation-category",
                "code": "laboratory"
              }
            ]
          }
        ],
        "code": {
          "coding": [
            {
              "code": "38483-4",
              "system": "http://loinc.org",
              "display": "Creatinine [Mass/volume] in Blood"
            }
          ],
          "text": "Creatinine [Mass/volume] in Blood"
        },
        "valueQuantity": {
          "system": "http://unitsofmeasure.org",
          "value": 3.1,
          "unit": "mg/dL",
          "code": "mg/dL"
        },
        "referenceRange": [
          {
            "low": {
              "value": 0.9,
              "code": "mg/dL",
              "system": "http://unitsofmeasure.org"
            }
          },
          {
            "high": {
              "value": 1.3,
              "code": "mg/dL",
              "system": "http://unitsofmeasure.org"
            }
          }
        ],
        "interpretation": [
          {
            "coding": [
              {
                "code": "H",
                "system": "http://terminology.hl7.org/CodeSystem/v3-ObservationInterpretation",
                "display": "High"
              }
            ]
          }
        ],
        "text": {
          "status": "generated",
          "div": "<div xmlns=\"http://www.w3.org/1999/xhtml\"><table class=\"hl7__eu__lab__report\"><tr><th>Test</th><th>07-Jul-2025</th><th>Reference&#xA0;Range</th><th>Unit</th></tr><tr><td>Creatinine [Mass/volume] in Blood</td><td>3.1</td><td>0.9 - 1.3</td><td>H</td><td>mg/dL</td></tr></table></div>"
        },
        "status": "final",
        "subject": {
          "reference": "urn:uuid:49ce65c8-1bba-49a6-a58b-33caef8a5880",
          "display": "Victor Lagarde"
        },
        "effectiveDateTime": "2025-07-07T07:04:18Z",
        "specimen": {
          "reference": "urn:uuid:781fccd7-e6b7-484e-889d-6624027fe638"
        }
      }
    },
    {
      "fullUrl": "urn:uuid:c6e0afb3-2d89-4f4a-a55c-410c70442aa6",
      "resource": {
        "resourceType": "Observation",
        "id": "c6e0afb3-2d89-4f4a-a55c-410c70442aa6",
        "meta": {
          "profile": [
            "http://hl7.eu/fhir/laboratory/StructureDefinition/Observation-resultslab-eu-lab"
          ]
        },
        "performer": [
          {
            "display": "The Central European Lab"
          }
        ],
        "category": [
          {
            "coding": [
              {
                "system": "http://terminology.hl7.org/CodeSystem/observation-category",
                "code": "laboratory"
              }
            ]
          }
        ],
        "code": {
          "coding": [
            {
              "code": "49765-1",
              "system": "http://loinc.org",
              "display": "Calcium [Mass/volume] in Blood"
            }
          ],
          "text": "Calcium [Mass/volume] in Blood"
        },
        "valueQuantity": {
          "system": "http://unitsofmeasure.org",
          "value": 9.2,
          "unit": "mg/dL",
          "code": "mg/dL"
        },
        "referenceRange": [
          {
            "low": {
              "value": 8.5,
              "code": "mg/dL",
              "system": "http://unitsofmeasure.org"
            }
          },
          {
            "high": {
              "value": 10.5,
              "code": "mg/dL",
              "system": "http://unitsofmeasure.org"
            }
          }
        ],
        "text": {
          "status": "generated",
          "div": "<div xmlns=\"http://www.w3.org/1999/xhtml\"><table class=\"hl7__eu__lab__report\"><tr><th>Test</th><th>07-Jul-2025</th><th>Reference&#xA0;Range</th><th>Unit</th></tr><tr><td>Calcium [Mass/volume] in Blood</td><td>9.2</td><td>8.5 - 10.5</td><td></td><td>mg/dL</td></tr></table></div>"
        },
        "status": "final",
        "subject": {
          "reference": "urn:uuid:49ce65c8-1bba-49a6-a58b-33caef8a5880",
          "display": "Victor Lagarde"
        },
        "effectiveDateTime": "2025-07-07T07:04:18Z",
        "specimen": {
          "reference": "urn:uuid:781fccd7-e6b7-484e-889d-6624027fe638"
        }
      }
    },
    {
      "fullUrl": "urn:uuid:f5694738-1c14-4166-a469-eaae40cb6896",
      "resource": {
        "resourceType": "Observation",
        "id": "f5694738-1c14-4166-a469-eaae40cb6896",
        "meta": {
          "profile": [
            "http://hl7.eu/fhir/laboratory/StructureDefinition/Observation-resultslab-eu-lab"
          ]
        },
        "performer": [
          {
            "display": "The Central European Lab"
          }
        ],
        "category": [
          {
            "coding": [
              {
                "system": "http://terminology.hl7.org/CodeSystem/observation-category",
                "code": "laboratory"
              }
            ]
          }
        ],
        "code": {
          "coding": [
            {
              "code": "2947-0",
              "system": "http://loinc.org",
              "display": "Sodium [Moles/volume] in Blood"
            }
          ],
          "text": "Sodium [Moles/volume] in Blood"
        },
        "valueQuantity": {
          "system": "http://unitsofmeasure.org",
          "value": 137.8,
          "unit": "mmol/L",
          "code": "mmol/L"
        },
        "referenceRange": [
          {
            "low": {
              "value": 135,
              "code": "mmol/L",
              "system": "http://unitsofmeasure.org"
            }
          },
          {
            "high": {
              "value": 145,
              "code": "mmol/L",
              "system": "http://unitsofmeasure.org"
            }
          }
        ],
        "text": {
          "status": "generated",
          "div": "<div xmlns=\"http://www.w3.org/1999/xhtml\"><table class=\"hl7__eu__lab__report\"><tr><th>Test</th><th>07-Jul-2025</th><th>Reference&#xA0;Range</th><th>Unit</th></tr><tr><td>Sodium [Moles/volume] in Blood</td><td>137.8</td><td>135 - 145</td><td></td><td>mmol/L</td></tr></table></div>"
        },
        "status": "final",
        "subject": {
          "reference": "urn:uuid:49ce65c8-1bba-49a6-a58b-33caef8a5880",
          "display": "Victor Lagarde"
        },
        "effectiveDateTime": "2025-07-07T07:04:18Z",
        "specimen": {
          "reference": "urn:uuid:781fccd7-e6b7-484e-889d-6624027fe638"
        }
      }
    },
    {
      "fullUrl": "urn:uuid:c4c0fc7e-6227-49b8-bf23-299b74751f61",
      "resource": {
        "resourceType": "Observation",
        "id": "c4c0fc7e-6227-49b8-bf23-299b74751f61",
        "meta": {
          "profile": [
            "http://hl7.eu/fhir/laboratory/StructureDefinition/Observation-resultslab-eu-lab"
          ]
        },
        "performer": [
          {
            "display": "The Central European Lab"
          }
        ],
        "category": [
          {
            "coding": [
              {
                "system": "http://terminology.hl7.org/CodeSystem/observation-category",
                "code": "laboratory"
              }
            ]
          }
        ],
        "code": {
          "coding": [
            {
              "code": "6298-4",
              "system": "http://loinc.org",
              "display": "Potassium [Moles/volume] in Blood"
            }
          ],
          "text": "Potassium [Moles/volume] in Blood"
        },
        "valueQuantity": {
          "system": "http://unitsofmeasure.org",
          "value": 4.8,
          "unit": "mmol/L",
          "code": "mmol/L"
        },
        "referenceRange": [
          {
            "low": {
              "value": 3.5,
              "code": "mmol/L",
              "system": "http://unitsofmeasure.org"
            }
          },
          {
            "high": {
              "value": 5.1,
              "code": "mmol/L",
              "system": "http://unitsofmeasure.org"
            }
          }
        ],
        "text": {
          "status": "generated",
          "div": "<div xmlns=\"http://www.w3.org/1999/xhtml\"><table class=\"hl7__eu__lab__report\"><tr><th>Test</th><th>07-Jul-2025</th><th>Reference&#xA0;Range</th><th>Unit</th></tr><tr><td>Potassium [Moles/volume] in Blood</td><td>4.8</td><td>3.5 - 5.1</td><td></td><td>mmol/L</td></tr></table></div>"
        },
        "status": "final",
        "subject": {
          "reference": "urn:uuid:49ce65c8-1bba-49a6-a58b-33caef8a5880",
          "display": "Victor Lagarde"
        },
        "effectiveDateTime": "2025-07-07T07:04:18Z",
        "specimen": {
          "reference": "urn:uuid:781fccd7-e6b7-484e-889d-6624027fe638"
        }
      }
    },
    {
      "fullUrl": "urn:uuid:27904d9a-8fe1-49ce-92fc-0a3e0747948f",
      "resource": {
        "resourceType": "Observation",
        "id": "27904d9a-8fe1-49ce-92fc-0a3e0747948f",
        "meta": {
          "profile": [
            "http://hl7.eu/fhir/laboratory/StructureDefinition/Observation-resultslab-eu-lab"
          ]
        },
        "performer": [
          {
            "display": "The Central European Lab"
          }
        ],
        "category": [
          {
            "coding": [
              {
                "system": "http://terminology.hl7.org/CodeSystem/observation-category",
                "code": "laboratory"
              }
            ]
          }
        ],
        "code": {
          "coding": [
            {
              "code": "2069-3",
              "system": "http://loinc.org",
              "display": "Chloride [Moles/volume] in Blood"
            }
          ],
          "text": "Chloride [Moles/volume] in Blood"
        },
        "valueQuantity": {
          "system": "http://unitsofmeasure.org",
          "value": 108.5,
          "unit": "mmol/L",
          "code": "mmol/L"
        },
        "referenceRange": [
          {
            "low": {
              "value": 98,
              "code": "mmol/L",
              "system": "http://unitsofmeasure.org"
            }
          },
          {
            "high": {
              "value": 108,
              "code": "mmol/L",
              "system": "http://unitsofmeasure.org"
            }
          }
        ],
        "interpretation": [
          {
            "coding": [
              {
                "code": "H",
                "system": "http://terminology.hl7.org/CodeSystem/v3-ObservationInterpretation",
                "display": "High"
              }
            ]
          }
        ],
        "text": {
          "status": "generated",
          "div": "<div xmlns=\"http://www.w3.org/1999/xhtml\"><table class=\"hl7__eu__lab__report\"><tr><th>Test</th><th>07-Jul-2025</th><th>Reference&#xA0;Range</th><th>Unit</th></tr><tr><td>Chloride [Moles/volume] in Blood</td><td>108.5</td><td>98 - 108</td><td>H</td><td>mmol/L</td></tr></table></div>"
        },
        "status": "final",
        "subject": {
          "reference": "urn:uuid:49ce65c8-1bba-49a6-a58b-33caef8a5880",
          "display": "Victor Lagarde"
        },
        "effectiveDateTime": "2025-07-07T07:04:18Z",
        "specimen": {
          "reference": "urn:uuid:781fccd7-e6b7-484e-889d-6624027fe638"
        }
      }
    },
    {
      "fullUrl": "urn:uuid:a53b9dfa-41c7-42f7-aa63-253d262fe4ea",
      "resource": {
        "resourceType": "Observation",
        "id": "a53b9dfa-41c7-42f7-aa63-253d262fe4ea",
        "meta": {
          "profile": [
            "http://hl7.eu/fhir/laboratory/StructureDefinition/Observation-resultslab-eu-lab"
          ]
        },
        "performer": [
          {
            "display": "The Central European Lab"
          }
        ],
        "category": [
          {
            "coding": [
              {
                "system": "http://terminology.hl7.org/CodeSystem/observation-category",
                "code": "laboratory"
              }
            ]
          }
        ],
        "code": {
          "coding": [
            {
              "code": "20565-8",
              "system": "http://loinc.org",
              "display": "Carbon dioxide, total [Moles/volume] in Blood"
            }
          ],
          "text": "Carbon dioxide, total [Moles/volume] in Blood"
        },
        "valueQuantity": {
          "system": "http://unitsofmeasure.org",
          "value": 25.7,
          "unit": "mmol/L",
          "code": "mmol/L"
        },
        "referenceRange": [
          {
            "low": {
              "value": 22,
              "code": "mmol/L",
              "system": "http://unitsofmeasure.org"
            }
          },
          {
            "high": {
              "value": 29,
              "code": "mmol/L",
              "system": "http://unitsofmeasure.org"
            }
          }
        ],
        "text": {
          "status": "generated",
          "div": "<div xmlns=\"http://www.w3.org/1999/xhtml\"><table class=\"hl7__eu__lab__report\"><tr><th>Test</th><th>07-Jul-2025</th><th>Reference&#xA0;Range</th><th>Unit</th></tr><tr><td>Carbon dioxide, total [Moles/volume] in Blood</td><td>25.7</td><td>22 - 29</td><td></td><td>mmol/L</td></tr></table></div>"
        },
        "status": "final",
        "subject": {
          "reference": "urn:uuid:49ce65c8-1bba-49a6-a58b-33caef8a5880",
          "display": "Victor Lagarde"
        },
        "effectiveDateTime": "2025-07-07T07:04:18Z",
        "specimen": {
          "reference": "urn:uuid:781fccd7-e6b7-484e-889d-6624027fe638"
        }
      }
    },
    {
      "fullUrl": "urn:uuid:94ed323a-7cd9-4f72-ad84-1900a8d33b0c",
      "resource": {
        "resourceType": "Observation",
        "id": "94ed323a-7cd9-4f72-ad84-1900a8d33b0c",
        "meta": {
          "profile": [
            "http://hl7.eu/fhir/laboratory/StructureDefinition/Observation-resultslab-eu-lab"
          ]
        },
        "performer": [
          {
            "display": "The Central European Lab"
          }
        ],
        "category": [
          {
            "coding": [
              {
                "system": "http://terminology.hl7.org/CodeSystem/observation-category",
                "code": "laboratory"
              }
            ]
          }
        ],
        "code": {
          "coding": [
            {
              "code": "2885-2",
              "system": "http://loinc.org",
              "display": "Protein [Mass/volume] in Serum or Plasma"
            }
          ],
          "text": "Protein [Mass/volume] in Serum or Plasma"
        },
        "valueQuantity": {
          "system": "http://unitsofmeasure.org",
          "value": 6.6,
          "unit": "g/dL",
          "code": "g/dL"
        },
        "referenceRange": [
          {
            "low": {
              "value": 6,
              "code": "g/dL",
              "system": "http://unitsofmeasure.org"
            }
          },
          {
            "high": {
              "value": 8.3,
              "code": "g/dL",
              "system": "http://unitsofmeasure.org"
            }
          }
        ],
        "text": {
          "status": "generated",
          "div": "<div xmlns=\"http://www.w3.org/1999/xhtml\"><table class=\"hl7__eu__lab__report\"><tr><th>Test</th><th>07-Jul-2025</th><th>Reference&#xA0;Range</th><th>Unit</th></tr><tr><td>Protein [Mass/volume] in Serum or Plasma</td><td>6.6</td><td>6 - 8.3</td><td></td><td>g/dL</td></tr></table></div>"
        },
        "status": "final",
        "subject": {
          "reference": "urn:uuid:49ce65c8-1bba-49a6-a58b-33caef8a5880",
          "display": "Victor Lagarde"
        },
        "effectiveDateTime": "2025-07-07T07:04:18Z",
        "specimen": {
          "reference": "urn:uuid:6638fbaa-6191-49bb-96ae-456d75e7ae5f"
        }
      }
    },
    {
      "fullUrl": "urn:uuid:a8bf11c6-2cd7-4581-a8bd-b080398765c6",
      "resource": {
        "resourceType": "Observation",
        "id": "a8bf11c6-2cd7-4581-a8bd-b080398765c6",
        "meta": {
          "profile": [
            "http://hl7.eu/fhir/laboratory/StructureDefinition/Observation-resultslab-eu-lab"
          ]
        },
        "performer": [
          {
            "display": "The Central European Lab"
          }
        ],
        "category": [
          {
            "coding": [
              {
                "system": "http://terminology.hl7.org/CodeSystem/observation-category",
                "code": "laboratory"
              }
            ]
          }
        ],
        "code": {
          "coding": [
            {
              "code": "1751-7",
              "system": "http://loinc.org",
              "display": "Albumin [Mass/volume] in Serum or Plasma"
            }
          ],
          "text": "Albumin [Mass/volume] in Serum or Plasma"
        },
        "valueQuantity": {
          "system": "http://unitsofmeasure.org",
          "value": 4.5,
          "unit": "g/dL",
          "code": "g/dL"
        },
        "referenceRange": [
          {
            "low": {
              "value": 3.5,
              "code": "g/dL",
              "system": "http://unitsofmeasure.org"
            }
          },
          {
            "high": {
              "value": 5.5,
              "code": "g/dL",
              "system": "http://unitsofmeasure.org"
            }
          }
        ],
        "text": {
          "status": "generated",
          "div": "<div xmlns=\"http://www.w3.org/1999/xhtml\"><table class=\"hl7__eu__lab__report\"><tr><th>Test</th><th>07-Jul-2025</th><th>Reference&#xA0;Range</th><th>Unit</th></tr><tr><td>Albumin [Mass/volume] in Serum or Plasma</td><td>4.5</td><td>3.5 - 5.5</td><td></td><td>g/dL</td></tr></table></div>"
        },
        "status": "final",
        "subject": {
          "reference": "urn:uuid:49ce65c8-1bba-49a6-a58b-33caef8a5880",
          "display": "Victor Lagarde"
        },
        "effectiveDateTime": "2025-07-07T07:04:18Z",
        "specimen": {
          "reference": "urn:uuid:6638fbaa-6191-49bb-96ae-456d75e7ae5f"
        }
      }
    },
    {
      "fullUrl": "urn:uuid:8960cff7-930d-4e11-9928-e88848a9f7d5",
      "resource": {
        "resourceType": "Observation",
        "id": "8960cff7-930d-4e11-9928-e88848a9f7d5",
        "meta": {
          "profile": [
            "http://hl7.eu/fhir/laboratory/StructureDefinition/Observation-resultslab-eu-lab"
          ]
        },
        "performer": [
          {
            "display": "The Central European Lab"
          }
        ],
        "category": [
          {
            "coding": [
              {
                "system": "http://terminology.hl7.org/CodeSystem/observation-category",
                "code": "laboratory"
              }
            ]
          }
        ],
        "code": {
          "coding": [
            {
              "code": "10834-0",
              "system": "http://loinc.org",
              "display": "Globulin [Mass/volume] in Serum by calculation"
            }
          ],
          "text": "Globulin [Mass/volume] in Serum by calculation"
        },
        "valueQuantity": {
          "system": "http://unitsofmeasure.org",
          "value": 2.3,
          "unit": "g/L",
          "code": "g/L"
        },
        "referenceRange": [
          {
            "low": {
              "value": 2,
              "code": "g/L",
              "system": "http://unitsofmeasure.org"
            }
          },
          {
            "high": {
              "value": 3.5,
              "code": "g/L",
              "system": "http://unitsofmeasure.org"
            }
          }
        ],
        "text": {
          "status": "generated",
          "div": "<div xmlns=\"http://www.w3.org/1999/xhtml\"><table class=\"hl7__eu__lab__report\"><tr><th>Test</th><th>07-Jul-2025</th><th>Reference&#xA0;Range</th><th>Unit</th></tr><tr><td>Globulin [Mass/volume] in Serum by calculation</td><td>2.3</td><td>2 - 3.5</td><td></td><td>g/L</td></tr></table></div>"
        },
        "status": "final",
        "subject": {
          "reference": "urn:uuid:49ce65c8-1bba-49a6-a58b-33caef8a5880",
          "display": "Victor Lagarde"
        },
        "effectiveDateTime": "2025-07-07T07:04:18Z",
        "specimen": {
          "reference": "urn:uuid:461ee026-0aed-48fd-a36f-93595d7274bb"
        }
      }
    },
    {
      "fullUrl": "urn:uuid:6810b750-4f6e-48df-9091-bc0ea75334fc",
      "resource": {
        "resourceType": "Observation",
        "id": "6810b750-4f6e-48df-9091-bc0ea75334fc",
        "meta": {
          "profile": [
            "http://hl7.eu/fhir/laboratory/StructureDefinition/Observation-resultslab-eu-lab"
          ]
        },
        "performer": [
          {
            "display": "The Central European Lab"
          }
        ],
        "category": [
          {
            "coding": [
              {
                "system": "http://terminology.hl7.org/CodeSystem/observation-category",
                "code": "laboratory"
              }
            ]
          }
        ],
        "code": {
          "coding": [
            {
              "code": "1975-2",
              "system": "http://loinc.org",
              "display": "Bilirubin.total [Mass/volume] in Serum or Plasma"
            }
          ],
          "text": "Bilirubin.total [Mass/volume] in Serum or Plasma"
        },
        "valueQuantity": {
          "system": "http://unitsofmeasure.org",
          "value": 0.5,
          "unit": "mg/dL",
          "code": "mg/dL"
        },
        "referenceRange": [
          {
            "low": {
              "value": 0.3,
              "code": "mg/dL",
              "system": "http://unitsofmeasure.org"
            }
          },
          {
            "high": {
              "value": 1.2,
              "code": "mg/dL",
              "system": "http://unitsofmeasure.org"
            }
          }
        ],
        "text": {
          "status": "generated",
          "div": "<div xmlns=\"http://www.w3.org/1999/xhtml\"><table class=\"hl7__eu__lab__report\"><tr><th>Test</th><th>07-Jul-2025</th><th>Reference&#xA0;Range</th><th>Unit</th></tr><tr><td>Bilirubin.total [Mass/volume] in Serum or Plasma</td><td>0.5</td><td>0.3 - 1.2</td><td></td><td>mg/dL</td></tr></table></div>"
        },
        "status": "final",
        "subject": {
          "reference": "urn:uuid:49ce65c8-1bba-49a6-a58b-33caef8a5880",
          "display": "Victor Lagarde"
        },
        "effectiveDateTime": "2025-07-07T07:04:18Z",
        "specimen": {
          "reference": "urn:uuid:6638fbaa-6191-49bb-96ae-456d75e7ae5f"
        }
      }
    },
    {
      "fullUrl": "urn:uuid:ce7029d8-862b-4f17-8958-82a7cfd7d382",
      "resource": {
        "resourceType": "Observation",
        "id": "ce7029d8-862b-4f17-8958-82a7cfd7d382",
        "meta": {
          "profile": [
            "http://hl7.eu/fhir/laboratory/StructureDefinition/Observation-resultslab-eu-lab"
          ]
        },
        "performer": [
          {
            "display": "The Central European Lab"
          }
        ],
        "category": [
          {
            "coding": [
              {
                "system": "http://terminology.hl7.org/CodeSystem/observation-category",
                "code": "laboratory"
              }
            ]
          }
        ],
        "code": {
          "coding": [
            {
              "code": "6768-6",
              "system": "http://loinc.org",
              "display": "Alkaline phosphatase [Enzymatic activity/volume] in Serum or Plasma"
            }
          ],
          "text": "Alkaline phosphatase [Enzymatic activity/volume] in Serum or Plasma"
        },
        "valueQuantity": {
          "system": "http://unitsofmeasure.org",
          "value": 24.4,
          "unit": "U/L",
          "code": "U/L"
        },
        "referenceRange": [
          {
            "low": {
              "value": 39,
              "code": "U/L",
              "system": "http://unitsofmeasure.org"
            }
          },
          {
            "high": {
              "value": 147,
              "code": "U/L",
              "system": "http://unitsofmeasure.org"
            }
          }
        ],
        "interpretation": [
          {
            "coding": [
              {
                "code": "L",
                "system": "http://terminology.hl7.org/CodeSystem/v3-ObservationInterpretation",
                "display": "Low"
              }
            ]
          }
        ],
        "text": {
          "status": "generated",
          "div": "<div xmlns=\"http://www.w3.org/1999/xhtml\"><table class=\"hl7__eu__lab__report\"><tr><th>Test</th><th>07-Jul-2025</th><th>Reference&#xA0;Range</th><th>Unit</th></tr><tr><td>Alkaline phosphatase [Enzymatic activity/volume] in Serum or Plasma</td><td>24.4</td><td>39 - 147</td><td>L</td><td>U/L</td></tr></table></div>"
        },
        "status": "final",
        "subject": {
          "reference": "urn:uuid:49ce65c8-1bba-49a6-a58b-33caef8a5880",
          "display": "Victor Lagarde"
        },
        "effectiveDateTime": "2025-07-07T07:04:18Z",
        "specimen": {
          "reference": "urn:uuid:6638fbaa-6191-49bb-96ae-456d75e7ae5f"
        }
      }
    },
    {
      "fullUrl": "urn:uuid:6d3c8821-4503-4445-b8ec-8e541555d021",
      "resource": {
        "resourceType": "Observation",
        "id": "6d3c8821-4503-4445-b8ec-8e541555d021",
        "meta": {
          "profile": [
            "http://hl7.eu/fhir/laboratory/StructureDefinition/Observation-resultslab-eu-lab"
          ]
        },
        "performer": [
          {
            "display": "The Central European Lab"
          }
        ],
        "category": [
          {
            "coding": [
              {
                "system": "http://terminology.hl7.org/CodeSystem/observation-category",
                "code": "laboratory"
              }
            ]
          }
        ],
        "code": {
          "coding": [
            {
              "code": "1742-6",
              "system": "http://loinc.org",
              "display": "Alanine aminotransferase [Enzymatic activity/volume] in Serum or Plasma"
            }
          ],
          "text": "Alanine aminotransferase [Enzymatic activity/volume] in Serum or Plasma"
        },
        "valueQuantity": {
          "system": "http://unitsofmeasure.org",
          "value": 59,
          "unit": "U/L",
          "code": "U/L"
        },
        "referenceRange": [
          {
            "low": {
              "value": 10,
              "code": "U/L",
              "system": "http://unitsofmeasure.org"
            }
          },
          {
            "high": {
              "value": 63,
              "code": "U/L",
              "system": "http://unitsofmeasure.org"
            }
          }
        ],
        "text": {
          "status": "generated",
          "div": "<div xmlns=\"http://www.w3.org/1999/xhtml\"><table class=\"hl7__eu__lab__report\"><tr><th>Test</th><th>07-Jul-2025</th><th>Reference&#xA0;Range</th><th>Unit</th></tr><tr><td>Alanine aminotransferase [Enzymatic activity/volume] in Serum or Plasma</td><td>59.0</td><td>10 - 63</td><td></td><td>U/L</td></tr></table></div>"
        },
        "status": "final",
        "subject": {
          "reference": "urn:uuid:49ce65c8-1bba-49a6-a58b-33caef8a5880",
          "display": "Victor Lagarde"
        },
        "effectiveDateTime": "2025-07-07T07:04:18Z",
        "specimen": {
          "reference": "urn:uuid:6638fbaa-6191-49bb-96ae-456d75e7ae5f"
        }
      }
    },
    {
      "fullUrl": "urn:uuid:5b2356d8-dd9b-459a-a72e-27320620bedb",
      "resource": {
        "resourceType": "Observation",
        "id": "5b2356d8-dd9b-459a-a72e-27320620bedb",
        "meta": {
          "profile": [
            "http://hl7.eu/fhir/laboratory/StructureDefinition/Observation-resultslab-eu-lab"
          ]
        },
        "performer": [
          {
            "display": "The Central European Lab"
          }
        ],
        "category": [
          {
            "coding": [
              {
                "system": "http://terminology.hl7.org/CodeSystem/observation-category",
                "code": "laboratory"
              }
            ]
          }
        ],
        "code": {
          "coding": [
            {
              "code": "1920-8",
              "system": "http://loinc.org",
              "display": "Aspartate aminotransferase [Enzymatic activity/volume] in Serum or Plasma"
            }
          ],
          "text": "Aspartate aminotransferase [Enzymatic activity/volume] in Serum or Plasma"
        },
        "valueQuantity": {
          "system": "http://unitsofmeasure.org",
          "value": 32.5,
          "unit": "U/L",
          "code": "U/L"
        },
        "referenceRange": [
          {
            "low": {
              "value": 10,
              "code": "U/L",
              "system": "http://unitsofmeasure.org"
            }
          },
          {
            "high": {
              "value": 40,
              "code": "U/L",
              "system": "http://unitsofmeasure.org"
            }
          }
        ],
        "text": {
          "status": "generated",
          "div": "<div xmlns=\"http://www.w3.org/1999/xhtml\"><table class=\"hl7__eu__lab__report\"><tr><th>Test</th><th>07-Jul-2025</th><th>Reference&#xA0;Range</th><th>Unit</th></tr><tr><td>Aspartate aminotransferase [Enzymatic activity/volume] in Serum or Plasma</td><td>32.5</td><td>10 - 40</td><td></td><td>U/L</td></tr></table></div>"
        },
        "status": "final",
        "subject": {
          "reference": "urn:uuid:49ce65c8-1bba-49a6-a58b-33caef8a5880",
          "display": "Victor Lagarde"
        },
        "effectiveDateTime": "2025-07-07T07:04:18Z",
        "specimen": {
          "reference": "urn:uuid:6638fbaa-6191-49bb-96ae-456d75e7ae5f"
        }
      }
    },
    {
      "fullUrl": "urn:uuid:ab1e2a61-7027-4849-a109-5062cc32d061",
      "resource": {
        "resourceType": "Observation",
        "id": "ab1e2a61-7027-4849-a109-5062cc32d061",
        "meta": {
          "profile": [
            "http://hl7.eu/fhir/laboratory/StructureDefinition/Observation-resultslab-eu-lab"
          ]
        },
        "performer": [
          {
            "display": "The Central European Lab"
          }
        ],
        "category": [
          {
            "coding": [
              {
                "system": "http://terminology.hl7.org/CodeSystem/observation-category",
                "code": "laboratory"
              }
            ]
          }
        ],
        "code": {
          "coding": [
            {
              "code": "5767-9",
              "system": "http://loinc.org",
              "display": "Appearance of Urine"
            }
          ],
          "text": "Appearance of Urine"
        },
        "text": {
          "status": "generated",
          "div": "<div xmlns=\"http://www.w3.org/1999/xhtml\"><table class=\"hl7__eu__lab__report\"><tr><th>Test</th><th>07-Jul-2025</th><th>Reference&#xA0;Range</th><th>Unit</th></tr><tr><td>Appearance of Urine</td></tr></table></div>"
        },
        "status": "final",
        "subject": {
          "reference": "urn:uuid:49ce65c8-1bba-49a6-a58b-33caef8a5880",
          "display": "Victor Lagarde"
        },
        "effectiveDateTime": "2025-07-07T07:04:18Z",
        "specimen": {
          "reference": "urn:uuid:54b91a9c-5936-4349-bad3-03bc2176403b"
        }
      }
    },
    {
      "fullUrl": "urn:uuid:9c2d2f5e-3673-475f-a6e2-314d62a5ea05",
      "resource": {
        "resourceType": "Observation",
        "id": "9c2d2f5e-3673-475f-a6e2-314d62a5ea05",
        "meta": {
          "profile": [
            "http://hl7.eu/fhir/laboratory/StructureDefinition/Observation-resultslab-eu-lab"
          ]
        },
        "performer": [
          {
            "display": "The Central European Lab"
          }
        ],
        "category": [
          {
            "coding": [
              {
                "system": "http://terminology.hl7.org/CodeSystem/observation-category",
                "code": "laboratory"
              }
            ]
          }
        ],
        "code": {
          "coding": [
            {
              "code": "34533-0",
              "system": "http://loinc.org",
              "display": "Odor of Urine"
            }
          ],
          "text": "Odor of Urine"
        },
        "text": {
          "status": "generated",
          "div": "<div xmlns=\"http://www.w3.org/1999/xhtml\"><table class=\"hl7__eu__lab__report\"><tr><th>Test</th><th>07-Jul-2025</th><th>Reference&#xA0;Range</th><th>Unit</th></tr><tr><td>Odor of Urine</td></tr></table></div>"
        },
        "status": "final",
        "subject": {
          "reference": "urn:uuid:49ce65c8-1bba-49a6-a58b-33caef8a5880",
          "display": "Victor Lagarde"
        },
        "effectiveDateTime": "2025-07-07T07:04:18Z",
        "specimen": {
          "reference": "urn:uuid:54b91a9c-5936-4349-bad3-03bc2176403b"
        }
      }
    },
    {
      "fullUrl": "urn:uuid:e67ac0bc-707b-43ec-85d8-3bb18a8955c5",
      "resource": {
        "resourceType": "Observation",
        "id": "e67ac0bc-707b-43ec-85d8-3bb18a8955c5",
        "meta": {
          "profile": [
            "http://hl7.eu/fhir/laboratory/StructureDefinition/Observation-resultslab-eu-lab"
          ]
        },
        "performer": [
          {
            "display": "The Central European Lab"
          }
        ],
        "category": [
          {
            "coding": [
              {
                "system": "http://terminology.hl7.org/CodeSystem/observation-category",
                "code": "laboratory"
              }
            ]
          }
        ],
        "code": {
          "coding": [
            {
              "code": "32167-9",
              "system": "http://loinc.org",
              "display": "Clarity of Urine"
            }
          ],
          "text": "Clarity of Urine"
        },
        "text": {
          "status": "generated",
          "div": "<div xmlns=\"http://www.w3.org/1999/xhtml\"><table class=\"hl7__eu__lab__report\"><tr><th>Test</th><th>07-Jul-2025</th><th>Reference&#xA0;Range</th><th>Unit</th></tr><tr><td>Clarity of Urine</td></tr></table></div>"
        },
        "status": "final",
        "subject": {
          "reference": "urn:uuid:49ce65c8-1bba-49a6-a58b-33caef8a5880",
          "display": "Victor Lagarde"
        },
        "effectiveDateTime": "2025-07-07T07:04:18Z",
        "specimen": {
          "reference": "urn:uuid:54b91a9c-5936-4349-bad3-03bc2176403b"
        }
      }
    },
    {
      "fullUrl": "urn:uuid:d8db7896-b9fb-45c3-9ed1-6e573a1a9b66",
      "resource": {
        "resourceType": "Observation",
        "id": "d8db7896-b9fb-45c3-9ed1-6e573a1a9b66",
        "meta": {
          "profile": [
            "http://hl7.eu/fhir/laboratory/StructureDefinition/Observation-resultslab-eu-lab"
          ]
        },
        "performer": [
          {
            "display": "The Central European Lab"
          }
        ],
        "category": [
          {
            "coding": [
              {
                "system": "http://terminology.hl7.org/CodeSystem/observation-category",
                "code": "laboratory"
              }
            ]
          }
        ],
        "code": {
          "coding": [
            {
              "code": "5778-6",
              "system": "http://loinc.org",
              "display": "Color of Urine"
            }
          ],
          "text": "Color of Urine"
        },
        "text": {
          "status": "generated",
          "div": "<div xmlns=\"http://www.w3.org/1999/xhtml\"><table class=\"hl7__eu__lab__report\"><tr><th>Test</th><th>07-Jul-2025</th><th>Reference&#xA0;Range</th><th>Unit</th></tr><tr><td>Color of Urine</td></tr></table></div>"
        },
        "status": "final",
        "subject": {
          "reference": "urn:uuid:49ce65c8-1bba-49a6-a58b-33caef8a5880",
          "display": "Victor Lagarde"
        },
        "effectiveDateTime": "2025-07-07T07:04:18Z",
        "specimen": {
          "reference": "urn:uuid:54b91a9c-5936-4349-bad3-03bc2176403b"
        }
      }
    },
    {
      "fullUrl": "urn:uuid:e488d495-2e8d-4b31-b3bc-e96ac215f4ad",
      "resource": {
        "resourceType": "Observation",
        "id": "e488d495-2e8d-4b31-b3bc-e96ac215f4ad",
        "meta": {
          "profile": [
            "http://hl7.eu/fhir/laboratory/StructureDefinition/Observation-resultslab-eu-lab"
          ]
        },
        "performer": [
          {
            "display": "The Central European Lab"
          }
        ],
        "category": [
          {
            "coding": [
              {
                "system": "http://terminology.hl7.org/CodeSystem/observation-category",
                "code": "laboratory"
              }
            ]
          }
        ],
        "code": {
          "coding": [
            {
              "code": "5792-7",
              "system": "http://loinc.org",
              "display": "Glucose [Mass/volume] in Urine by Test strip"
            }
          ],
          "text": "Glucose [Mass/volume] in Urine by Test strip"
        },
        "valueQuantity": {
          "system": "http://unitsofmeasure.org",
          "value": 0.6,
          "unit": "mg/dL",
          "code": "mg/dL"
        },
        "referenceRange": [
          {
            "low": {
              "value": 0,
              "code": "mg/dL",
              "system": "http://unitsofmeasure.org"
            }
          },
          {
            "high": {
              "value": 0.8,
              "code": "mg/dL",
              "system": "http://unitsofmeasure.org"
            }
          }
        ],
        "text": {
          "status": "generated",
          "div": "<div xmlns=\"http://www.w3.org/1999/xhtml\"><table class=\"hl7__eu__lab__report\"><tr><th>Test</th><th>07-Jul-2025</th><th>Reference&#xA0;Range</th><th>Unit</th></tr><tr><td>Glucose [Mass/volume] in Urine by Test strip</td><td>0.6</td><td>0 - 0.8</td><td></td><td>mg/dL</td></tr></table></div>"
        },
        "status": "final",
        "subject": {
          "reference": "urn:uuid:49ce65c8-1bba-49a6-a58b-33caef8a5880",
          "display": "Victor Lagarde"
        },
        "effectiveDateTime": "2025-07-07T07:04:18Z",
        "specimen": {
          "reference": "urn:uuid:54b91a9c-5936-4349-bad3-03bc2176403b"
        }
      }
    },
    {
      "fullUrl": "urn:uuid:b186b4ee-1c4e-4fd7-8259-81b36e939a54",
      "resource": {
        "resourceType": "Observation",
        "id": "b186b4ee-1c4e-4fd7-8259-81b36e939a54",
        "meta": {
          "profile": [
            "http://hl7.eu/fhir/laboratory/StructureDefinition/Observation-resultslab-eu-lab"
          ]
        },
        "performer": [
          {
            "display": "The Central European Lab"
          }
        ],
        "category": [
          {
            "coding": [
              {
                "system": "http://terminology.hl7.org/CodeSystem/observation-category",
                "code": "laboratory"
              }
            ]
          }
        ],
        "code": {
          "coding": [
            {
              "code": "25428-4",
              "system": "http://loinc.org",
              "display": "Glucose [Presence] in Urine by Test strip"
            }
          ],
          "text": "Glucose [Presence] in Urine by Test strip"
        },
        "text": {
          "status": "generated",
          "div": "<div xmlns=\"http://www.w3.org/1999/xhtml\"><table class=\"hl7__eu__lab__report\"><tr><th>Test</th><th>07-Jul-2025</th><th>Reference&#xA0;Range</th><th>Unit</th></tr><tr><td>Glucose [Presence] in Urine by Test strip</td></tr></table></div>"
        },
        "status": "final",
        "subject": {
          "reference": "urn:uuid:49ce65c8-1bba-49a6-a58b-33caef8a5880",
          "display": "Victor Lagarde"
        },
        "effectiveDateTime": "2025-07-07T07:04:18Z",
        "specimen": {
          "reference": "urn:uuid:54b91a9c-5936-4349-bad3-03bc2176403b"
        }
      }
    },
    {
      "fullUrl": "urn:uuid:80722731-169d-46fa-8b01-8876923947a1",
      "resource": {
        "resourceType": "Observation",
        "id": "80722731-169d-46fa-8b01-8876923947a1",
        "meta": {
          "profile": [
            "http://hl7.eu/fhir/laboratory/StructureDefinition/Observation-resultslab-eu-lab"
          ]
        },
        "performer": [
          {
            "display": "The Central European Lab"
          }
        ],
        "category": [
          {
            "coding": [
              {
                "system": "http://terminology.hl7.org/CodeSystem/observation-category",
                "code": "laboratory"
              }
            ]
          }
        ],
        "code": {
          "coding": [
            {
              "code": "20505-4",
              "system": "http://loinc.org",
              "display": "Bilirubin.total [Mass/volume] in Urine by Test strip"
            }
          ],
          "text": "Bilirubin.total [Mass/volume] in Urine by Test strip"
        },
        "valueQuantity": {
          "system": "http://unitsofmeasure.org",
          "value": 0.9,
          "unit": "mg/dL",
          "code": "mg/dL"
        },
        "referenceRange": [
          {
            "low": {
              "value": 0,
              "code": "mg/dL",
              "system": "http://unitsofmeasure.org"
            }
          },
          {
            "high": {
              "value": 1.9,
              "code": "mg/dL",
              "system": "http://unitsofmeasure.org"
            }
          }
        ],
        "text": {
          "status": "generated",
          "div": "<div xmlns=\"http://www.w3.org/1999/xhtml\"><table class=\"hl7__eu__lab__report\"><tr><th>Test</th><th>07-Jul-2025</th><th>Reference&#xA0;Range</th><th>Unit</th></tr><tr><td>Bilirubin.total [Mass/volume] in Urine by Test strip</td><td>0.9</td><td>0 - 1.9</td><td></td><td>mg/dL</td></tr></table></div>"
        },
        "status": "final",
        "subject": {
          "reference": "urn:uuid:49ce65c8-1bba-49a6-a58b-33caef8a5880",
          "display": "Victor Lagarde"
        },
        "effectiveDateTime": "2025-07-07T07:04:18Z",
        "specimen": {
          "reference": "urn:uuid:54b91a9c-5936-4349-bad3-03bc2176403b"
        }
      }
    },
    {
      "fullUrl": "urn:uuid:53f5331f-768f-4917-a783-a79b7a16e8e9",
      "resource": {
        "resourceType": "Observation",
        "id": "53f5331f-768f-4917-a783-a79b7a16e8e9",
        "meta": {
          "profile": [
            "http://hl7.eu/fhir/laboratory/StructureDefinition/Observation-resultslab-eu-lab"
          ]
        },
        "performer": [
          {
            "display": "The Central European Lab"
          }
        ],
        "category": [
          {
            "coding": [
              {
                "system": "http://terminology.hl7.org/CodeSystem/observation-category",
                "code": "laboratory"
              }
            ]
          }
        ],
        "code": {
          "coding": [
            {
              "code": "5770-3",
              "system": "http://loinc.org",
              "display": "Bilirubin.total [Presence] in Urine by Test strip"
            }
          ],
          "text": "Bilirubin.total [Presence] in Urine by Test strip"
        },
        "text": {
          "status": "generated",
          "div": "<div xmlns=\"http://www.w3.org/1999/xhtml\"><table class=\"hl7__eu__lab__report\"><tr><th>Test</th><th>07-Jul-2025</th><th>Reference&#xA0;Range</th><th>Unit</th></tr><tr><td>Bilirubin.total [Presence] in Urine by Test strip</td></tr></table></div>"
        },
        "status": "final",
        "subject": {
          "reference": "urn:uuid:49ce65c8-1bba-49a6-a58b-33caef8a5880",
          "display": "Victor Lagarde"
        },
        "effectiveDateTime": "2025-07-07T07:04:18Z",
        "specimen": {
          "reference": "urn:uuid:54b91a9c-5936-4349-bad3-03bc2176403b"
        }
      }
    },
    {
      "fullUrl": "urn:uuid:de6a6023-02f4-4ad1-a1ff-bac78412b76a",
      "resource": {
        "resourceType": "Observation",
        "id": "de6a6023-02f4-4ad1-a1ff-bac78412b76a",
        "meta": {
          "profile": [
            "http://hl7.eu/fhir/laboratory/StructureDefinition/Observation-resultslab-eu-lab"
          ]
        },
        "performer": [
          {
            "display": "The Central European Lab"
          }
        ],
        "category": [
          {
            "coding": [
              {
                "system": "http://terminology.hl7.org/CodeSystem/observation-category",
                "code": "laboratory"
              }
            ]
          }
        ],
        "code": {
          "coding": [
            {
              "code": "5797-6",
              "system": "http://loinc.org",
              "display": "Ketones [Mass/volume] in Urine by Test strip"
            }
          ],
          "text": "Ketones [Mass/volume] in Urine by Test strip"
        },
        "valueQuantity": {
          "system": "http://unitsofmeasure.org",
          "value": 16.4,
          "unit": "mg/dL",
          "code": "mg/dL"
        },
        "referenceRange": [
          {
            "low": {
              "value": 0,
              "code": "mg/dL",
              "system": "http://unitsofmeasure.org"
            }
          },
          {
            "high": {
              "value": 3,
              "code": "mg/dL",
              "system": "http://unitsofmeasure.org"
            }
          }
        ],
        "interpretation": [
          {
            "coding": [
              {
                "code": "H",
                "system": "http://terminology.hl7.org/CodeSystem/v3-ObservationInterpretation",
                "display": "High"
              }
            ]
          }
        ],
        "text": {
          "status": "generated",
          "div": "<div xmlns=\"http://www.w3.org/1999/xhtml\"><table class=\"hl7__eu__lab__report\"><tr><th>Test</th><th>07-Jul-2025</th><th>Reference&#xA0;Range</th><th>Unit</th></tr><tr><td>Ketones [Mass/volume] in Urine by Test strip</td><td>16.4</td><td>0 - 3</td><td>H</td><td>mg/dL</td></tr></table></div>"
        },
        "status": "final",
        "subject": {
          "reference": "urn:uuid:49ce65c8-1bba-49a6-a58b-33caef8a5880",
          "display": "Victor Lagarde"
        },
        "effectiveDateTime": "2025-07-07T07:04:18Z",
        "specimen": {
          "reference": "urn:uuid:54b91a9c-5936-4349-bad3-03bc2176403b"
        }
      }
    },
    {
      "fullUrl": "urn:uuid:0a18bf3d-b251-457d-b806-9e647fa4642e",
      "resource": {
        "resourceType": "Observation",
        "id": "0a18bf3d-b251-457d-b806-9e647fa4642e",
        "meta": {
          "profile": [
            "http://hl7.eu/fhir/laboratory/StructureDefinition/Observation-resultslab-eu-lab"
          ]
        },
        "performer": [
          {
            "display": "The Central European Lab"
          }
        ],
        "category": [
          {
            "coding": [
              {
                "system": "http://terminology.hl7.org/CodeSystem/observation-category",
                "code": "laboratory"
              }
            ]
          }
        ],
        "code": {
          "coding": [
            {
              "code": "2514-8",
              "system": "http://loinc.org",
              "display": "Ketones [Presence] in Urine by Test strip"
            }
          ],
          "text": "Ketones [Presence] in Urine by Test strip"
        },
        "text": {
          "status": "generated",
          "div": "<div xmlns=\"http://www.w3.org/1999/xhtml\"><table class=\"hl7__eu__lab__report\"><tr><th>Test</th><th>07-Jul-2025</th><th>Reference&#xA0;Range</th><th>Unit</th></tr><tr><td>Ketones [Presence] in Urine by Test strip</td></tr></table></div>"
        },
        "status": "final",
        "subject": {
          "reference": "urn:uuid:49ce65c8-1bba-49a6-a58b-33caef8a5880",
          "display": "Victor Lagarde"
        },
        "effectiveDateTime": "2025-07-07T07:04:18Z",
        "specimen": {
          "reference": "urn:uuid:54b91a9c-5936-4349-bad3-03bc2176403b"
        }
      }
    },
    {
      "fullUrl": "urn:uuid:e11129cd-ccc4-4d88-8a7e-419163506166",
      "resource": {
        "resourceType": "Observation",
        "id": "e11129cd-ccc4-4d88-8a7e-419163506166",
        "meta": {
          "profile": [
            "http://hl7.eu/fhir/laboratory/StructureDefinition/Observation-resultslab-eu-lab"
          ]
        },
        "performer": [
          {
            "display": "The Central European Lab"
          }
        ],
        "category": [
          {
            "coding": [
              {
                "system": "http://terminology.hl7.org/CodeSystem/observation-category",
                "code": "laboratory"
              }
            ]
          }
        ],
        "code": {
          "coding": [
            {
              "code": "5811-5",
              "system": "http://loinc.org",
              "display": "Specific gravity of Urine by Test strip"
            }
          ],
          "text": "Specific gravity of Urine by Test strip"
        },
        "valueQuantity": {
          "system": "http://unitsofmeasure.org",
          "value": 1,
          "unit": "{nominal}",
          "code": "{nominal}"
        },
        "referenceRange": [
          {
            "low": {
              "value": 1.01,
              "code": "g/mL",
              "system": "http://unitsofmeasure.org"
            }
          },
          {
            "high": {
              "value": 1.03,
              "code": "g/mL",
              "system": "http://unitsofmeasure.org"
            }
          }
        ],
        "interpretation": [
          {
            "coding": [
              {
                "code": "L",
                "system": "http://terminology.hl7.org/CodeSystem/v3-ObservationInterpretation",
                "display": "Low"
              }
            ]
          }
        ],
        "text": {
          "status": "generated",
          "div": "<div xmlns=\"http://www.w3.org/1999/xhtml\"><table class=\"hl7__eu__lab__report\"><tr><th>Test</th><th>07-Jul-2025</th><th>Reference&#xA0;Range</th><th>Unit</th></tr><tr><td>Specific gravity of Urine by Test strip</td><td>1.0</td><td>1.01 - 1.03</td><td>L</td><td>{nominal}</td></tr></table></div>"
        },
        "status": "final",
        "subject": {
          "reference": "urn:uuid:49ce65c8-1bba-49a6-a58b-33caef8a5880",
          "display": "Victor Lagarde"
        },
        "effectiveDateTime": "2025-07-07T07:04:18Z",
        "specimen": {
          "reference": "urn:uuid:54b91a9c-5936-4349-bad3-03bc2176403b"
        }
      }
    },
    {
      "fullUrl": "urn:uuid:045b7554-0a17-402e-9e56-02350f10a31d",
      "resource": {
        "resourceType": "Observation",
        "id": "045b7554-0a17-402e-9e56-02350f10a31d",
        "meta": {
          "profile": [
            "http://hl7.eu/fhir/laboratory/StructureDefinition/Observation-resultslab-eu-lab"
          ]
        },
        "performer": [
          {
            "display": "The Central European Lab"
          }
        ],
        "category": [
          {
            "coding": [
              {
                "system": "http://terminology.hl7.org/CodeSystem/observation-category",
                "code": "laboratory"
              }
            ]
          }
        ],
        "code": {
          "coding": [
            {
              "code": "5803-2",
              "system": "http://loinc.org",
              "display": "pH of Urine by Test strip"
            }
          ],
          "text": "pH of Urine by Test strip"
        },
        "valueQuantity": {
          "system": "http://unitsofmeasure.org",
          "value": 5.6,
          "unit": "pH",
          "code": "pH"
        },
        "referenceRange": [
          {
            "low": {
              "value": 4.5,
              "code": "pH",
              "system": "http://unitsofmeasure.org"
            }
          },
          {
            "high": {
              "value": 7.5,
              "code": "pH",
              "system": "http://unitsofmeasure.org"
            }
          }
        ],
        "text": {
          "status": "generated",
          "div": "<div xmlns=\"http://www.w3.org/1999/xhtml\"><table class=\"hl7__eu__lab__report\"><tr><th>Test</th><th>07-Jul-2025</th><th>Reference&#xA0;Range</th><th>Unit</th></tr><tr><td>pH of Urine by Test strip</td><td>5.6</td><td>4.5 - 7.5</td><td></td><td>pH</td></tr></table></div>"
        },
        "status": "final",
        "subject": {
          "reference": "urn:uuid:49ce65c8-1bba-49a6-a58b-33caef8a5880",
          "display": "Victor Lagarde"
        },
        "effectiveDateTime": "2025-07-07T07:04:18Z",
        "specimen": {
          "reference": "urn:uuid:54b91a9c-5936-4349-bad3-03bc2176403b"
        }
      }
    },
    {
      "fullUrl": "urn:uuid:376a12f0-ffd0-4e47-b926-231f21652141",
      "resource": {
        "resourceType": "Observation",
        "id": "376a12f0-ffd0-4e47-b926-231f21652141",
        "meta": {
          "profile": [
            "http://hl7.eu/fhir/laboratory/StructureDefinition/Observation-resultslab-eu-lab"
          ]
        },
        "performer": [
          {
            "display": "The Central European Lab"
          }
        ],
        "category": [
          {
            "coding": [
              {
                "system": "http://terminology.hl7.org/CodeSystem/observation-category",
                "code": "laboratory"
              }
            ]
          }
        ],
        "code": {
          "coding": [
            {
              "code": "5804-0",
              "system": "http://loinc.org",
              "display": "Protein [Mass/volume] in Urine by Test strip"
            }
          ],
          "text": "Protein [Mass/volume] in Urine by Test strip"
        },
        "valueQuantity": {
          "system": "http://unitsofmeasure.org",
          "value": 326.8,
          "unit": "mg/dL",
          "code": "mg/dL"
        },
        "referenceRange": [
          {
            "low": {
              "value": 0,
              "code": "mg/dL",
              "system": "http://unitsofmeasure.org"
            }
          },
          {
            "high": {
              "value": 149,
              "code": "mg/dL",
              "system": "http://unitsofmeasure.org"
            }
          }
        ],
        "interpretation": [
          {
            "coding": [
              {
                "code": "H",
                "system": "http://terminology.hl7.org/CodeSystem/v3-ObservationInterpretation",
                "display": "High"
              }
            ]
          }
        ],
        "text": {
          "status": "generated",
          "div": "<div xmlns=\"http://www.w3.org/1999/xhtml\"><table class=\"hl7__eu__lab__report\"><tr><th>Test</th><th>07-Jul-2025</th><th>Reference&#xA0;Range</th><th>Unit</th></tr><tr><td>Protein [Mass/volume] in Urine by Test strip</td><td>326.8</td><td>0 - 149</td><td>H</td><td>mg/dL</td></tr></table></div>"
        },
        "status": "final",
        "subject": {
          "reference": "urn:uuid:49ce65c8-1bba-49a6-a58b-33caef8a5880",
          "display": "Victor Lagarde"
        },
        "effectiveDateTime": "2025-07-07T07:04:18Z",
        "specimen": {
          "reference": "urn:uuid:54b91a9c-5936-4349-bad3-03bc2176403b"
        }
      }
    },
    {
      "fullUrl": "urn:uuid:5246706e-099d-4a50-b9e6-158b64ccfa22",
      "resource": {
        "resourceType": "Observation",
        "id": "5246706e-099d-4a50-b9e6-158b64ccfa22",
        "meta": {
          "profile": [
            "http://hl7.eu/fhir/laboratory/StructureDefinition/Observation-resultslab-eu-lab"
          ]
        },
        "performer": [
          {
            "display": "The Central European Lab"
          }
        ],
        "category": [
          {
            "coding": [
              {
                "system": "http://terminology.hl7.org/CodeSystem/observation-category",
                "code": "laboratory"
              }
            ]
          }
        ],
        "code": {
          "coding": [
            {
              "code": "20454-5",
              "system": "http://loinc.org",
              "display": "Protein [Presence] in Urine by Test strip"
            }
          ],
          "text": "Protein [Presence] in Urine by Test strip"
        },
        "text": {
          "status": "generated",
          "div": "<div xmlns=\"http://www.w3.org/1999/xhtml\"><table class=\"hl7__eu__lab__report\"><tr><th>Test</th><th>07-Jul-2025</th><th>Reference&#xA0;Range</th><th>Unit</th></tr><tr><td>Protein [Presence] in Urine by Test strip</td></tr></table></div>"
        },
        "status": "final",
        "subject": {
          "reference": "urn:uuid:49ce65c8-1bba-49a6-a58b-33caef8a5880",
          "display": "Victor Lagarde"
        },
        "effectiveDateTime": "2025-07-07T07:04:18Z",
        "specimen": {
          "reference": "urn:uuid:54b91a9c-5936-4349-bad3-03bc2176403b"
        }
      }
    },
    {
      "fullUrl": "urn:uuid:c9b5920f-29eb-4796-bfcb-1eaf98c15d08",
      "resource": {
        "resourceType": "Observation",
        "id": "c9b5920f-29eb-4796-bfcb-1eaf98c15d08",
        "meta": {
          "profile": [
            "http://hl7.eu/fhir/laboratory/StructureDefinition/Observation-resultslab-eu-lab"
          ]
        },
        "performer": [
          {
            "display": "The Central European Lab"
          }
        ],
        "category": [
          {
            "coding": [
              {
                "system": "http://terminology.hl7.org/CodeSystem/observation-category",
                "code": "laboratory"
              }
            ]
          }
        ],
        "code": {
          "coding": [
            {
              "code": "5802-4",
              "system": "http://loinc.org",
              "display": "Nitrite [Presence] in Urine by Test strip"
            }
          ],
          "text": "Nitrite [Presence] in Urine by Test strip"
        },
        "text": {
          "status": "generated",
          "div": "<div xmlns=\"http://www.w3.org/1999/xhtml\"><table class=\"hl7__eu__lab__report\"><tr><th>Test</th><th>07-Jul-2025</th><th>Reference&#xA0;Range</th><th>Unit</th></tr><tr><td>Nitrite [Presence] in Urine by Test strip</td></tr></table></div>"
        },
        "status": "final",
        "subject": {
          "reference": "urn:uuid:49ce65c8-1bba-49a6-a58b-33caef8a5880",
          "display": "Victor Lagarde"
        },
        "effectiveDateTime": "2025-07-07T07:04:18Z",
        "specimen": {
          "reference": "urn:uuid:54b91a9c-5936-4349-bad3-03bc2176403b"
        }
      }
    },
    {
      "fullUrl": "urn:uuid:b6959436-4632-43e2-820c-3405db4153f6",
      "resource": {
        "resourceType": "Observation",
        "id": "b6959436-4632-43e2-820c-3405db4153f6",
        "meta": {
          "profile": [
            "http://hl7.eu/fhir/laboratory/StructureDefinition/Observation-resultslab-eu-lab"
          ]
        },
        "performer": [
          {
            "display": "The Central European Lab"
          }
        ],
        "category": [
          {
            "coding": [
              {
                "system": "http://terminology.hl7.org/CodeSystem/observation-category",
                "code": "laboratory"
              }
            ]
          }
        ],
        "code": {
          "coding": [
            {
              "code": "5794-3",
              "system": "http://loinc.org",
              "display": "Hemoglobin [Presence] in Urine by Test strip"
            }
          ],
          "text": "Hemoglobin [Presence] in Urine by Test strip"
        },
        "text": {
          "status": "generated",
          "div": "<div xmlns=\"http://www.w3.org/1999/xhtml\"><table class=\"hl7__eu__lab__report\"><tr><th>Test</th><th>07-Jul-2025</th><th>Reference&#xA0;Range</th><th>Unit</th></tr><tr><td>Hemoglobin [Presence] in Urine by Test strip</td></tr></table></div>"
        },
        "status": "final",
        "subject": {
          "reference": "urn:uuid:49ce65c8-1bba-49a6-a58b-33caef8a5880",
          "display": "Victor Lagarde"
        },
        "effectiveDateTime": "2025-07-07T07:04:18Z",
        "specimen": {
          "reference": "urn:uuid:54b91a9c-5936-4349-bad3-03bc2176403b"
        }
      }
    },
    {
      "fullUrl": "urn:uuid:14b9d087-5c8e-43d6-b2a9-2bdf231c5d34",
      "resource": {
        "resourceType": "Observation",
        "id": "14b9d087-5c8e-43d6-b2a9-2bdf231c5d34",
        "meta": {
          "profile": [
            "http://hl7.eu/fhir/laboratory/StructureDefinition/Observation-resultslab-eu-lab"
          ]
        },
        "performer": [
          {
            "display": "The Central European Lab"
          }
        ],
        "category": [
          {
            "coding": [
              {
                "system": "http://terminology.hl7.org/CodeSystem/observation-category",
                "code": "laboratory"
              }
            ]
          }
        ],
        "code": {
          "coding": [
            {
              "code": "5799-2",
              "system": "http://loinc.org",
              "display": "Leukocyte esterase [Presence] in Urine by Test strip"
            }
          ],
          "text": "Leukocyte esterase [Presence] in Urine by Test strip"
        },
        "text": {
          "status": "generated",
          "div": "<div xmlns=\"http://www.w3.org/1999/xhtml\"><table class=\"hl7__eu__lab__report\"><tr><th>Test</th><th>07-Jul-2025</th><th>Reference&#xA0;Range</th><th>Unit</th></tr><tr><td>Leukocyte esterase [Presence] in Urine by Test strip</td></tr></table></div>"
        },
        "status": "final",
        "subject": {
          "reference": "urn:uuid:49ce65c8-1bba-49a6-a58b-33caef8a5880",
          "display": "Victor Lagarde"
        },
        "effectiveDateTime": "2025-07-07T07:04:18Z",
        "specimen": {
          "reference": "urn:uuid:54b91a9c-5936-4349-bad3-03bc2176403b"
        }
      }
    },
    {
      "fullUrl": "urn:uuid:b1e04fde-bcf9-408a-85d1-4df095ebc371",
      "resource": {
        "resourceType": "Device",
        "id": "b1e04fde-bcf9-408a-85d1-4df095ebc371",
        "deviceName": [
          {
            "name": "SYNDERAI Synthetic Generator",
            "type": "manufacturer-name"
          }
        ],
        "version": [
          {
            "value": "5.0"
          }
        ],
        "text": {
          "status": "generated",
          "div": "<div xmlns=\"http://www.w3.org/1999/xhtml\">SYNDERAI Synthetic Generator v5.0</div>"
        },
        "status": "active\"",
        "distinctIdentifier": "synderai-generator-50",
        "manufacturer": "SYNDERAI Project"
      }
    },
    {
      "fullUrl": "urn:uuid:3999f32e-5e55-4fc5-9b2b-102d6ba0743b",
      "resource": {
        "resourceType": "Provenance",
        "id": "3999f32e-5e55-4fc5-9b2b-102d6ba0743b",
        "target": [
          {
            "reference": "Patient/49ce65c8-1bba-49a6-a58b-33caef8a5880"
          },
          {
            "reference": "Bundle/922f0abc-b840-4c93-b77b-16a76a99781d"
          },
          {
            "reference": "Composition/8e934518-1ddf-481a-a696-a9a8f024ba0f"
          },
          {
            "reference": "PractitionerRole/f7f5e89a-642a-45ac-b608-f5ec318282d6"
          },
          {
            "reference": "Practitioner/c6b2f7c7-e546-4140-9e56-c5d59ffe73e4"
          },
          {
            "reference": "PractitionerRole/92af647f-7e65-40ea-936a-de6c23e2e2c6"
          },
          {
            "reference": "Organization/db66bac4-49e8-4524-a467-c5a0af44de96"
          }
        ],
        "activity": {
          "text": "Synthetic Example Data Generation"
        },
        "policy": [
          "https://synderai.net/synderai-synthetic-data-policy"
        ],
        "agent": [
          {
            "type": {
              "text": "author"
            },
            "who": {
              "reference": "Device/b1e04fde-bcf9-408a-85d1-4df095ebc371"
            }
          }
        ],
        "reason": [
          {
            "text": "Interoperability Testing and Training (non-clinical use)"
          }
        ],
        "text": {
          "status": "generated",
          "div": "<div xmlns=\"http://www.w3.org/1999/xhtml\">Provenance for SYNDERAI Synthetic Example Data Resource</div>"
        },
        "recorded": "2025-07-07T09:04:18Z"
      }
    },
    {
      "fullUrl": "urn:uuid:f7f5e89a-642a-45ac-b608-f5ec318282d6",
      "resource": {
        "resourceType": "PractitionerRole",
        "id": "f7f5e89a-642a-45ac-b608-f5ec318282d6",
        "meta": {
          "profile": [
            "http://hl7.eu/fhir/base/StructureDefinition/practitionerRole-eu"
          ]
        },
        "text": {
          "status": "generated",
          "div": "<div xmlns=\"http://www.w3.org/1999/xhtml\">Laboratory Role Id: f7f5e89a-642a-45ac-b608-f5ec318282d6</div>"
        },
        "practitioner": {
          "reference": "urn:uuid:c6b2f7c7-e546-4140-9e56-c5d59ffe73e4"
        }
      }
    },
    {
      "fullUrl": "urn:uuid:c6b2f7c7-e546-4140-9e56-c5d59ffe73e4",
      "resource": {
        "resourceType": "Practitioner",
        "id": "c6b2f7c7-e546-4140-9e56-c5d59ffe73e4",
        "meta": {
          "profile": [
            "http://hl7.eu/fhir/base/StructureDefinition/practitioner-eu"
          ]
        },
        "identifier": [
          {
            "assigner": {
              "display": "HL7 Europe"
            },
            "system": "urn:oid:2.16.840.1.113883.2.51.999",
            "value": "bd08e5f4-6066-4feb-9f86-0c665bf09be0"
          }
        ],
        "name": [
          {
            "prefix": [
              "dr"
            ],
            "given": [
              "Ex"
            ],
            "family": "Ample"
          }
        ],
        "address": [
          {
            "line": [
              "Laboratoire Central Européenne",
              "Boulevard du Jardin Botanique 32"
            ],
            "postalCode": "1000",
            "city": "Brussels",
            "country": "Belgium"
          }
        ],
        "text": {
          "status": "generated",
          "div": "<div xmlns=\"http://www.w3.org/1999/xhtml\">Laboratory: Laboratoire Central Européenne, 1000 Brussels, Belgium</div>"
        }
      }
    }
  ],
  "type": "document",
  "timestamp": "2025-07-07T09:04:18Z"
}
