{
  "resourceType": "Bundle",
  "id": "1a9676b8-9f9d-468b-89cd-3401b7198342",
  "meta": {
    "profile": [
      "http://hl7.eu/fhir/laboratory/StructureDefinition/Bundle-eu-lab"
    ]
  },
  "identifier": {
    "assigner": {
      "display": "HL7 Europe"
    },
    "system": "urn:oid:2.16.840.1.113883.2.51.999",
    "value": "473c6903-8253-4cfc-bf5e-097299e376f2"
  },
  "entry": [
    {
      "fullUrl": "urn:uuid:9c49cbc8-6e7b-4240-a06a-50ccf008b6ad",
      "resource": {
        "resourceType": "Composition",
        "id": "9c49cbc8-6e7b-4240-a06a-50ccf008b6ad",
        "meta": {
          "profile": [
            "http://hl7.eu/fhir/laboratory/StructureDefinition/Composition-eu-lab"
          ]
        },
        "identifier": {
          "assigner": {
            "display": "HL7 Europe"
          },
          "system": "urn:oid:2.16.840.1.113883.2.51.999",
          "value": "8baedecd-f221-4aa4-aee7-56fef3ad7d36"
        },
        "author": [
          {
            "reference": "urn:uuid:2ef8e788-38ae-434b-8423-53c0887073f6"
          }
        ],
        "category": [
          {
            "coding": [
              {
                "code": "26436-6",
                "system": "http://loinc.org",
                "display": "Laboratory studies (set)"
              }
            ]
          }
        ],
        "type": {
          "coding": [
            {
              "code": "11502-2",
              "system": "http://loinc.org",
              "display": "Laboratory report"
            }
          ],
          "text": "Laboratory Report"
        },
        "section": [
          {
            "code": {
              "coding": [
                {
                  "code": "26436-6",
                  "system": "http://loinc.org",
                  "display": "Laboratory studies (set)"
                }
              ],
              "text": "Laboratory studies"
            },
            "section": [
              {
                "code": {
                  "coding": [
                    {
                      "code": "$18719-5",
                      "system": "http://loinc.org",
                      "display": "Chemistry studies (set)"
                    }
                  ],
                  "text": "Chemistry"
                },
                "entry": [
                  {
                    "reference": "urn:uuid:a411f7b9-b9c2-4528-a215-3c10b8280b10"
                  },
                  {
                    "reference": "urn:uuid:62168459-8f7f-4b54-9db3-cf59d5e03af5"
                  },
                  {
                    "reference": "urn:uuid:4eb12fd5-ab67-4d11-8394-1224bb86285e"
                  },
                  {
                    "reference": "urn:uuid:8ede0a4b-22f6-4768-918e-ee1f07efe417"
                  },
                  {
                    "reference": "urn:uuid:edbafd42-a1ae-45bf-b0ef-e3b1c8552781"
                  },
                  {
                    "reference": "urn:uuid:c060daed-aa2f-426c-becd-1808c439e651"
                  },
                  {
                    "reference": "urn:uuid:09237bca-4bea-446b-b7c3-1c051f93e826"
                  },
                  {
                    "reference": "urn:uuid:b6b2b54a-9395-483b-8c86-e7dfae4a35bb"
                  },
                  {
                    "reference": "urn:uuid:21804226-b93b-4bd9-aacd-d3a5cb89ab0d"
                  },
                  {
                    "reference": "urn:uuid:795ca8c0-cb9b-489d-b758-ffe5cc8e8088"
                  },
                  {
                    "reference": "urn:uuid:265ef446-06ef-4aed-8bb7-7ac06343f2c9"
                  },
                  {
                    "reference": "urn:uuid:6bfaed21-ca4b-4f3f-aed1-2359d530d4ba"
                  },
                  {
                    "reference": "urn:uuid:71fe5402-d666-4579-be57-01147f199d9b"
                  },
                  {
                    "reference": "urn:uuid:51323928-6ebf-4c32-9506-301aa7737e7c"
                  },
                  {
                    "reference": "urn:uuid:b020175b-4241-4a65-aac0-f7b5174ac36e"
                  },
                  {
                    "reference": "urn:uuid:03dbdee5-cd3a-48cf-96d7-bafc85a7b919"
                  },
                  {
                    "reference": "urn:uuid:c1ee7a14-b81b-44d8-9745-07f8931e3ce9"
                  },
                  {
                    "reference": "urn:uuid:cd07e2c5-446c-4026-93c9-25409c03ed2b"
                  }
                ],
                "text": {
                  "status": "generated",
                  "div": "<div xmlns=\"http://www.w3.org/1999/xhtml\"><h3>Chemistry</h3><table class=\"hl7__eu__lab__report\"><thead><tr><th>Test</th><th>27-JUN-2018</th><th>Reference&#xA0;Range</th><th>Unit</th></tr></thead><tbody><tr><td>Glucose [Mass/volume] in Serum or Plasma</td><td>79.2</td><td>70 - 140</td><td>mg/dL</td></tr><tr><td>Urea nitrogen [Mass/volume] in Serum or Plasma</td><td>12.1</td><td>7 - 20</td><td>mg/dL</td></tr><tr><td>Creatinine [Mass/volume] in Serum or Plasma</td><td><strong>1.9 H</strong></td><td>0.9 - 1.3</td><td>mg/dL</td></tr><tr><td>Calcium [Mass/volume] in Serum or Plasma</td><td>9.6</td><td>8.5 - 10.5</td><td>mg/dL</td></tr><tr><td>Sodium [Moles/volume] in Serum or Plasma</td><td>140.1</td><td>135 - 145</td><td>mmol/L</td></tr><tr><td>Potassium [Moles/volume] in Serum or Plasma</td><td>4.0</td><td>3.5 - 5</td><td>mmol/L</td></tr><tr><td>Chloride [Moles/volume] in Serum or Plasma</td><td><strong>110.7 H</strong></td><td>98 - 108</td><td>mmol/L</td></tr><tr><td>Carbon dioxide, total [Moles/volume] in Serum or Plasma</td><td>22.6</td><td>22 - 29</td><td>mmol/L</td></tr><tr><td>Ketones [Presence] in Urine by Test strip</td><td>Urine ketone test = ++</td><td></td><td></td></tr><tr><td>Hemoglobin A1c/Hemoglobin.total in Blood</td><td><strong>2.8 L</strong></td><td>4.3 - 6.4</td><td>%</td></tr><tr><td>Glucose [Mass/volume] in Blood</td><td>79.2</td><td>70 - 140</td><td>mg/dL</td></tr><tr><td>Urea nitrogen [Mass/volume] in Blood</td><td>12.1</td><td>7 - 20</td><td>mg/dL</td></tr><tr><td>Creatinine [Mass/volume] in Blood</td><td><strong>9.3 H</strong></td><td>0.6 - 1.3</td><td>mg/dL</td></tr><tr><td>Calcium [Mass/volume] in Blood</td><td>9.6</td><td>8.5 - 10.5</td><td>mg/dL</td></tr><tr><td>Sodium [Moles/volume] in Blood</td><td>140.1</td><td>135 - 145</td><td>mmol/L</td></tr><tr><td>Potassium [Moles/volume] in Blood</td><td>4.0</td><td>3.5 - 5.3</td><td>mmol/L</td></tr><tr><td>Chloride [Moles/volume] in Blood</td><td><strong>110.7 H</strong></td><td>98 - 110</td><td>mmol/L</td></tr><tr><td>Carbon dioxide, total [Moles/volume] in Blood</td><td>22.6</td><td>22 - 29</td><td>mmol/L</td></tr></tbody></table></div>"
                },
                "title": "Chemistry"
              },
              {
                "code": {
                  "coding": [
                    {
                      "code": "$18729-4",
                      "system": "http://loinc.org",
                      "display": "Urinalysis studies (set)"
                    }
                  ],
                  "text": "Urinalysis"
                },
                "entry": [
                  {
                    "reference": "urn:uuid:8811e421-03ae-4de0-9fcd-f40d0ddc327c"
                  },
                  {
                    "reference": "urn:uuid:b876c753-fe4d-4b1b-8b8e-930b51ab9116"
                  },
                  {
                    "reference": "urn:uuid:35cedda5-1bfe-48b0-94db-5de33aa49a6b"
                  },
                  {
                    "reference": "urn:uuid:041b8c99-7aec-49bb-8c54-0cb16bb5e260"
                  },
                  {
                    "reference": "urn:uuid:be60d1ce-1c0f-4616-a2fd-2b7ce2aa8f89"
                  },
                  {
                    "reference": "urn:uuid:1abd7dca-960d-4198-ac74-e516578e2888"
                  },
                  {
                    "reference": "urn:uuid:7edd74c0-9276-49be-b6f2-fe40738351e1"
                  },
                  {
                    "reference": "urn:uuid:e1be2d95-b2eb-4e12-ac8a-9bda6d2eb02b"
                  },
                  {
                    "reference": "urn:uuid:d26b9ded-8aa7-4558-8d77-29b3dab3cc53"
                  },
                  {
                    "reference": "urn:uuid:5aa124fa-41e5-4953-91e7-fba5a3903725"
                  },
                  {
                    "reference": "urn:uuid:8ecf58f1-938c-4a79-b6ea-6cf42f82bbf4"
                  },
                  {
                    "reference": "urn:uuid:98896bec-e5ff-4bd0-9617-cb278282df37"
                  }
                ],
                "text": {
                  "status": "generated",
                  "div": "<div xmlns=\"http://www.w3.org/1999/xhtml\"><h3>Urinalysis</h3><table class=\"hl7__eu__lab__report\"><thead><tr><th>Test</th><th>27-JUN-2018</th><th>Reference&#xA0;Range</th><th>Unit</th></tr></thead><tbody><tr><td>Glucose [Mass/volume] in Urine by Test strip</td><td><strong>2.3 H</strong></td><td>0 - 0.8</td><td>mg/dL</td></tr><tr><td>Glucose [Presence] in Urine by Test strip</td><td>++</td><td></td><td></td></tr><tr><td>Bilirubin.total [Mass/volume] in Urine by Test strip</td><td><strong>1.2 H</strong></td><td>0.2 - 1</td><td>mg/dL</td></tr><tr><td>Bilirubin.total [Presence] in Urine by Test strip</td><td>Finding of bilirubin in urine</td><td></td><td></td></tr><tr><td>Ketones [Mass/volume] in Urine by Test strip</td><td><strong>5.2 H</strong></td><td>0 - 5</td><td>mg/dL</td></tr><tr><td>Specific gravity of Urine by Test strip</td><td><strong>1.0 L</strong></td><td>1.005 - 1.03</td><td>{nominal}</td></tr><tr><td>pH of Urine by Test strip</td><td>6.8</td><td>4.6 - 7</td><td>pH</td></tr><tr><td>Protein [Mass/volume] in Urine by Test strip</td><td><strong>222.5 H</strong></td><td>0 - 150</td><td>mg/dL</td></tr><tr><td>Protein [Presence] in Urine by Test strip</td><td>Urine protein test = ++</td><td></td><td></td></tr><tr><td>Nitrite [Presence] in Urine by Test strip</td><td>Urine nitrite negative</td><td></td><td></td></tr><tr><td>Hemoglobin [Presence] in Urine by Test strip</td><td>Urine blood test = negative</td><td></td><td></td></tr><tr><td>Leukocyte esterase [Presence] in Urine by Test strip</td><td>Urine leukocyte test negative</td><td></td><td></td></tr></tbody></table></div>"
                },
                "title": "Urinalysis"
              },
              {
                "code": {
                  "coding": [
                    {
                      "code": "$LP7846-1",
                      "system": "http://loinc.org",
                      "display": "Specimen information"
                    }
                  ],
                  "text": "Specimen information"
                },
                "entry": [
                  {
                    "reference": "urn:uuid:1e23e9bc-ab1a-42a0-adaf-fe4c6fe29efc"
                  },
                  {
                    "reference": "urn:uuid:379480b7-6493-4571-b9da-bab802970417"
                  },
                  {
                    "reference": "urn:uuid:ae0d4b4a-2055-45e7-924f-c182932d9d9f"
                  },
                  {
                    "reference": "urn:uuid:212ce8bc-2213-471e-89c9-7f06141c750a"
                  }
                ],
                "text": {
                  "status": "generated",
                  "div": "<div xmlns=\"http://www.w3.org/1999/xhtml\"><h3>Specimen information</h3><table class=\"hl7__eu__lab__report\"><thead><tr><th>Test</th><th>27-JUN-2018</th><th>Specimen</th><th></th></tr></thead><tbody><tr><td>Appearance of Urine</td><td>Cloudy urine</td><td>Urine</td><td></td></tr><tr><td>Odor of Urine</td><td>Urine smell ammoniacal</td><td>Urine</td><td></td></tr><tr><td>Clarity of Urine</td><td>Translucent</td><td>Urine</td><td></td></tr><tr><td>Color of Urine</td><td>Brown color</td><td>Urine</td><td></td></tr></tbody></table></div>"
                },
                "title": "Specimen information"
              }
            ],
            "title": "Laboratory Report"
          },
          {
            "text": {
              "status": "generated",
              "div": "<div xmlns=\"http://www.w3.org/1999/xhtml\"><h3>Annotation</h3><table class=\"hl7__eu__lab__report\"><tr><th>Conclusion and Recommendations based on this report and previous findings known to us</th></tr><tr><td>The patient shows markedly elevated creatinine, proteinuria, glucosuria, ketonuria, and bilirubinuria, with low urine specific gravity and abnormal urine appearance, suggesting significant renal dysfunction, possibly acute or chronic kidney disease with impaired filtration. Blood glucose and HbA1c are not elevated, making diabetes less likely. Elevated chloride may indicate metabolic acidosis. Urine findings (cloudy, brown, ammoniacal) may suggest underlying renal or hepatic pathology. Prompt nephrology evaluation is recommended.</td></tr></table></div>"
            },
            "code": {
              "coding": [
                {
                  "system": "http://loinc.org",
                  "code": "48767-8",
                  "display": "Annotation comment"
                }
              ]
            },
            "title": "Annotation comment"
          }
        ],
        "status": "final",
        "subject": {
          "reference": "urn:uuid:3218f1e5-8d11-4879-816f-5a73d876acf3",
          "display": "Θεμιστοκλής Λιναρδάκη"
        },
        "date": "2018-06-27T08:16:00Z",
        "title": "Laboratory Report",
        "confidentiality": "N"
      }
    },
    {
      "fullUrl": "urn:uuid:af5f35c8-8fe9-413e-8980-fa59cebfc617",
      "resource": {
        "resourceType": "DiagnosticReport",
        "id": "af5f35c8-8fe9-413e-8980-fa59cebfc617",
        "meta": {
          "profile": [
            "http://hl7.eu/fhir/laboratory/StructureDefinition/DiagnosticReport-eu-lab"
          ]
        },
        "identifier": [
          {
            "assigner": {
              "display": "HL7 Europe"
            },
            "system": "urn:oid:2.16.840.1.113883.2.51.999",
            "value": "a573f430-d86a-4665-8891-4381aca27fc1"
          }
        ],
        "extension": [
          {
            "url": "http://hl7.org/fhir/5.0/StructureDefinition/extension-DiagnosticReport.composition",
            "valueReference": {
              "reference": "urn:uuid:8baedecd-f221-4aa4-aee7-56fef3ad7d36"
            }
          }
        ],
        "category": [
          {
            "coding": [
              {
                "code": "26436-6",
                "system": "http://loinc.org",
                "display": "Laboratory studies (set)"
              }
            ]
          }
        ],
        "specimen": [
          {
            "reference": "urn:uuid:9b3773bd-5d58-42f6-89cf-4b56568c506c"
          },
          {
            "reference": "urn:uuid:d679f644-efc4-4c07-8aab-fd240b617985"
          },
          {
            "reference": "urn:uuid:89473443-9379-4427-9ffa-3cd65d4b849a"
          }
        ],
        "result": [
          {
            "reference": "urn:uuid:a411f7b9-b9c2-4528-a215-3c10b8280b10"
          },
          {
            "reference": "urn:uuid:62168459-8f7f-4b54-9db3-cf59d5e03af5"
          },
          {
            "reference": "urn:uuid:4eb12fd5-ab67-4d11-8394-1224bb86285e"
          },
          {
            "reference": "urn:uuid:8ede0a4b-22f6-4768-918e-ee1f07efe417"
          },
          {
            "reference": "urn:uuid:edbafd42-a1ae-45bf-b0ef-e3b1c8552781"
          },
          {
            "reference": "urn:uuid:c060daed-aa2f-426c-becd-1808c439e651"
          },
          {
            "reference": "urn:uuid:09237bca-4bea-446b-b7c3-1c051f93e826"
          },
          {
            "reference": "urn:uuid:b6b2b54a-9395-483b-8c86-e7dfae4a35bb"
          },
          {
            "reference": "urn:uuid:1e23e9bc-ab1a-42a0-adaf-fe4c6fe29efc"
          },
          {
            "reference": "urn:uuid:379480b7-6493-4571-b9da-bab802970417"
          },
          {
            "reference": "urn:uuid:ae0d4b4a-2055-45e7-924f-c182932d9d9f"
          },
          {
            "reference": "urn:uuid:212ce8bc-2213-471e-89c9-7f06141c750a"
          },
          {
            "reference": "urn:uuid:8811e421-03ae-4de0-9fcd-f40d0ddc327c"
          },
          {
            "reference": "urn:uuid:b876c753-fe4d-4b1b-8b8e-930b51ab9116"
          },
          {
            "reference": "urn:uuid:35cedda5-1bfe-48b0-94db-5de33aa49a6b"
          },
          {
            "reference": "urn:uuid:041b8c99-7aec-49bb-8c54-0cb16bb5e260"
          },
          {
            "reference": "urn:uuid:be60d1ce-1c0f-4616-a2fd-2b7ce2aa8f89"
          },
          {
            "reference": "urn:uuid:21804226-b93b-4bd9-aacd-d3a5cb89ab0d"
          },
          {
            "reference": "urn:uuid:1abd7dca-960d-4198-ac74-e516578e2888"
          },
          {
            "reference": "urn:uuid:7edd74c0-9276-49be-b6f2-fe40738351e1"
          },
          {
            "reference": "urn:uuid:e1be2d95-b2eb-4e12-ac8a-9bda6d2eb02b"
          },
          {
            "reference": "urn:uuid:d26b9ded-8aa7-4558-8d77-29b3dab3cc53"
          },
          {
            "reference": "urn:uuid:5aa124fa-41e5-4953-91e7-fba5a3903725"
          },
          {
            "reference": "urn:uuid:8ecf58f1-938c-4a79-b6ea-6cf42f82bbf4"
          },
          {
            "reference": "urn:uuid:98896bec-e5ff-4bd0-9617-cb278282df37"
          },
          {
            "reference": "urn:uuid:795ca8c0-cb9b-489d-b758-ffe5cc8e8088"
          },
          {
            "reference": "urn:uuid:265ef446-06ef-4aed-8bb7-7ac06343f2c9"
          },
          {
            "reference": "urn:uuid:6bfaed21-ca4b-4f3f-aed1-2359d530d4ba"
          },
          {
            "reference": "urn:uuid:71fe5402-d666-4579-be57-01147f199d9b"
          },
          {
            "reference": "urn:uuid:51323928-6ebf-4c32-9506-301aa7737e7c"
          },
          {
            "reference": "urn:uuid:b020175b-4241-4a65-aac0-f7b5174ac36e"
          },
          {
            "reference": "urn:uuid:03dbdee5-cd3a-48cf-96d7-bafc85a7b919"
          },
          {
            "reference": "urn:uuid:c1ee7a14-b81b-44d8-9745-07f8931e3ce9"
          },
          {
            "reference": "urn:uuid:cd07e2c5-446c-4026-93c9-25409c03ed2b"
          }
        ],
        "status": "registered",
        "code": {
          "coding": [
            {
              "code": "11502-2",
              "system": "http://loinc.org",
              "display": "Laboratory report"
            }
          ]
        },
        "subject": {
          "reference": "urn:uuid:3218f1e5-8d11-4879-816f-5a73d876acf3",
          "display": "Θεμιστοκλής Λιναρδάκη"
        }
      }
    },
    {
      "fullUrl": "urn:uuid:3218f1e5-8d11-4879-816f-5a73d876acf3",
      "resource": {
        "resourceType": "Patient",
        "id": "3218f1e5-8d11-4879-816f-5a73d876acf3",
        "meta": {
          "security": [
            {
              "system": "http://terminology.hl7.org/CodeSystem/v3-ActReason",
              "code": "HTEST"
            },
            {
              "system": "http://terminology.hl7.org/CodeSystem/v3-ActReason",
              "code": "TRAIN"
            }
          ],
          "tag": [
            {
              "system": "https://synderai.net/fhir/CodeSystem/tags",
              "code": "synthetic",
              "display": "SYNDERAI Synthetic data"
            }
          ],
          "profile": [
            "http://hl7.eu/fhir/base/StructureDefinition/patient-eu-core"
          ]
        },
        "identifier": [
          {
            "type": {
              "coding": [
                {
                  "code": "PT",
                  "system": "http://terminology.hl7.org/CodeSystem/v2-0203"
                }
              ]
            },
            "system": "http://ec.europa.eu/identifier/eci",
            "value": "5962-476889-7"
          },
          {
            "type": {
              "coding": [
                {
                  "code": "MR",
                  "system": "http://terminology.hl7.org/CodeSystem/v2-0203"
                }
              ]
            },
            "system": "http://local.setting.eu/identifier",
            "value": "925e2603-2ef9-6bdf-1330-2ebf526636c4"
          }
        ],
        "name": [
          {
            "family": "Λιναρδάκη"
          },
          {
            "given": [
              "Θεμιστοκλής"
            ]
          },
          {
            "text": "Θεμιστοκλής Λιναρδάκη"
          }
        ],
        "address": [
          {
            "line": [
              "Αμαρύνθου 54-58"
            ],
            "use": "home",
            "type": "physical",
            "postalCode": "262 21",
            "city": "Πάτρα",
            "country": "Greece"
          }
        ],
        "telecom": [
          {
            "system": "phone",
            "value": "+302226364480"
          }
        ],
        "extension": [
          {
            "url": "http://hl7.org/fhir/StructureDefinition/patient-nationality",
            "valueCodeableConcept": {
              "coding": [
                {
                  "code": "GR",
                  "system": "http://hl7.org/fhir/ValueSet/country"
                }
              ]
            }
          }
        ],
        "text": {
          "status": "generated",
          "div": "<div xmlns=\"http://www.w3.org/1999/xhtml\"><table class=\"hl7__ips\"><tr><td>Θεμιστοκλής Λιναρδάκη</td><td>male</td><td>21-Jan-1974</td></tr></table></div>"
        },
        "gender": "male",
        "birthDate": "1974-01-21"
      }
    },
    {
      "fullUrl": "urn:uuid:c5ed0a15-ea9a-4954-8f80-dd41c592b173",
      "resource": {
        "resourceType": "ServiceRequest",
        "id": "c5ed0a15-ea9a-4954-8f80-dd41c592b173",
        "meta": {
          "profile": [
            "http://hl7.eu/fhir/laboratory/StructureDefinition/ServiceRequest-eu-lab"
          ]
        },
        "identifier": [
          {
            "system": "http://example.org",
            "value": "8a1872e1-1225-4849-8686-4b5cbadb830a"
          }
        ],
        "specimen": [
          {
            "reference": "urn:uuid:9b3773bd-5d58-42f6-89cf-4b56568c506c"
          },
          {
            "reference": "urn:uuid:d679f644-efc4-4c07-8aab-fd240b617985"
          },
          {
            "reference": "urn:uuid:89473443-9379-4427-9ffa-3cd65d4b849a"
          }
        ],
        "reasonCode": [
          {
            "coding": [
              {
                "code": "237602007",
                "system": "http://snomed.info/sct",
                "display": "Metabolic syndrome X"
              }
            ]
          },
          {
            "coding": [
              {
                "code": "433144002",
                "system": "http://snomed.info/sct",
                "display": "Chronic kidney disease stage 3"
              }
            ]
          },
          {
            "coding": [
              {
                "code": "157141000119108",
                "system": "http://snomed.info/sct",
                "display": "Proteinuria due to type 2 diabetes mellitus"
              }
            ]
          },
          {
            "coding": [
              {
                "code": "431856006",
                "system": "http://snomed.info/sct",
                "display": "Chronic kidney disease stage 2"
              }
            ]
          },
          {
            "coding": [
              {
                "code": "90781000119102",
                "system": "http://snomed.info/sct",
                "display": "Microalbuminuria due to type 2 diabetes mellitus"
              }
            ]
          },
          {
            "coding": [
              {
                "code": "127013003",
                "system": "http://snomed.info/sct",
                "display": "Disorder of kidney due to diabetes mellitus"
              }
            ]
          },
          {
            "coding": [
              {
                "code": "431855005",
                "system": "http://snomed.info/sct",
                "display": "Chronic kidney disease stage 1"
              }
            ]
          },
          {
            "coding": [
              {
                "code": "59621000",
                "system": "http://snomed.info/sct",
                "display": "Essential hypertension"
              }
            ]
          },
          {
            "coding": [
              {
                "code": "15777000",
                "system": "http://snomed.info/sct",
                "display": "Prediabetes"
              }
            ]
          },
          {
            "coding": [
              {
                "code": "271737000",
                "system": "http://snomed.info/sct",
                "display": "Anemia"
              }
            ]
          }
        ],
        "status": "active",
        "intent": "order",
        "code": {
          "coding": [
            {
              "code": "108252007",
              "system": "http://snomed.info/sct",
              "display": "Laboratory procedure"
            }
          ]
        },
        "subject": {
          "reference": "urn:uuid:3218f1e5-8d11-4879-816f-5a73d876acf3",
          "display": "Θεμιστοκλής Λιναρδάκη"
        },
        "requester": {
          "reference": "urn:uuid:13c82de4-606d-4985-a12c-ed28745a8165"
        }
      }
    },
    {
      "fullUrl": "urn:uuid:13c82de4-606d-4985-a12c-ed28745a8165",
      "resource": {
        "resourceType": "PractitionerRole",
        "id": "13c82de4-606d-4985-a12c-ed28745a8165",
        "meta": {
          "profile": [
            "http://hl7.eu/fhir/base/StructureDefinition/practitionerRole-eu"
          ]
        },
        "text": {
          "status": "generated",
          "div": "<div xmlns=\"http://www.w3.org/1999/xhtml\">Provider Role Id: 13c82de4-606d-4985-a12c-ed28745a8165</div>"
        },
        "organization": {
          "reference": "urn:uuid:a0f15373-569a-4606-ba39-47b4b4df75cf"
        }
      }
    },
    {
      "fullUrl": "urn:uuid:a0f15373-569a-4606-ba39-47b4b4df75cf",
      "resource": {
        "resourceType": "Organization",
        "id": "a0f15373-569a-4606-ba39-47b4b4df75cf",
        "meta": {
          "profile": [
            "http://hl7.eu/fhir/base/StructureDefinition/organization-eu"
          ]
        },
        "identifier": [
          {
            "assigner": {
              "display": "HL7 Europe"
            },
            "system": "urn:oid:2.16.840.1.113883.2.51.999",
            "value": "120dc2d3-9578-4468-b1eb-bb311da59834"
          }
        ],
        "address": [
          {
            "line": [
              "211 Odós Filellinon"
            ],
            "city": "Patras",
            "postalCode": "262 21",
            "country": "Greece"
          }
        ],
        "text": {
          "status": "generated",
          "div": "<div xmlns=\"http://www.w3.org/1999/xhtml\">Provider Organization: Dr. Dimitris Economou</div>"
        },
        "name": "Dr. Dimitris Economou"
      }
    },
    {
      "fullUrl": "urn:uuid:9b3773bd-5d58-42f6-89cf-4b56568c506c",
      "resource": {
        "resourceType": "Specimen",
        "id": "9b3773bd-5d58-42f6-89cf-4b56568c506c",
        "meta": {
          "profile": [
            "http://hl7.eu/fhir/laboratory/StructureDefinition/Specimen-eu-lab"
          ]
        },
        "collection": {
          "collectedDateTime": "2018-06-27"
        },
        "text": {
          "status": "generated",
          "div": "<div xmlns=\"http://www.w3.org/1999/xhtml\"><table class=\"hl7__eu__lab__report\"><tr><th>Specimen</th><th>Collection Date</th></tr><tr><td>Acellular blood (serum or plasma) specimen</td><td><span class=\"nb\">27-Jun-2018</span></td></tr></table></div>"
        },
        "type": {
          "coding": [
            {
              "code": "122592007",
              "system": "http://snomed.info/sct",
              "display": "Acellular blood (serum or plasma) specimen"
            }
          ]
        }
      }
    },
    {
      "fullUrl": "urn:uuid:d679f644-efc4-4c07-8aab-fd240b617985",
      "resource": {
        "resourceType": "Specimen",
        "id": "d679f644-efc4-4c07-8aab-fd240b617985",
        "meta": {
          "profile": [
            "http://hl7.eu/fhir/laboratory/StructureDefinition/Specimen-eu-lab"
          ]
        },
        "collection": {
          "collectedDateTime": "2018-06-27"
        },
        "text": {
          "status": "generated",
          "div": "<div xmlns=\"http://www.w3.org/1999/xhtml\"><table class=\"hl7__eu__lab__report\"><tr><th>Specimen</th><th>Collection Date</th></tr><tr><td>Urine specimen</td><td><span class=\"nb\">27-Jun-2018</span></td></tr></table></div>"
        },
        "type": {
          "coding": [
            {
              "code": "122575003",
              "system": "http://snomed.info/sct",
              "display": "Urine specimen"
            }
          ]
        }
      }
    },
    {
      "fullUrl": "urn:uuid:89473443-9379-4427-9ffa-3cd65d4b849a",
      "resource": {
        "resourceType": "Specimen",
        "id": "89473443-9379-4427-9ffa-3cd65d4b849a",
        "meta": {
          "profile": [
            "http://hl7.eu/fhir/laboratory/StructureDefinition/Specimen-eu-lab"
          ]
        },
        "collection": {
          "collectedDateTime": "2018-06-27"
        },
        "text": {
          "status": "generated",
          "div": "<div xmlns=\"http://www.w3.org/1999/xhtml\"><table class=\"hl7__eu__lab__report\"><tr><th>Specimen</th><th>Collection Date</th></tr><tr><td>Whole blood specimen (specimen)</td><td><span class=\"nb\">27-Jun-2018</span></td></tr></table></div>"
        },
        "type": {
          "coding": [
            {
              "code": "258580003",
              "system": "http://snomed.info/sct",
              "display": "Whole blood specimen (specimen)"
            }
          ]
        }
      }
    },
    {
      "fullUrl": "urn:uuid:a411f7b9-b9c2-4528-a215-3c10b8280b10",
      "resource": {
        "resourceType": "Observation",
        "id": "a411f7b9-b9c2-4528-a215-3c10b8280b10",
        "meta": {
          "profile": [
            "http://hl7.eu/fhir/laboratory/StructureDefinition/Observation-resultslab-eu-lab"
          ]
        },
        "performer": [
          {
            "display": "The Central European Lab"
          }
        ],
        "category": [
          {
            "coding": [
              {
                "system": "http://terminology.hl7.org/CodeSystem/observation-category",
                "code": "laboratory"
              }
            ]
          }
        ],
        "code": {
          "coding": [
            {
              "code": "2345-7",
              "system": "http://loinc.org",
              "display": "Glucose [Mass/volume] in Serum or Plasma"
            }
          ],
          "text": "Glucose [Mass/volume] in Serum or Plasma"
        },
        "valueQuantity": {
          "system": "http://unitsofmeasure.org",
          "value": 79.2,
          "unit": "mg/dL",
          "code": "mg/dL"
        },
        "referenceRange": [
          {
            "low": {
              "value": 70,
              "code": "mg/dL",
              "system": "http://unitsofmeasure.org"
            }
          },
          {
            "high": {
              "value": 140,
              "code": "mg/dL",
              "system": "http://unitsofmeasure.org"
            }
          }
        ],
        "text": {
          "status": "generated",
          "div": "<div xmlns=\"http://www.w3.org/1999/xhtml\"><table class=\"hl7__eu__lab__report\"><tr><th>Test</th><th>27-Jun-2018</th><th>Reference&#xA0;Range</th><th>Unit</th></tr><tr><td>Glucose [Mass/volume] in Serum or Plasma</td><td>79.2</td><td>70 - 140</td><td></td><td>mg/dL</td></tr></table></div>"
        },
        "status": "final",
        "subject": {
          "reference": "urn:uuid:3218f1e5-8d11-4879-816f-5a73d876acf3",
          "display": "Θεμιστοκλής Λιναρδάκη"
        },
        "effectiveDateTime": "2018-06-27T06:16:00Z",
        "specimen": {
          "reference": "urn:uuid:9b3773bd-5d58-42f6-89cf-4b56568c506c"
        }
      }
    },
    {
      "fullUrl": "urn:uuid:62168459-8f7f-4b54-9db3-cf59d5e03af5",
      "resource": {
        "resourceType": "Observation",
        "id": "62168459-8f7f-4b54-9db3-cf59d5e03af5",
        "meta": {
          "profile": [
            "http://hl7.eu/fhir/laboratory/StructureDefinition/Observation-resultslab-eu-lab"
          ]
        },
        "performer": [
          {
            "display": "The Central European Lab"
          }
        ],
        "category": [
          {
            "coding": [
              {
                "system": "http://terminology.hl7.org/CodeSystem/observation-category",
                "code": "laboratory"
              }
            ]
          }
        ],
        "code": {
          "coding": [
            {
              "code": "3094-0",
              "system": "http://loinc.org",
              "display": "Urea nitrogen [Mass/volume] in Serum or Plasma"
            }
          ],
          "text": "Urea nitrogen [Mass/volume] in Serum or Plasma"
        },
        "valueQuantity": {
          "system": "http://unitsofmeasure.org",
          "value": 12.1,
          "unit": "mg/dL",
          "code": "mg/dL"
        },
        "referenceRange": [
          {
            "low": {
              "value": 7,
              "code": "mg/dL",
              "system": "http://unitsofmeasure.org"
            }
          },
          {
            "high": {
              "value": 20,
              "code": "mg/dL",
              "system": "http://unitsofmeasure.org"
            }
          }
        ],
        "text": {
          "status": "generated",
          "div": "<div xmlns=\"http://www.w3.org/1999/xhtml\"><table class=\"hl7__eu__lab__report\"><tr><th>Test</th><th>27-Jun-2018</th><th>Reference&#xA0;Range</th><th>Unit</th></tr><tr><td>Urea nitrogen [Mass/volume] in Serum or Plasma</td><td>12.1</td><td>7 - 20</td><td></td><td>mg/dL</td></tr></table></div>"
        },
        "status": "final",
        "subject": {
          "reference": "urn:uuid:3218f1e5-8d11-4879-816f-5a73d876acf3",
          "display": "Θεμιστοκλής Λιναρδάκη"
        },
        "effectiveDateTime": "2018-06-27T06:16:00Z",
        "specimen": {
          "reference": "urn:uuid:9b3773bd-5d58-42f6-89cf-4b56568c506c"
        }
      }
    },
    {
      "fullUrl": "urn:uuid:4eb12fd5-ab67-4d11-8394-1224bb86285e",
      "resource": {
        "resourceType": "Observation",
        "id": "4eb12fd5-ab67-4d11-8394-1224bb86285e",
        "meta": {
          "profile": [
            "http://hl7.eu/fhir/laboratory/StructureDefinition/Observation-resultslab-eu-lab"
          ]
        },
        "performer": [
          {
            "display": "The Central European Lab"
          }
        ],
        "category": [
          {
            "coding": [
              {
                "system": "http://terminology.hl7.org/CodeSystem/observation-category",
                "code": "laboratory"
              }
            ]
          }
        ],
        "code": {
          "coding": [
            {
              "code": "2160-0",
              "system": "http://loinc.org",
              "display": "Creatinine [Mass/volume] in Serum or Plasma"
            }
          ],
          "text": "Creatinine [Mass/volume] in Serum or Plasma"
        },
        "valueQuantity": {
          "system": "http://unitsofmeasure.org",
          "value": 1.9,
          "unit": "mg/dL",
          "code": "mg/dL"
        },
        "referenceRange": [
          {
            "low": {
              "value": 0.9,
              "code": "mg/dL",
              "system": "http://unitsofmeasure.org"
            }
          },
          {
            "high": {
              "value": 1.3,
              "code": "mg/dL",
              "system": "http://unitsofmeasure.org"
            }
          }
        ],
        "interpretation": [
          {
            "coding": [
              {
                "code": "H",
                "system": "http://terminology.hl7.org/CodeSystem/v3-ObservationInterpretation",
                "display": "High"
              }
            ]
          }
        ],
        "text": {
          "status": "generated",
          "div": "<div xmlns=\"http://www.w3.org/1999/xhtml\"><table class=\"hl7__eu__lab__report\"><tr><th>Test</th><th>27-Jun-2018</th><th>Reference&#xA0;Range</th><th>Unit</th></tr><tr><td>Creatinine [Mass/volume] in Serum or Plasma</td><td>1.9</td><td>0.9 - 1.3</td><td>H</td><td>mg/dL</td></tr></table></div>"
        },
        "status": "final",
        "subject": {
          "reference": "urn:uuid:3218f1e5-8d11-4879-816f-5a73d876acf3",
          "display": "Θεμιστοκλής Λιναρδάκη"
        },
        "effectiveDateTime": "2018-06-27T06:16:00Z",
        "specimen": {
          "reference": "urn:uuid:9b3773bd-5d58-42f6-89cf-4b56568c506c"
        }
      }
    },
    {
      "fullUrl": "urn:uuid:8ede0a4b-22f6-4768-918e-ee1f07efe417",
      "resource": {
        "resourceType": "Observation",
        "id": "8ede0a4b-22f6-4768-918e-ee1f07efe417",
        "meta": {
          "profile": [
            "http://hl7.eu/fhir/laboratory/StructureDefinition/Observation-resultslab-eu-lab"
          ]
        },
        "performer": [
          {
            "display": "The Central European Lab"
          }
        ],
        "category": [
          {
            "coding": [
              {
                "system": "http://terminology.hl7.org/CodeSystem/observation-category",
                "code": "laboratory"
              }
            ]
          }
        ],
        "code": {
          "coding": [
            {
              "code": "17861-6",
              "system": "http://loinc.org",
              "display": "Calcium [Mass/volume] in Serum or Plasma"
            }
          ],
          "text": "Calcium [Mass/volume] in Serum or Plasma"
        },
        "valueQuantity": {
          "system": "http://unitsofmeasure.org",
          "value": 9.6,
          "unit": "mg/dL",
          "code": "mg/dL"
        },
        "referenceRange": [
          {
            "low": {
              "value": 8.5,
              "code": "mg/dL",
              "system": "http://unitsofmeasure.org"
            }
          },
          {
            "high": {
              "value": 10.5,
              "code": "mg/dL",
              "system": "http://unitsofmeasure.org"
            }
          }
        ],
        "text": {
          "status": "generated",
          "div": "<div xmlns=\"http://www.w3.org/1999/xhtml\"><table class=\"hl7__eu__lab__report\"><tr><th>Test</th><th>27-Jun-2018</th><th>Reference&#xA0;Range</th><th>Unit</th></tr><tr><td>Calcium [Mass/volume] in Serum or Plasma</td><td>9.6</td><td>8.5 - 10.5</td><td></td><td>mg/dL</td></tr></table></div>"
        },
        "status": "final",
        "subject": {
          "reference": "urn:uuid:3218f1e5-8d11-4879-816f-5a73d876acf3",
          "display": "Θεμιστοκλής Λιναρδάκη"
        },
        "effectiveDateTime": "2018-06-27T06:16:00Z",
        "specimen": {
          "reference": "urn:uuid:9b3773bd-5d58-42f6-89cf-4b56568c506c"
        }
      }
    },
    {
      "fullUrl": "urn:uuid:edbafd42-a1ae-45bf-b0ef-e3b1c8552781",
      "resource": {
        "resourceType": "Observation",
        "id": "edbafd42-a1ae-45bf-b0ef-e3b1c8552781",
        "meta": {
          "profile": [
            "http://hl7.eu/fhir/laboratory/StructureDefinition/Observation-resultslab-eu-lab"
          ]
        },
        "performer": [
          {
            "display": "The Central European Lab"
          }
        ],
        "category": [
          {
            "coding": [
              {
                "system": "http://terminology.hl7.org/CodeSystem/observation-category",
                "code": "laboratory"
              }
            ]
          }
        ],
        "code": {
          "coding": [
            {
              "code": "2951-2",
              "system": "http://loinc.org",
              "display": "Sodium [Moles/volume] in Serum or Plasma"
            }
          ],
          "text": "Sodium [Moles/volume] in Serum or Plasma"
        },
        "valueQuantity": {
          "system": "http://unitsofmeasure.org",
          "value": 140.1,
          "unit": "mmol/L",
          "code": "mmol/L"
        },
        "referenceRange": [
          {
            "low": {
              "value": 135,
              "code": "mmol/L",
              "system": "http://unitsofmeasure.org"
            }
          },
          {
            "high": {
              "value": 145,
              "code": "mmol/L",
              "system": "http://unitsofmeasure.org"
            }
          }
        ],
        "text": {
          "status": "generated",
          "div": "<div xmlns=\"http://www.w3.org/1999/xhtml\"><table class=\"hl7__eu__lab__report\"><tr><th>Test</th><th>27-Jun-2018</th><th>Reference&#xA0;Range</th><th>Unit</th></tr><tr><td>Sodium [Moles/volume] in Serum or Plasma</td><td>140.1</td><td>135 - 145</td><td></td><td>mmol/L</td></tr></table></div>"
        },
        "status": "final",
        "subject": {
          "reference": "urn:uuid:3218f1e5-8d11-4879-816f-5a73d876acf3",
          "display": "Θεμιστοκλής Λιναρδάκη"
        },
        "effectiveDateTime": "2018-06-27T06:16:00Z",
        "specimen": {
          "reference": "urn:uuid:9b3773bd-5d58-42f6-89cf-4b56568c506c"
        }
      }
    },
    {
      "fullUrl": "urn:uuid:c060daed-aa2f-426c-becd-1808c439e651",
      "resource": {
        "resourceType": "Observation",
        "id": "c060daed-aa2f-426c-becd-1808c439e651",
        "meta": {
          "profile": [
            "http://hl7.eu/fhir/laboratory/StructureDefinition/Observation-resultslab-eu-lab"
          ]
        },
        "performer": [
          {
            "display": "The Central European Lab"
          }
        ],
        "category": [
          {
            "coding": [
              {
                "system": "http://terminology.hl7.org/CodeSystem/observation-category",
                "code": "laboratory"
              }
            ]
          }
        ],
        "code": {
          "coding": [
            {
              "code": "2823-3",
              "system": "http://loinc.org",
              "display": "Potassium [Moles/volume] in Serum or Plasma"
            }
          ],
          "text": "Potassium [Moles/volume] in Serum or Plasma"
        },
        "valueQuantity": {
          "system": "http://unitsofmeasure.org",
          "value": 4,
          "unit": "mmol/L",
          "code": "mmol/L"
        },
        "referenceRange": [
          {
            "low": {
              "value": 3.5,
              "code": "mmol/L",
              "system": "http://unitsofmeasure.org"
            }
          },
          {
            "high": {
              "value": 5,
              "code": "mmol/L",
              "system": "http://unitsofmeasure.org"
            }
          }
        ],
        "text": {
          "status": "generated",
          "div": "<div xmlns=\"http://www.w3.org/1999/xhtml\"><table class=\"hl7__eu__lab__report\"><tr><th>Test</th><th>27-Jun-2018</th><th>Reference&#xA0;Range</th><th>Unit</th></tr><tr><td>Potassium [Moles/volume] in Serum or Plasma</td><td>4.0</td><td>3.5 - 5</td><td></td><td>mmol/L</td></tr></table></div>"
        },
        "status": "final",
        "subject": {
          "reference": "urn:uuid:3218f1e5-8d11-4879-816f-5a73d876acf3",
          "display": "Θεμιστοκλής Λιναρδάκη"
        },
        "effectiveDateTime": "2018-06-27T06:16:00Z",
        "specimen": {
          "reference": "urn:uuid:9b3773bd-5d58-42f6-89cf-4b56568c506c"
        }
      }
    },
    {
      "fullUrl": "urn:uuid:09237bca-4bea-446b-b7c3-1c051f93e826",
      "resource": {
        "resourceType": "Observation",
        "id": "09237bca-4bea-446b-b7c3-1c051f93e826",
        "meta": {
          "profile": [
            "http://hl7.eu/fhir/laboratory/StructureDefinition/Observation-resultslab-eu-lab"
          ]
        },
        "performer": [
          {
            "display": "The Central European Lab"
          }
        ],
        "category": [
          {
            "coding": [
              {
                "system": "http://terminology.hl7.org/CodeSystem/observation-category",
                "code": "laboratory"
              }
            ]
          }
        ],
        "code": {
          "coding": [
            {
              "code": "2075-0",
              "system": "http://loinc.org",
              "display": "Chloride [Moles/volume] in Serum or Plasma"
            }
          ],
          "text": "Chloride [Moles/volume] in Serum or Plasma"
        },
        "valueQuantity": {
          "system": "http://unitsofmeasure.org",
          "value": 110.7,
          "unit": "mmol/L",
          "code": "mmol/L"
        },
        "referenceRange": [
          {
            "low": {
              "value": 98,
              "code": "mmol/L",
              "system": "http://unitsofmeasure.org"
            }
          },
          {
            "high": {
              "value": 108,
              "code": "mmol/L",
              "system": "http://unitsofmeasure.org"
            }
          }
        ],
        "interpretation": [
          {
            "coding": [
              {
                "code": "H",
                "system": "http://terminology.hl7.org/CodeSystem/v3-ObservationInterpretation",
                "display": "High"
              }
            ]
          }
        ],
        "text": {
          "status": "generated",
          "div": "<div xmlns=\"http://www.w3.org/1999/xhtml\"><table class=\"hl7__eu__lab__report\"><tr><th>Test</th><th>27-Jun-2018</th><th>Reference&#xA0;Range</th><th>Unit</th></tr><tr><td>Chloride [Moles/volume] in Serum or Plasma</td><td>110.7</td><td>98 - 108</td><td>H</td><td>mmol/L</td></tr></table></div>"
        },
        "status": "final",
        "subject": {
          "reference": "urn:uuid:3218f1e5-8d11-4879-816f-5a73d876acf3",
          "display": "Θεμιστοκλής Λιναρδάκη"
        },
        "effectiveDateTime": "2018-06-27T06:16:00Z",
        "specimen": {
          "reference": "urn:uuid:9b3773bd-5d58-42f6-89cf-4b56568c506c"
        }
      }
    },
    {
      "fullUrl": "urn:uuid:b6b2b54a-9395-483b-8c86-e7dfae4a35bb",
      "resource": {
        "resourceType": "Observation",
        "id": "b6b2b54a-9395-483b-8c86-e7dfae4a35bb",
        "meta": {
          "profile": [
            "http://hl7.eu/fhir/laboratory/StructureDefinition/Observation-resultslab-eu-lab"
          ]
        },
        "performer": [
          {
            "display": "The Central European Lab"
          }
        ],
        "category": [
          {
            "coding": [
              {
                "system": "http://terminology.hl7.org/CodeSystem/observation-category",
                "code": "laboratory"
              }
            ]
          }
        ],
        "code": {
          "coding": [
            {
              "code": "2028-9",
              "system": "http://loinc.org",
              "display": "Carbon dioxide, total [Moles/volume] in Serum or Plasma"
            }
          ],
          "text": "Carbon dioxide, total [Moles/volume] in Serum or Plasma"
        },
        "valueQuantity": {
          "system": "http://unitsofmeasure.org",
          "value": 22.6,
          "unit": "mmol/L",
          "code": "mmol/L"
        },
        "referenceRange": [
          {
            "low": {
              "value": 22,
              "code": "mmol/L",
              "system": "http://unitsofmeasure.org"
            }
          },
          {
            "high": {
              "value": 29,
              "code": "mmol/L",
              "system": "http://unitsofmeasure.org"
            }
          }
        ],
        "text": {
          "status": "generated",
          "div": "<div xmlns=\"http://www.w3.org/1999/xhtml\"><table class=\"hl7__eu__lab__report\"><tr><th>Test</th><th>27-Jun-2018</th><th>Reference&#xA0;Range</th><th>Unit</th></tr><tr><td>Carbon dioxide, total [Moles/volume] in Serum or Plasma</td><td>22.6</td><td>22 - 29</td><td></td><td>mmol/L</td></tr></table></div>"
        },
        "status": "final",
        "subject": {
          "reference": "urn:uuid:3218f1e5-8d11-4879-816f-5a73d876acf3",
          "display": "Θεμιστοκλής Λιναρδάκη"
        },
        "effectiveDateTime": "2018-06-27T06:16:00Z",
        "specimen": {
          "reference": "urn:uuid:9b3773bd-5d58-42f6-89cf-4b56568c506c"
        }
      }
    },
    {
      "fullUrl": "urn:uuid:1e23e9bc-ab1a-42a0-adaf-fe4c6fe29efc",
      "resource": {
        "resourceType": "Observation",
        "id": "1e23e9bc-ab1a-42a0-adaf-fe4c6fe29efc",
        "meta": {
          "profile": [
            "http://hl7.eu/fhir/laboratory/StructureDefinition/Observation-resultslab-eu-lab"
          ]
        },
        "performer": [
          {
            "display": "The Central European Lab"
          }
        ],
        "category": [
          {
            "coding": [
              {
                "system": "http://terminology.hl7.org/CodeSystem/observation-category",
                "code": "laboratory"
              }
            ]
          }
        ],
        "code": {
          "coding": [
            {
              "code": "5767-9",
              "system": "http://loinc.org",
              "display": "Appearance of Urine"
            }
          ],
          "text": "Appearance of Urine"
        },
        "text": {
          "status": "generated",
          "div": "<div xmlns=\"http://www.w3.org/1999/xhtml\"><table class=\"hl7__eu__lab__report\"><tr><th>Test</th><th>27-Jun-2018</th><th>Reference&#xA0;Range</th><th>Unit</th></tr><tr><td>Appearance of Urine</td></tr></table></div>"
        },
        "status": "final",
        "subject": {
          "reference": "urn:uuid:3218f1e5-8d11-4879-816f-5a73d876acf3",
          "display": "Θεμιστοκλής Λιναρδάκη"
        },
        "effectiveDateTime": "2018-06-27T06:16:00Z",
        "specimen": {
          "reference": "urn:uuid:d679f644-efc4-4c07-8aab-fd240b617985"
        }
      }
    },
    {
      "fullUrl": "urn:uuid:379480b7-6493-4571-b9da-bab802970417",
      "resource": {
        "resourceType": "Observation",
        "id": "379480b7-6493-4571-b9da-bab802970417",
        "meta": {
          "profile": [
            "http://hl7.eu/fhir/laboratory/StructureDefinition/Observation-resultslab-eu-lab"
          ]
        },
        "performer": [
          {
            "display": "The Central European Lab"
          }
        ],
        "category": [
          {
            "coding": [
              {
                "system": "http://terminology.hl7.org/CodeSystem/observation-category",
                "code": "laboratory"
              }
            ]
          }
        ],
        "code": {
          "coding": [
            {
              "code": "34533-0",
              "system": "http://loinc.org",
              "display": "Odor of Urine"
            }
          ],
          "text": "Odor of Urine"
        },
        "text": {
          "status": "generated",
          "div": "<div xmlns=\"http://www.w3.org/1999/xhtml\"><table class=\"hl7__eu__lab__report\"><tr><th>Test</th><th>27-Jun-2018</th><th>Reference&#xA0;Range</th><th>Unit</th></tr><tr><td>Odor of Urine</td></tr></table></div>"
        },
        "status": "final",
        "subject": {
          "reference": "urn:uuid:3218f1e5-8d11-4879-816f-5a73d876acf3",
          "display": "Θεμιστοκλής Λιναρδάκη"
        },
        "effectiveDateTime": "2018-06-27T06:16:00Z",
        "specimen": {
          "reference": "urn:uuid:d679f644-efc4-4c07-8aab-fd240b617985"
        }
      }
    },
    {
      "fullUrl": "urn:uuid:ae0d4b4a-2055-45e7-924f-c182932d9d9f",
      "resource": {
        "resourceType": "Observation",
        "id": "ae0d4b4a-2055-45e7-924f-c182932d9d9f",
        "meta": {
          "profile": [
            "http://hl7.eu/fhir/laboratory/StructureDefinition/Observation-resultslab-eu-lab"
          ]
        },
        "performer": [
          {
            "display": "The Central European Lab"
          }
        ],
        "category": [
          {
            "coding": [
              {
                "system": "http://terminology.hl7.org/CodeSystem/observation-category",
                "code": "laboratory"
              }
            ]
          }
        ],
        "code": {
          "coding": [
            {
              "code": "32167-9",
              "system": "http://loinc.org",
              "display": "Clarity of Urine"
            }
          ],
          "text": "Clarity of Urine"
        },
        "text": {
          "status": "generated",
          "div": "<div xmlns=\"http://www.w3.org/1999/xhtml\"><table class=\"hl7__eu__lab__report\"><tr><th>Test</th><th>27-Jun-2018</th><th>Reference&#xA0;Range</th><th>Unit</th></tr><tr><td>Clarity of Urine</td></tr></table></div>"
        },
        "status": "final",
        "subject": {
          "reference": "urn:uuid:3218f1e5-8d11-4879-816f-5a73d876acf3",
          "display": "Θεμιστοκλής Λιναρδάκη"
        },
        "effectiveDateTime": "2018-06-27T06:16:00Z",
        "specimen": {
          "reference": "urn:uuid:d679f644-efc4-4c07-8aab-fd240b617985"
        }
      }
    },
    {
      "fullUrl": "urn:uuid:212ce8bc-2213-471e-89c9-7f06141c750a",
      "resource": {
        "resourceType": "Observation",
        "id": "212ce8bc-2213-471e-89c9-7f06141c750a",
        "meta": {
          "profile": [
            "http://hl7.eu/fhir/laboratory/StructureDefinition/Observation-resultslab-eu-lab"
          ]
        },
        "performer": [
          {
            "display": "The Central European Lab"
          }
        ],
        "category": [
          {
            "coding": [
              {
                "system": "http://terminology.hl7.org/CodeSystem/observation-category",
                "code": "laboratory"
              }
            ]
          }
        ],
        "code": {
          "coding": [
            {
              "code": "5778-6",
              "system": "http://loinc.org",
              "display": "Color of Urine"
            }
          ],
          "text": "Color of Urine"
        },
        "text": {
          "status": "generated",
          "div": "<div xmlns=\"http://www.w3.org/1999/xhtml\"><table class=\"hl7__eu__lab__report\"><tr><th>Test</th><th>27-Jun-2018</th><th>Reference&#xA0;Range</th><th>Unit</th></tr><tr><td>Color of Urine</td></tr></table></div>"
        },
        "status": "final",
        "subject": {
          "reference": "urn:uuid:3218f1e5-8d11-4879-816f-5a73d876acf3",
          "display": "Θεμιστοκλής Λιναρδάκη"
        },
        "effectiveDateTime": "2018-06-27T06:16:00Z",
        "specimen": {
          "reference": "urn:uuid:d679f644-efc4-4c07-8aab-fd240b617985"
        }
      }
    },
    {
      "fullUrl": "urn:uuid:8811e421-03ae-4de0-9fcd-f40d0ddc327c",
      "resource": {
        "resourceType": "Observation",
        "id": "8811e421-03ae-4de0-9fcd-f40d0ddc327c",
        "meta": {
          "profile": [
            "http://hl7.eu/fhir/laboratory/StructureDefinition/Observation-resultslab-eu-lab"
          ]
        },
        "performer": [
          {
            "display": "The Central European Lab"
          }
        ],
        "category": [
          {
            "coding": [
              {
                "system": "http://terminology.hl7.org/CodeSystem/observation-category",
                "code": "laboratory"
              }
            ]
          }
        ],
        "code": {
          "coding": [
            {
              "code": "5792-7",
              "system": "http://loinc.org",
              "display": "Glucose [Mass/volume] in Urine by Test strip"
            }
          ],
          "text": "Glucose [Mass/volume] in Urine by Test strip"
        },
        "valueQuantity": {
          "system": "http://unitsofmeasure.org",
          "value": 2.3,
          "unit": "mg/dL",
          "code": "mg/dL"
        },
        "referenceRange": [
          {
            "low": {
              "value": 0,
              "code": "mg/dL",
              "system": "http://unitsofmeasure.org"
            }
          },
          {
            "high": {
              "value": 0.8,
              "code": "mg/dL",
              "system": "http://unitsofmeasure.org"
            }
          }
        ],
        "interpretation": [
          {
            "coding": [
              {
                "code": "H",
                "system": "http://terminology.hl7.org/CodeSystem/v3-ObservationInterpretation",
                "display": "High"
              }
            ]
          }
        ],
        "text": {
          "status": "generated",
          "div": "<div xmlns=\"http://www.w3.org/1999/xhtml\"><table class=\"hl7__eu__lab__report\"><tr><th>Test</th><th>27-Jun-2018</th><th>Reference&#xA0;Range</th><th>Unit</th></tr><tr><td>Glucose [Mass/volume] in Urine by Test strip</td><td>2.3</td><td>0 - 0.8</td><td>H</td><td>mg/dL</td></tr></table></div>"
        },
        "status": "final",
        "subject": {
          "reference": "urn:uuid:3218f1e5-8d11-4879-816f-5a73d876acf3",
          "display": "Θεμιστοκλής Λιναρδάκη"
        },
        "effectiveDateTime": "2018-06-27T06:16:00Z",
        "specimen": {
          "reference": "urn:uuid:d679f644-efc4-4c07-8aab-fd240b617985"
        }
      }
    },
    {
      "fullUrl": "urn:uuid:b876c753-fe4d-4b1b-8b8e-930b51ab9116",
      "resource": {
        "resourceType": "Observation",
        "id": "b876c753-fe4d-4b1b-8b8e-930b51ab9116",
        "meta": {
          "profile": [
            "http://hl7.eu/fhir/laboratory/StructureDefinition/Observation-resultslab-eu-lab"
          ]
        },
        "performer": [
          {
            "display": "The Central European Lab"
          }
        ],
        "category": [
          {
            "coding": [
              {
                "system": "http://terminology.hl7.org/CodeSystem/observation-category",
                "code": "laboratory"
              }
            ]
          }
        ],
        "code": {
          "coding": [
            {
              "code": "25428-4",
              "system": "http://loinc.org",
              "display": "Glucose [Presence] in Urine by Test strip"
            }
          ],
          "text": "Glucose [Presence] in Urine by Test strip"
        },
        "text": {
          "status": "generated",
          "div": "<div xmlns=\"http://www.w3.org/1999/xhtml\"><table class=\"hl7__eu__lab__report\"><tr><th>Test</th><th>27-Jun-2018</th><th>Reference&#xA0;Range</th><th>Unit</th></tr><tr><td>Glucose [Presence] in Urine by Test strip</td></tr></table></div>"
        },
        "status": "final",
        "subject": {
          "reference": "urn:uuid:3218f1e5-8d11-4879-816f-5a73d876acf3",
          "display": "Θεμιστοκλής Λιναρδάκη"
        },
        "effectiveDateTime": "2018-06-27T06:16:00Z",
        "specimen": {
          "reference": "urn:uuid:d679f644-efc4-4c07-8aab-fd240b617985"
        }
      }
    },
    {
      "fullUrl": "urn:uuid:35cedda5-1bfe-48b0-94db-5de33aa49a6b",
      "resource": {
        "resourceType": "Observation",
        "id": "35cedda5-1bfe-48b0-94db-5de33aa49a6b",
        "meta": {
          "profile": [
            "http://hl7.eu/fhir/laboratory/StructureDefinition/Observation-resultslab-eu-lab"
          ]
        },
        "performer": [
          {
            "display": "The Central European Lab"
          }
        ],
        "category": [
          {
            "coding": [
              {
                "system": "http://terminology.hl7.org/CodeSystem/observation-category",
                "code": "laboratory"
              }
            ]
          }
        ],
        "code": {
          "coding": [
            {
              "code": "20505-4",
              "system": "http://loinc.org",
              "display": "Bilirubin.total [Mass/volume] in Urine by Test strip"
            }
          ],
          "text": "Bilirubin.total [Mass/volume] in Urine by Test strip"
        },
        "valueQuantity": {
          "system": "http://unitsofmeasure.org",
          "value": 1.2,
          "unit": "mg/dL",
          "code": "mg/dL"
        },
        "referenceRange": [
          {
            "low": {
              "value": 0.2,
              "code": "mg/dL",
              "system": "http://unitsofmeasure.org"
            }
          },
          {
            "high": {
              "value": 1,
              "code": "mg/dL",
              "system": "http://unitsofmeasure.org"
            }
          }
        ],
        "interpretation": [
          {
            "coding": [
              {
                "code": "H",
                "system": "http://terminology.hl7.org/CodeSystem/v3-ObservationInterpretation",
                "display": "High"
              }
            ]
          }
        ],
        "text": {
          "status": "generated",
          "div": "<div xmlns=\"http://www.w3.org/1999/xhtml\"><table class=\"hl7__eu__lab__report\"><tr><th>Test</th><th>27-Jun-2018</th><th>Reference&#xA0;Range</th><th>Unit</th></tr><tr><td>Bilirubin.total [Mass/volume] in Urine by Test strip</td><td>1.2</td><td>0.2 - 1</td><td>H</td><td>mg/dL</td></tr></table></div>"
        },
        "status": "final",
        "subject": {
          "reference": "urn:uuid:3218f1e5-8d11-4879-816f-5a73d876acf3",
          "display": "Θεμιστοκλής Λιναρδάκη"
        },
        "effectiveDateTime": "2018-06-27T06:16:00Z",
        "specimen": {
          "reference": "urn:uuid:d679f644-efc4-4c07-8aab-fd240b617985"
        }
      }
    },
    {
      "fullUrl": "urn:uuid:041b8c99-7aec-49bb-8c54-0cb16bb5e260",
      "resource": {
        "resourceType": "Observation",
        "id": "041b8c99-7aec-49bb-8c54-0cb16bb5e260",
        "meta": {
          "profile": [
            "http://hl7.eu/fhir/laboratory/StructureDefinition/Observation-resultslab-eu-lab"
          ]
        },
        "performer": [
          {
            "display": "The Central European Lab"
          }
        ],
        "category": [
          {
            "coding": [
              {
                "system": "http://terminology.hl7.org/CodeSystem/observation-category",
                "code": "laboratory"
              }
            ]
          }
        ],
        "code": {
          "coding": [
            {
              "code": "5770-3",
              "system": "http://loinc.org",
              "display": "Bilirubin.total [Presence] in Urine by Test strip"
            }
          ],
          "text": "Bilirubin.total [Presence] in Urine by Test strip"
        },
        "text": {
          "status": "generated",
          "div": "<div xmlns=\"http://www.w3.org/1999/xhtml\"><table class=\"hl7__eu__lab__report\"><tr><th>Test</th><th>27-Jun-2018</th><th>Reference&#xA0;Range</th><th>Unit</th></tr><tr><td>Bilirubin.total [Presence] in Urine by Test strip</td></tr></table></div>"
        },
        "status": "final",
        "subject": {
          "reference": "urn:uuid:3218f1e5-8d11-4879-816f-5a73d876acf3",
          "display": "Θεμιστοκλής Λιναρδάκη"
        },
        "effectiveDateTime": "2018-06-27T06:16:00Z",
        "specimen": {
          "reference": "urn:uuid:d679f644-efc4-4c07-8aab-fd240b617985"
        }
      }
    },
    {
      "fullUrl": "urn:uuid:be60d1ce-1c0f-4616-a2fd-2b7ce2aa8f89",
      "resource": {
        "resourceType": "Observation",
        "id": "be60d1ce-1c0f-4616-a2fd-2b7ce2aa8f89",
        "meta": {
          "profile": [
            "http://hl7.eu/fhir/laboratory/StructureDefinition/Observation-resultslab-eu-lab"
          ]
        },
        "performer": [
          {
            "display": "The Central European Lab"
          }
        ],
        "category": [
          {
            "coding": [
              {
                "system": "http://terminology.hl7.org/CodeSystem/observation-category",
                "code": "laboratory"
              }
            ]
          }
        ],
        "code": {
          "coding": [
            {
              "code": "5797-6",
              "system": "http://loinc.org",
              "display": "Ketones [Mass/volume] in Urine by Test strip"
            }
          ],
          "text": "Ketones [Mass/volume] in Urine by Test strip"
        },
        "valueQuantity": {
          "system": "http://unitsofmeasure.org",
          "value": 5.2,
          "unit": "mg/dL",
          "code": "mg/dL"
        },
        "referenceRange": [
          {
            "low": {
              "value": 0,
              "code": "mg/dL",
              "system": "http://unitsofmeasure.org"
            }
          },
          {
            "high": {
              "value": 5,
              "code": "mg/dL",
              "system": "http://unitsofmeasure.org"
            }
          }
        ],
        "interpretation": [
          {
            "coding": [
              {
                "code": "H",
                "system": "http://terminology.hl7.org/CodeSystem/v3-ObservationInterpretation",
                "display": "High"
              }
            ]
          }
        ],
        "text": {
          "status": "generated",
          "div": "<div xmlns=\"http://www.w3.org/1999/xhtml\"><table class=\"hl7__eu__lab__report\"><tr><th>Test</th><th>27-Jun-2018</th><th>Reference&#xA0;Range</th><th>Unit</th></tr><tr><td>Ketones [Mass/volume] in Urine by Test strip</td><td>5.2</td><td>0 - 5</td><td>H</td><td>mg/dL</td></tr></table></div>"
        },
        "status": "final",
        "subject": {
          "reference": "urn:uuid:3218f1e5-8d11-4879-816f-5a73d876acf3",
          "display": "Θεμιστοκλής Λιναρδάκη"
        },
        "effectiveDateTime": "2018-06-27T06:16:00Z",
        "specimen": {
          "reference": "urn:uuid:d679f644-efc4-4c07-8aab-fd240b617985"
        }
      }
    },
    {
      "fullUrl": "urn:uuid:21804226-b93b-4bd9-aacd-d3a5cb89ab0d",
      "resource": {
        "resourceType": "Observation",
        "id": "21804226-b93b-4bd9-aacd-d3a5cb89ab0d",
        "meta": {
          "profile": [
            "http://hl7.eu/fhir/laboratory/StructureDefinition/Observation-resultslab-eu-lab"
          ]
        },
        "performer": [
          {
            "display": "The Central European Lab"
          }
        ],
        "category": [
          {
            "coding": [
              {
                "system": "http://terminology.hl7.org/CodeSystem/observation-category",
                "code": "laboratory"
              }
            ]
          }
        ],
        "code": {
          "coding": [
            {
              "code": "2514-8",
              "system": "http://loinc.org",
              "display": "Ketones [Presence] in Urine by Test strip"
            }
          ],
          "text": "Ketones [Presence] in Urine by Test strip"
        },
        "text": {
          "status": "generated",
          "div": "<div xmlns=\"http://www.w3.org/1999/xhtml\"><table class=\"hl7__eu__lab__report\"><tr><th>Test</th><th>27-Jun-2018</th><th>Reference&#xA0;Range</th><th>Unit</th></tr><tr><td>Ketones [Presence] in Urine by Test strip</td></tr></table></div>"
        },
        "status": "final",
        "subject": {
          "reference": "urn:uuid:3218f1e5-8d11-4879-816f-5a73d876acf3",
          "display": "Θεμιστοκλής Λιναρδάκη"
        },
        "effectiveDateTime": "2018-06-27T06:16:00Z",
        "specimen": {
          "reference": "urn:uuid:d679f644-efc4-4c07-8aab-fd240b617985"
        }
      }
    },
    {
      "fullUrl": "urn:uuid:1abd7dca-960d-4198-ac74-e516578e2888",
      "resource": {
        "resourceType": "Observation",
        "id": "1abd7dca-960d-4198-ac74-e516578e2888",
        "meta": {
          "profile": [
            "http://hl7.eu/fhir/laboratory/StructureDefinition/Observation-resultslab-eu-lab"
          ]
        },
        "performer": [
          {
            "display": "The Central European Lab"
          }
        ],
        "category": [
          {
            "coding": [
              {
                "system": "http://terminology.hl7.org/CodeSystem/observation-category",
                "code": "laboratory"
              }
            ]
          }
        ],
        "code": {
          "coding": [
            {
              "code": "5811-5",
              "system": "http://loinc.org",
              "display": "Specific gravity of Urine by Test strip"
            }
          ],
          "text": "Specific gravity of Urine by Test strip"
        },
        "valueQuantity": {
          "system": "http://unitsofmeasure.org",
          "value": 1,
          "unit": "{nominal}",
          "code": "{nominal}"
        },
        "referenceRange": [
          {
            "low": {
              "value": 1.005,
              "code": "g/mL",
              "system": "http://unitsofmeasure.org"
            }
          },
          {
            "high": {
              "value": 1.03,
              "code": "g/mL",
              "system": "http://unitsofmeasure.org"
            }
          }
        ],
        "interpretation": [
          {
            "coding": [
              {
                "code": "L",
                "system": "http://terminology.hl7.org/CodeSystem/v3-ObservationInterpretation",
                "display": "Low"
              }
            ]
          }
        ],
        "text": {
          "status": "generated",
          "div": "<div xmlns=\"http://www.w3.org/1999/xhtml\"><table class=\"hl7__eu__lab__report\"><tr><th>Test</th><th>27-Jun-2018</th><th>Reference&#xA0;Range</th><th>Unit</th></tr><tr><td>Specific gravity of Urine by Test strip</td><td>1.0</td><td>1.005 - 1.03</td><td>L</td><td>{nominal}</td></tr></table></div>"
        },
        "status": "final",
        "subject": {
          "reference": "urn:uuid:3218f1e5-8d11-4879-816f-5a73d876acf3",
          "display": "Θεμιστοκλής Λιναρδάκη"
        },
        "effectiveDateTime": "2018-06-27T06:16:00Z",
        "specimen": {
          "reference": "urn:uuid:d679f644-efc4-4c07-8aab-fd240b617985"
        }
      }
    },
    {
      "fullUrl": "urn:uuid:7edd74c0-9276-49be-b6f2-fe40738351e1",
      "resource": {
        "resourceType": "Observation",
        "id": "7edd74c0-9276-49be-b6f2-fe40738351e1",
        "meta": {
          "profile": [
            "http://hl7.eu/fhir/laboratory/StructureDefinition/Observation-resultslab-eu-lab"
          ]
        },
        "performer": [
          {
            "display": "The Central European Lab"
          }
        ],
        "category": [
          {
            "coding": [
              {
                "system": "http://terminology.hl7.org/CodeSystem/observation-category",
                "code": "laboratory"
              }
            ]
          }
        ],
        "code": {
          "coding": [
            {
              "code": "5803-2",
              "system": "http://loinc.org",
              "display": "pH of Urine by Test strip"
            }
          ],
          "text": "pH of Urine by Test strip"
        },
        "valueQuantity": {
          "system": "http://unitsofmeasure.org",
          "value": 6.8,
          "unit": "pH",
          "code": "pH"
        },
        "referenceRange": [
          {
            "low": {
              "value": 4.6,
              "code": "pH",
              "system": "http://unitsofmeasure.org"
            }
          },
          {
            "high": {
              "value": 7,
              "code": "pH",
              "system": "http://unitsofmeasure.org"
            }
          }
        ],
        "text": {
          "status": "generated",
          "div": "<div xmlns=\"http://www.w3.org/1999/xhtml\"><table class=\"hl7__eu__lab__report\"><tr><th>Test</th><th>27-Jun-2018</th><th>Reference&#xA0;Range</th><th>Unit</th></tr><tr><td>pH of Urine by Test strip</td><td>6.8</td><td>4.6 - 7</td><td></td><td>pH</td></tr></table></div>"
        },
        "status": "final",
        "subject": {
          "reference": "urn:uuid:3218f1e5-8d11-4879-816f-5a73d876acf3",
          "display": "Θεμιστοκλής Λιναρδάκη"
        },
        "effectiveDateTime": "2018-06-27T06:16:00Z",
        "specimen": {
          "reference": "urn:uuid:d679f644-efc4-4c07-8aab-fd240b617985"
        }
      }
    },
    {
      "fullUrl": "urn:uuid:e1be2d95-b2eb-4e12-ac8a-9bda6d2eb02b",
      "resource": {
        "resourceType": "Observation",
        "id": "e1be2d95-b2eb-4e12-ac8a-9bda6d2eb02b",
        "meta": {
          "profile": [
            "http://hl7.eu/fhir/laboratory/StructureDefinition/Observation-resultslab-eu-lab"
          ]
        },
        "performer": [
          {
            "display": "The Central European Lab"
          }
        ],
        "category": [
          {
            "coding": [
              {
                "system": "http://terminology.hl7.org/CodeSystem/observation-category",
                "code": "laboratory"
              }
            ]
          }
        ],
        "code": {
          "coding": [
            {
              "code": "5804-0",
              "system": "http://loinc.org",
              "display": "Protein [Mass/volume] in Urine by Test strip"
            }
          ],
          "text": "Protein [Mass/volume] in Urine by Test strip"
        },
        "valueQuantity": {
          "system": "http://unitsofmeasure.org",
          "value": 222.5,
          "unit": "mg/dL",
          "code": "mg/dL"
        },
        "referenceRange": [
          {
            "low": {
              "value": 0,
              "code": "mg/dL",
              "system": "http://unitsofmeasure.org"
            }
          },
          {
            "high": {
              "value": 150,
              "code": "mg/dL",
              "system": "http://unitsofmeasure.org"
            }
          }
        ],
        "interpretation": [
          {
            "coding": [
              {
                "code": "H",
                "system": "http://terminology.hl7.org/CodeSystem/v3-ObservationInterpretation",
                "display": "High"
              }
            ]
          }
        ],
        "text": {
          "status": "generated",
          "div": "<div xmlns=\"http://www.w3.org/1999/xhtml\"><table class=\"hl7__eu__lab__report\"><tr><th>Test</th><th>27-Jun-2018</th><th>Reference&#xA0;Range</th><th>Unit</th></tr><tr><td>Protein [Mass/volume] in Urine by Test strip</td><td>222.5</td><td>0 - 150</td><td>H</td><td>mg/dL</td></tr></table></div>"
        },
        "status": "final",
        "subject": {
          "reference": "urn:uuid:3218f1e5-8d11-4879-816f-5a73d876acf3",
          "display": "Θεμιστοκλής Λιναρδάκη"
        },
        "effectiveDateTime": "2018-06-27T06:16:00Z",
        "specimen": {
          "reference": "urn:uuid:d679f644-efc4-4c07-8aab-fd240b617985"
        }
      }
    },
    {
      "fullUrl": "urn:uuid:d26b9ded-8aa7-4558-8d77-29b3dab3cc53",
      "resource": {
        "resourceType": "Observation",
        "id": "d26b9ded-8aa7-4558-8d77-29b3dab3cc53",
        "meta": {
          "profile": [
            "http://hl7.eu/fhir/laboratory/StructureDefinition/Observation-resultslab-eu-lab"
          ]
        },
        "performer": [
          {
            "display": "The Central European Lab"
          }
        ],
        "category": [
          {
            "coding": [
              {
                "system": "http://terminology.hl7.org/CodeSystem/observation-category",
                "code": "laboratory"
              }
            ]
          }
        ],
        "code": {
          "coding": [
            {
              "code": "20454-5",
              "system": "http://loinc.org",
              "display": "Protein [Presence] in Urine by Test strip"
            }
          ],
          "text": "Protein [Presence] in Urine by Test strip"
        },
        "text": {
          "status": "generated",
          "div": "<div xmlns=\"http://www.w3.org/1999/xhtml\"><table class=\"hl7__eu__lab__report\"><tr><th>Test</th><th>27-Jun-2018</th><th>Reference&#xA0;Range</th><th>Unit</th></tr><tr><td>Protein [Presence] in Urine by Test strip</td></tr></table></div>"
        },
        "status": "final",
        "subject": {
          "reference": "urn:uuid:3218f1e5-8d11-4879-816f-5a73d876acf3",
          "display": "Θεμιστοκλής Λιναρδάκη"
        },
        "effectiveDateTime": "2018-06-27T06:16:00Z",
        "specimen": {
          "reference": "urn:uuid:d679f644-efc4-4c07-8aab-fd240b617985"
        }
      }
    },
    {
      "fullUrl": "urn:uuid:5aa124fa-41e5-4953-91e7-fba5a3903725",
      "resource": {
        "resourceType": "Observation",
        "id": "5aa124fa-41e5-4953-91e7-fba5a3903725",
        "meta": {
          "profile": [
            "http://hl7.eu/fhir/laboratory/StructureDefinition/Observation-resultslab-eu-lab"
          ]
        },
        "performer": [
          {
            "display": "The Central European Lab"
          }
        ],
        "category": [
          {
            "coding": [
              {
                "system": "http://terminology.hl7.org/CodeSystem/observation-category",
                "code": "laboratory"
              }
            ]
          }
        ],
        "code": {
          "coding": [
            {
              "code": "5802-4",
              "system": "http://loinc.org",
              "display": "Nitrite [Presence] in Urine by Test strip"
            }
          ],
          "text": "Nitrite [Presence] in Urine by Test strip"
        },
        "text": {
          "status": "generated",
          "div": "<div xmlns=\"http://www.w3.org/1999/xhtml\"><table class=\"hl7__eu__lab__report\"><tr><th>Test</th><th>27-Jun-2018</th><th>Reference&#xA0;Range</th><th>Unit</th></tr><tr><td>Nitrite [Presence] in Urine by Test strip</td></tr></table></div>"
        },
        "status": "final",
        "subject": {
          "reference": "urn:uuid:3218f1e5-8d11-4879-816f-5a73d876acf3",
          "display": "Θεμιστοκλής Λιναρδάκη"
        },
        "effectiveDateTime": "2018-06-27T06:16:00Z",
        "specimen": {
          "reference": "urn:uuid:d679f644-efc4-4c07-8aab-fd240b617985"
        }
      }
    },
    {
      "fullUrl": "urn:uuid:8ecf58f1-938c-4a79-b6ea-6cf42f82bbf4",
      "resource": {
        "resourceType": "Observation",
        "id": "8ecf58f1-938c-4a79-b6ea-6cf42f82bbf4",
        "meta": {
          "profile": [
            "http://hl7.eu/fhir/laboratory/StructureDefinition/Observation-resultslab-eu-lab"
          ]
        },
        "performer": [
          {
            "display": "The Central European Lab"
          }
        ],
        "category": [
          {
            "coding": [
              {
                "system": "http://terminology.hl7.org/CodeSystem/observation-category",
                "code": "laboratory"
              }
            ]
          }
        ],
        "code": {
          "coding": [
            {
              "code": "5794-3",
              "system": "http://loinc.org",
              "display": "Hemoglobin [Presence] in Urine by Test strip"
            }
          ],
          "text": "Hemoglobin [Presence] in Urine by Test strip"
        },
        "text": {
          "status": "generated",
          "div": "<div xmlns=\"http://www.w3.org/1999/xhtml\"><table class=\"hl7__eu__lab__report\"><tr><th>Test</th><th>27-Jun-2018</th><th>Reference&#xA0;Range</th><th>Unit</th></tr><tr><td>Hemoglobin [Presence] in Urine by Test strip</td></tr></table></div>"
        },
        "status": "final",
        "subject": {
          "reference": "urn:uuid:3218f1e5-8d11-4879-816f-5a73d876acf3",
          "display": "Θεμιστοκλής Λιναρδάκη"
        },
        "effectiveDateTime": "2018-06-27T06:16:00Z",
        "specimen": {
          "reference": "urn:uuid:d679f644-efc4-4c07-8aab-fd240b617985"
        }
      }
    },
    {
      "fullUrl": "urn:uuid:98896bec-e5ff-4bd0-9617-cb278282df37",
      "resource": {
        "resourceType": "Observation",
        "id": "98896bec-e5ff-4bd0-9617-cb278282df37",
        "meta": {
          "profile": [
            "http://hl7.eu/fhir/laboratory/StructureDefinition/Observation-resultslab-eu-lab"
          ]
        },
        "performer": [
          {
            "display": "The Central European Lab"
          }
        ],
        "category": [
          {
            "coding": [
              {
                "system": "http://terminology.hl7.org/CodeSystem/observation-category",
                "code": "laboratory"
              }
            ]
          }
        ],
        "code": {
          "coding": [
            {
              "code": "5799-2",
              "system": "http://loinc.org",
              "display": "Leukocyte esterase [Presence] in Urine by Test strip"
            }
          ],
          "text": "Leukocyte esterase [Presence] in Urine by Test strip"
        },
        "text": {
          "status": "generated",
          "div": "<div xmlns=\"http://www.w3.org/1999/xhtml\"><table class=\"hl7__eu__lab__report\"><tr><th>Test</th><th>27-Jun-2018</th><th>Reference&#xA0;Range</th><th>Unit</th></tr><tr><td>Leukocyte esterase [Presence] in Urine by Test strip</td></tr></table></div>"
        },
        "status": "final",
        "subject": {
          "reference": "urn:uuid:3218f1e5-8d11-4879-816f-5a73d876acf3",
          "display": "Θεμιστοκλής Λιναρδάκη"
        },
        "effectiveDateTime": "2018-06-27T06:16:00Z",
        "specimen": {
          "reference": "urn:uuid:d679f644-efc4-4c07-8aab-fd240b617985"
        }
      }
    },
    {
      "fullUrl": "urn:uuid:795ca8c0-cb9b-489d-b758-ffe5cc8e8088",
      "resource": {
        "resourceType": "Observation",
        "id": "795ca8c0-cb9b-489d-b758-ffe5cc8e8088",
        "meta": {
          "profile": [
            "http://hl7.eu/fhir/laboratory/StructureDefinition/Observation-resultslab-eu-lab"
          ]
        },
        "performer": [
          {
            "display": "The Central European Lab"
          }
        ],
        "category": [
          {
            "coding": [
              {
                "system": "http://terminology.hl7.org/CodeSystem/observation-category",
                "code": "laboratory"
              }
            ]
          }
        ],
        "code": {
          "coding": [
            {
              "code": "4548-4",
              "system": "http://loinc.org",
              "display": "Hemoglobin A1c/Hemoglobin.total in Blood"
            }
          ],
          "text": "Hemoglobin A1c/Hemoglobin.total in Blood"
        },
        "valueQuantity": {
          "system": "http://unitsofmeasure.org",
          "value": 2.8,
          "unit": "%",
          "code": "%"
        },
        "referenceRange": [
          {
            "low": {
              "value": 4.3,
              "code": "%",
              "system": "http://unitsofmeasure.org"
            }
          },
          {
            "high": {
              "value": 6.4,
              "code": "%",
              "system": "http://unitsofmeasure.org"
            }
          }
        ],
        "interpretation": [
          {
            "coding": [
              {
                "code": "L",
                "system": "http://terminology.hl7.org/CodeSystem/v3-ObservationInterpretation",
                "display": "Low"
              }
            ]
          }
        ],
        "text": {
          "status": "generated",
          "div": "<div xmlns=\"http://www.w3.org/1999/xhtml\"><table class=\"hl7__eu__lab__report\"><tr><th>Test</th><th>27-Jun-2018</th><th>Reference&#xA0;Range</th><th>Unit</th></tr><tr><td>Hemoglobin A1c/Hemoglobin.total in Blood</td><td>2.8</td><td>4.3 - 6.4</td><td>L</td><td>%</td></tr></table></div>"
        },
        "status": "final",
        "subject": {
          "reference": "urn:uuid:3218f1e5-8d11-4879-816f-5a73d876acf3",
          "display": "Θεμιστοκλής Λιναρδάκη"
        },
        "effectiveDateTime": "2018-06-27T06:16:00Z",
        "specimen": {
          "reference": "urn:uuid:89473443-9379-4427-9ffa-3cd65d4b849a"
        }
      }
    },
    {
      "fullUrl": "urn:uuid:265ef446-06ef-4aed-8bb7-7ac06343f2c9",
      "resource": {
        "resourceType": "Observation",
        "id": "265ef446-06ef-4aed-8bb7-7ac06343f2c9",
        "meta": {
          "profile": [
            "http://hl7.eu/fhir/laboratory/StructureDefinition/Observation-resultslab-eu-lab"
          ]
        },
        "performer": [
          {
            "display": "The Central European Lab"
          }
        ],
        "category": [
          {
            "coding": [
              {
                "system": "http://terminology.hl7.org/CodeSystem/observation-category",
                "code": "laboratory"
              }
            ]
          }
        ],
        "code": {
          "coding": [
            {
              "code": "2339-0",
              "system": "http://loinc.org",
              "display": "Glucose [Mass/volume] in Blood"
            }
          ],
          "text": "Glucose [Mass/volume] in Blood"
        },
        "valueQuantity": {
          "system": "http://unitsofmeasure.org",
          "value": 79.2,
          "unit": "mg/dL",
          "code": "mg/dL"
        },
        "referenceRange": [
          {
            "low": {
              "value": 70,
              "code": "mg/dL",
              "system": "http://unitsofmeasure.org"
            }
          },
          {
            "high": {
              "value": 140,
              "code": "mg/dL",
              "system": "http://unitsofmeasure.org"
            }
          }
        ],
        "text": {
          "status": "generated",
          "div": "<div xmlns=\"http://www.w3.org/1999/xhtml\"><table class=\"hl7__eu__lab__report\"><tr><th>Test</th><th>27-Jun-2018</th><th>Reference&#xA0;Range</th><th>Unit</th></tr><tr><td>Glucose [Mass/volume] in Blood</td><td>79.2</td><td>70 - 140</td><td></td><td>mg/dL</td></tr></table></div>"
        },
        "status": "final",
        "subject": {
          "reference": "urn:uuid:3218f1e5-8d11-4879-816f-5a73d876acf3",
          "display": "Θεμιστοκλής Λιναρδάκη"
        },
        "effectiveDateTime": "2018-06-27T06:16:00Z",
        "specimen": {
          "reference": "urn:uuid:89473443-9379-4427-9ffa-3cd65d4b849a"
        }
      }
    },
    {
      "fullUrl": "urn:uuid:6bfaed21-ca4b-4f3f-aed1-2359d530d4ba",
      "resource": {
        "resourceType": "Observation",
        "id": "6bfaed21-ca4b-4f3f-aed1-2359d530d4ba",
        "meta": {
          "profile": [
            "http://hl7.eu/fhir/laboratory/StructureDefinition/Observation-resultslab-eu-lab"
          ]
        },
        "performer": [
          {
            "display": "The Central European Lab"
          }
        ],
        "category": [
          {
            "coding": [
              {
                "system": "http://terminology.hl7.org/CodeSystem/observation-category",
                "code": "laboratory"
              }
            ]
          }
        ],
        "code": {
          "coding": [
            {
              "code": "6299-2",
              "system": "http://loinc.org",
              "display": "Urea nitrogen [Mass/volume] in Blood"
            }
          ],
          "text": "Urea nitrogen [Mass/volume] in Blood"
        },
        "valueQuantity": {
          "system": "http://unitsofmeasure.org",
          "value": 12.1,
          "unit": "mg/dL",
          "code": "mg/dL"
        },
        "referenceRange": [
          {
            "low": {
              "value": 7,
              "code": "mg/dL",
              "system": "http://unitsofmeasure.org"
            }
          },
          {
            "high": {
              "value": 20,
              "code": "mg/dL",
              "system": "http://unitsofmeasure.org"
            }
          }
        ],
        "text": {
          "status": "generated",
          "div": "<div xmlns=\"http://www.w3.org/1999/xhtml\"><table class=\"hl7__eu__lab__report\"><tr><th>Test</th><th>27-Jun-2018</th><th>Reference&#xA0;Range</th><th>Unit</th></tr><tr><td>Urea nitrogen [Mass/volume] in Blood</td><td>12.1</td><td>7 - 20</td><td></td><td>mg/dL</td></tr></table></div>"
        },
        "status": "final",
        "subject": {
          "reference": "urn:uuid:3218f1e5-8d11-4879-816f-5a73d876acf3",
          "display": "Θεμιστοκλής Λιναρδάκη"
        },
        "effectiveDateTime": "2018-06-27T06:16:00Z",
        "specimen": {
          "reference": "urn:uuid:89473443-9379-4427-9ffa-3cd65d4b849a"
        }
      }
    },
    {
      "fullUrl": "urn:uuid:71fe5402-d666-4579-be57-01147f199d9b",
      "resource": {
        "resourceType": "Observation",
        "id": "71fe5402-d666-4579-be57-01147f199d9b",
        "meta": {
          "profile": [
            "http://hl7.eu/fhir/laboratory/StructureDefinition/Observation-resultslab-eu-lab"
          ]
        },
        "performer": [
          {
            "display": "The Central European Lab"
          }
        ],
        "category": [
          {
            "coding": [
              {
                "system": "http://terminology.hl7.org/CodeSystem/observation-category",
                "code": "laboratory"
              }
            ]
          }
        ],
        "code": {
          "coding": [
            {
              "code": "38483-4",
              "system": "http://loinc.org",
              "display": "Creatinine [Mass/volume] in Blood"
            }
          ],
          "text": "Creatinine [Mass/volume] in Blood"
        },
        "valueQuantity": {
          "system": "http://unitsofmeasure.org",
          "value": 9.3,
          "unit": "mg/dL",
          "code": "mg/dL"
        },
        "referenceRange": [
          {
            "low": {
              "value": 0.6,
              "code": "mg/dL",
              "system": "http://unitsofmeasure.org"
            }
          },
          {
            "high": {
              "value": 1.3,
              "code": "mg/dL",
              "system": "http://unitsofmeasure.org"
            }
          }
        ],
        "interpretation": [
          {
            "coding": [
              {
                "code": "H",
                "system": "http://terminology.hl7.org/CodeSystem/v3-ObservationInterpretation",
                "display": "High"
              }
            ]
          }
        ],
        "text": {
          "status": "generated",
          "div": "<div xmlns=\"http://www.w3.org/1999/xhtml\"><table class=\"hl7__eu__lab__report\"><tr><th>Test</th><th>27-Jun-2018</th><th>Reference&#xA0;Range</th><th>Unit</th></tr><tr><td>Creatinine [Mass/volume] in Blood</td><td>9.3</td><td>0.6 - 1.3</td><td>H</td><td>mg/dL</td></tr></table></div>"
        },
        "status": "final",
        "subject": {
          "reference": "urn:uuid:3218f1e5-8d11-4879-816f-5a73d876acf3",
          "display": "Θεμιστοκλής Λιναρδάκη"
        },
        "effectiveDateTime": "2018-06-27T06:16:00Z",
        "specimen": {
          "reference": "urn:uuid:89473443-9379-4427-9ffa-3cd65d4b849a"
        }
      }
    },
    {
      "fullUrl": "urn:uuid:51323928-6ebf-4c32-9506-301aa7737e7c",
      "resource": {
        "resourceType": "Observation",
        "id": "51323928-6ebf-4c32-9506-301aa7737e7c",
        "meta": {
          "profile": [
            "http://hl7.eu/fhir/laboratory/StructureDefinition/Observation-resultslab-eu-lab"
          ]
        },
        "performer": [
          {
            "display": "The Central European Lab"
          }
        ],
        "category": [
          {
            "coding": [
              {
                "system": "http://terminology.hl7.org/CodeSystem/observation-category",
                "code": "laboratory"
              }
            ]
          }
        ],
        "code": {
          "coding": [
            {
              "code": "49765-1",
              "system": "http://loinc.org",
              "display": "Calcium [Mass/volume] in Blood"
            }
          ],
          "text": "Calcium [Mass/volume] in Blood"
        },
        "valueQuantity": {
          "system": "http://unitsofmeasure.org",
          "value": 9.6,
          "unit": "mg/dL",
          "code": "mg/dL"
        },
        "referenceRange": [
          {
            "low": {
              "value": 8.5,
              "code": "mg/dL",
              "system": "http://unitsofmeasure.org"
            }
          },
          {
            "high": {
              "value": 10.5,
              "code": "mg/dL",
              "system": "http://unitsofmeasure.org"
            }
          }
        ],
        "text": {
          "status": "generated",
          "div": "<div xmlns=\"http://www.w3.org/1999/xhtml\"><table class=\"hl7__eu__lab__report\"><tr><th>Test</th><th>27-Jun-2018</th><th>Reference&#xA0;Range</th><th>Unit</th></tr><tr><td>Calcium [Mass/volume] in Blood</td><td>9.6</td><td>8.5 - 10.5</td><td></td><td>mg/dL</td></tr></table></div>"
        },
        "status": "final",
        "subject": {
          "reference": "urn:uuid:3218f1e5-8d11-4879-816f-5a73d876acf3",
          "display": "Θεμιστοκλής Λιναρδάκη"
        },
        "effectiveDateTime": "2018-06-27T06:16:00Z",
        "specimen": {
          "reference": "urn:uuid:89473443-9379-4427-9ffa-3cd65d4b849a"
        }
      }
    },
    {
      "fullUrl": "urn:uuid:b020175b-4241-4a65-aac0-f7b5174ac36e",
      "resource": {
        "resourceType": "Observation",
        "id": "b020175b-4241-4a65-aac0-f7b5174ac36e",
        "meta": {
          "profile": [
            "http://hl7.eu/fhir/laboratory/StructureDefinition/Observation-resultslab-eu-lab"
          ]
        },
        "performer": [
          {
            "display": "The Central European Lab"
          }
        ],
        "category": [
          {
            "coding": [
              {
                "system": "http://terminology.hl7.org/CodeSystem/observation-category",
                "code": "laboratory"
              }
            ]
          }
        ],
        "code": {
          "coding": [
            {
              "code": "2947-0",
              "system": "http://loinc.org",
              "display": "Sodium [Moles/volume] in Blood"
            }
          ],
          "text": "Sodium [Moles/volume] in Blood"
        },
        "valueQuantity": {
          "system": "http://unitsofmeasure.org",
          "value": 140.1,
          "unit": "mmol/L",
          "code": "mmol/L"
        },
        "referenceRange": [
          {
            "low": {
              "value": 135,
              "code": "mmol/L",
              "system": "http://unitsofmeasure.org"
            }
          },
          {
            "high": {
              "value": 145,
              "code": "mmol/L",
              "system": "http://unitsofmeasure.org"
            }
          }
        ],
        "text": {
          "status": "generated",
          "div": "<div xmlns=\"http://www.w3.org/1999/xhtml\"><table class=\"hl7__eu__lab__report\"><tr><th>Test</th><th>27-Jun-2018</th><th>Reference&#xA0;Range</th><th>Unit</th></tr><tr><td>Sodium [Moles/volume] in Blood</td><td>140.1</td><td>135 - 145</td><td></td><td>mmol/L</td></tr></table></div>"
        },
        "status": "final",
        "subject": {
          "reference": "urn:uuid:3218f1e5-8d11-4879-816f-5a73d876acf3",
          "display": "Θεμιστοκλής Λιναρδάκη"
        },
        "effectiveDateTime": "2018-06-27T06:16:00Z",
        "specimen": {
          "reference": "urn:uuid:89473443-9379-4427-9ffa-3cd65d4b849a"
        }
      }
    },
    {
      "fullUrl": "urn:uuid:03dbdee5-cd3a-48cf-96d7-bafc85a7b919",
      "resource": {
        "resourceType": "Observation",
        "id": "03dbdee5-cd3a-48cf-96d7-bafc85a7b919",
        "meta": {
          "profile": [
            "http://hl7.eu/fhir/laboratory/StructureDefinition/Observation-resultslab-eu-lab"
          ]
        },
        "performer": [
          {
            "display": "The Central European Lab"
          }
        ],
        "category": [
          {
            "coding": [
              {
                "system": "http://terminology.hl7.org/CodeSystem/observation-category",
                "code": "laboratory"
              }
            ]
          }
        ],
        "code": {
          "coding": [
            {
              "code": "6298-4",
              "system": "http://loinc.org",
              "display": "Potassium [Moles/volume] in Blood"
            }
          ],
          "text": "Potassium [Moles/volume] in Blood"
        },
        "valueQuantity": {
          "system": "http://unitsofmeasure.org",
          "value": 4,
          "unit": "mmol/L",
          "code": "mmol/L"
        },
        "referenceRange": [
          {
            "low": {
              "value": 3.5,
              "code": "mmol/L",
              "system": "http://unitsofmeasure.org"
            }
          },
          {
            "high": {
              "value": 5.3,
              "code": "mmol/L",
              "system": "http://unitsofmeasure.org"
            }
          }
        ],
        "text": {
          "status": "generated",
          "div": "<div xmlns=\"http://www.w3.org/1999/xhtml\"><table class=\"hl7__eu__lab__report\"><tr><th>Test</th><th>27-Jun-2018</th><th>Reference&#xA0;Range</th><th>Unit</th></tr><tr><td>Potassium [Moles/volume] in Blood</td><td>4.0</td><td>3.5 - 5.3</td><td></td><td>mmol/L</td></tr></table></div>"
        },
        "status": "final",
        "subject": {
          "reference": "urn:uuid:3218f1e5-8d11-4879-816f-5a73d876acf3",
          "display": "Θεμιστοκλής Λιναρδάκη"
        },
        "effectiveDateTime": "2018-06-27T06:16:00Z",
        "specimen": {
          "reference": "urn:uuid:89473443-9379-4427-9ffa-3cd65d4b849a"
        }
      }
    },
    {
      "fullUrl": "urn:uuid:c1ee7a14-b81b-44d8-9745-07f8931e3ce9",
      "resource": {
        "resourceType": "Observation",
        "id": "c1ee7a14-b81b-44d8-9745-07f8931e3ce9",
        "meta": {
          "profile": [
            "http://hl7.eu/fhir/laboratory/StructureDefinition/Observation-resultslab-eu-lab"
          ]
        },
        "performer": [
          {
            "display": "The Central European Lab"
          }
        ],
        "category": [
          {
            "coding": [
              {
                "system": "http://terminology.hl7.org/CodeSystem/observation-category",
                "code": "laboratory"
              }
            ]
          }
        ],
        "code": {
          "coding": [
            {
              "code": "2069-3",
              "system": "http://loinc.org",
              "display": "Chloride [Moles/volume] in Blood"
            }
          ],
          "text": "Chloride [Moles/volume] in Blood"
        },
        "valueQuantity": {
          "system": "http://unitsofmeasure.org",
          "value": 110.7,
          "unit": "mmol/L",
          "code": "mmol/L"
        },
        "referenceRange": [
          {
            "low": {
              "value": 98,
              "code": "mmol/L",
              "system": "http://unitsofmeasure.org"
            }
          },
          {
            "high": {
              "value": 110,
              "code": "mmol/L",
              "system": "http://unitsofmeasure.org"
            }
          }
        ],
        "interpretation": [
          {
            "coding": [
              {
                "code": "H",
                "system": "http://terminology.hl7.org/CodeSystem/v3-ObservationInterpretation",
                "display": "High"
              }
            ]
          }
        ],
        "text": {
          "status": "generated",
          "div": "<div xmlns=\"http://www.w3.org/1999/xhtml\"><table class=\"hl7__eu__lab__report\"><tr><th>Test</th><th>27-Jun-2018</th><th>Reference&#xA0;Range</th><th>Unit</th></tr><tr><td>Chloride [Moles/volume] in Blood</td><td>110.7</td><td>98 - 110</td><td>H</td><td>mmol/L</td></tr></table></div>"
        },
        "status": "final",
        "subject": {
          "reference": "urn:uuid:3218f1e5-8d11-4879-816f-5a73d876acf3",
          "display": "Θεμιστοκλής Λιναρδάκη"
        },
        "effectiveDateTime": "2018-06-27T06:16:00Z",
        "specimen": {
          "reference": "urn:uuid:89473443-9379-4427-9ffa-3cd65d4b849a"
        }
      }
    },
    {
      "fullUrl": "urn:uuid:cd07e2c5-446c-4026-93c9-25409c03ed2b",
      "resource": {
        "resourceType": "Observation",
        "id": "cd07e2c5-446c-4026-93c9-25409c03ed2b",
        "meta": {
          "profile": [
            "http://hl7.eu/fhir/laboratory/StructureDefinition/Observation-resultslab-eu-lab"
          ]
        },
        "performer": [
          {
            "display": "The Central European Lab"
          }
        ],
        "category": [
          {
            "coding": [
              {
                "system": "http://terminology.hl7.org/CodeSystem/observation-category",
                "code": "laboratory"
              }
            ]
          }
        ],
        "code": {
          "coding": [
            {
              "code": "20565-8",
              "system": "http://loinc.org",
              "display": "Carbon dioxide, total [Moles/volume] in Blood"
            }
          ],
          "text": "Carbon dioxide, total [Moles/volume] in Blood"
        },
        "valueQuantity": {
          "system": "http://unitsofmeasure.org",
          "value": 22.6,
          "unit": "mmol/L",
          "code": "mmol/L"
        },
        "referenceRange": [
          {
            "low": {
              "value": 22,
              "code": "mmol/L",
              "system": "http://unitsofmeasure.org"
            }
          },
          {
            "high": {
              "value": 29,
              "code": "mmol/L",
              "system": "http://unitsofmeasure.org"
            }
          }
        ],
        "text": {
          "status": "generated",
          "div": "<div xmlns=\"http://www.w3.org/1999/xhtml\"><table class=\"hl7__eu__lab__report\"><tr><th>Test</th><th>27-Jun-2018</th><th>Reference&#xA0;Range</th><th>Unit</th></tr><tr><td>Carbon dioxide, total [Moles/volume] in Blood</td><td>22.6</td><td>22 - 29</td><td></td><td>mmol/L</td></tr></table></div>"
        },
        "status": "final",
        "subject": {
          "reference": "urn:uuid:3218f1e5-8d11-4879-816f-5a73d876acf3",
          "display": "Θεμιστοκλής Λιναρδάκη"
        },
        "effectiveDateTime": "2018-06-27T06:16:00Z",
        "specimen": {
          "reference": "urn:uuid:89473443-9379-4427-9ffa-3cd65d4b849a"
        }
      }
    },
    {
      "fullUrl": "urn:uuid:c31a6bb0-a222-4606-8916-a921a3bfcd5a",
      "resource": {
        "resourceType": "Device",
        "id": "c31a6bb0-a222-4606-8916-a921a3bfcd5a",
        "deviceName": [
          {
            "name": "SYNDERAI Synthetic Generator",
            "type": "manufacturer-name"
          }
        ],
        "version": [
          {
            "value": "5.0"
          }
        ],
        "text": {
          "status": "generated",
          "div": "<div xmlns=\"http://www.w3.org/1999/xhtml\">SYNDERAI Synthetic Generator v5.0</div>"
        },
        "status": "active\"",
        "distinctIdentifier": "synderai-generator-50",
        "manufacturer": "SYNDERAI Project"
      }
    },
    {
      "fullUrl": "urn:uuid:ed03a221-04ae-4c35-9dfc-d1d90f330e4c",
      "resource": {
        "resourceType": "Provenance",
        "id": "ed03a221-04ae-4c35-9dfc-d1d90f330e4c",
        "target": [
          {
            "reference": "Patient/3218f1e5-8d11-4879-816f-5a73d876acf3"
          },
          {
            "reference": "Bundle/1a9676b8-9f9d-468b-89cd-3401b7198342"
          },
          {
            "reference": "Composition/9c49cbc8-6e7b-4240-a06a-50ccf008b6ad"
          },
          {
            "reference": "PractitionerRole/2ef8e788-38ae-434b-8423-53c0887073f6"
          },
          {
            "reference": "Practitioner/216ca673-5ec5-4bbd-a927-5fdc21320916"
          },
          {
            "reference": "PractitionerRole/13c82de4-606d-4985-a12c-ed28745a8165"
          },
          {
            "reference": "Organization/a0f15373-569a-4606-ba39-47b4b4df75cf"
          }
        ],
        "activity": {
          "text": "Synthetic Example Data Generation"
        },
        "policy": [
          "https://synderai.net/synderai-synthetic-data-policy"
        ],
        "agent": [
          {
            "type": {
              "text": "author"
            },
            "who": {
              "reference": "Device/c31a6bb0-a222-4606-8916-a921a3bfcd5a"
            }
          }
        ],
        "reason": [
          {
            "text": "Interoperability Testing and Training (non-clinical use)"
          }
        ],
        "text": {
          "status": "generated",
          "div": "<div xmlns=\"http://www.w3.org/1999/xhtml\">Provenance for SYNDERAI Synthetic Example Data Resource</div>"
        },
        "recorded": "2018-06-27T08:16:00Z"
      }
    },
    {
      "fullUrl": "urn:uuid:2ef8e788-38ae-434b-8423-53c0887073f6",
      "resource": {
        "resourceType": "PractitionerRole",
        "id": "2ef8e788-38ae-434b-8423-53c0887073f6",
        "meta": {
          "profile": [
            "http://hl7.eu/fhir/base/StructureDefinition/practitionerRole-eu"
          ]
        },
        "text": {
          "status": "generated",
          "div": "<div xmlns=\"http://www.w3.org/1999/xhtml\">Laboratory Role Id: 2ef8e788-38ae-434b-8423-53c0887073f6</div>"
        },
        "practitioner": {
          "reference": "urn:uuid:216ca673-5ec5-4bbd-a927-5fdc21320916"
        }
      }
    },
    {
      "fullUrl": "urn:uuid:216ca673-5ec5-4bbd-a927-5fdc21320916",
      "resource": {
        "resourceType": "Practitioner",
        "id": "216ca673-5ec5-4bbd-a927-5fdc21320916",
        "meta": {
          "profile": [
            "http://hl7.eu/fhir/base/StructureDefinition/practitioner-eu"
          ]
        },
        "identifier": [
          {
            "assigner": {
              "display": "HL7 Europe"
            },
            "system": "urn:oid:2.16.840.1.113883.2.51.999",
            "value": "d9a57fa4-9b26-4557-b4e7-77806e291a01"
          }
        ],
        "name": [
          {
            "prefix": [
              "dr"
            ],
            "given": [
              "Ex"
            ],
            "family": "Ample"
          }
        ],
        "address": [
          {
            "line": [
              "Laboratoire Central Européenne",
              "Boulevard du Jardin Botanique 32"
            ],
            "postalCode": "1000",
            "city": "Brussels",
            "country": "Belgium"
          }
        ],
        "text": {
          "status": "generated",
          "div": "<div xmlns=\"http://www.w3.org/1999/xhtml\">Laboratory: Laboratoire Central Européenne, 1000 Brussels, Belgium</div>"
        }
      }
    }
  ],
  "type": "document",
  "timestamp": "2018-06-27T08:16:00Z"
}
