{
  "resourceType": "Bundle",
  "id": "5b66c9ef-f4d3-4b03-a632-58481a1ab490",
  "meta": {
    "profile": [
      "http://hl7.eu/fhir/laboratory/StructureDefinition/Bundle-eu-lab"
    ]
  },
  "identifier": {
    "assigner": {
      "display": "HL7 Europe"
    },
    "system": "urn:oid:2.16.840.1.113883.2.51.999",
    "value": "adcda920-9a88-493c-8095-a9586b00f7b1"
  },
  "entry": [
    {
      "fullUrl": "urn:uuid:ee044f6b-27bd-4942-9fb4-f1e74ff3dad5",
      "resource": {
        "resourceType": "Composition",
        "id": "ee044f6b-27bd-4942-9fb4-f1e74ff3dad5",
        "meta": {
          "profile": [
            "http://hl7.eu/fhir/laboratory/StructureDefinition/Composition-eu-lab"
          ]
        },
        "identifier": {
          "assigner": {
            "display": "HL7 Europe"
          },
          "system": "urn:oid:2.16.840.1.113883.2.51.999",
          "value": "a6a9d306-2e3c-4630-bedc-5af8aee8b671"
        },
        "author": [
          {
            "reference": "urn:uuid:09ee7009-f19c-49c0-9b74-27bd981ea361"
          }
        ],
        "category": [
          {
            "coding": [
              {
                "code": "26436-6",
                "system": "http://loinc.org",
                "display": "Laboratory studies (set)"
              }
            ]
          }
        ],
        "type": {
          "coding": [
            {
              "code": "11502-2",
              "system": "http://loinc.org",
              "display": "Laboratory report"
            }
          ],
          "text": "Laboratory Report"
        },
        "section": [
          {
            "code": {
              "coding": [
                {
                  "code": "26436-6",
                  "system": "http://loinc.org",
                  "display": "Laboratory studies (set)"
                }
              ],
              "text": "Laboratory studies"
            },
            "section": [
              {
                "code": {
                  "coding": [
                    {
                      "code": "$18719-5",
                      "system": "http://loinc.org",
                      "display": "Chemistry studies (set)"
                    }
                  ],
                  "text": "Chemistry"
                },
                "entry": [
                  {
                    "reference": "urn:uuid:ccb6989b-3e4e-47f7-8985-5fa70de9968a"
                  },
                  {
                    "reference": "urn:uuid:7ef72193-2e13-4347-ba8f-1f7b72e42f53"
                  },
                  {
                    "reference": "urn:uuid:70ee3ee4-d6c3-4ec7-aaaf-70f57a550b43"
                  },
                  {
                    "reference": "urn:uuid:fc71efb8-209d-4c73-a85e-7f5bfde3770c"
                  },
                  {
                    "reference": "urn:uuid:bbc0b522-9d3e-4c88-8869-7ffa058de69f"
                  },
                  {
                    "reference": "urn:uuid:99261686-902e-4faa-8353-e9b9d0fa6869"
                  },
                  {
                    "reference": "urn:uuid:68789a97-f846-4bb4-9120-2dbfba2831ad"
                  },
                  {
                    "reference": "urn:uuid:c8dba3db-2bd9-4533-a5a0-7d38450c1a09"
                  },
                  {
                    "reference": "urn:uuid:c4804ea0-7a42-4de6-8bc7-23c56a0be2a7"
                  },
                  {
                    "reference": "urn:uuid:4aa11987-07c5-4f34-af27-d89f0439e393"
                  },
                  {
                    "reference": "urn:uuid:b4804d96-f04a-4458-9939-9d405b456f0c"
                  },
                  {
                    "reference": "urn:uuid:7758740c-6a93-4dc4-b52c-d42b31d5a794"
                  },
                  {
                    "reference": "urn:uuid:60293e77-d36f-47fe-b34f-bbc5e61cdaaf"
                  },
                  {
                    "reference": "urn:uuid:c8d49df8-fa06-42eb-9ef7-df452dad3d31"
                  },
                  {
                    "reference": "urn:uuid:3d74a7b0-a765-4906-8ede-e3046d4e72e2"
                  },
                  {
                    "reference": "urn:uuid:598a6917-2ecf-4c19-88f4-e6915ac3ef20"
                  }
                ],
                "text": {
                  "status": "generated",
                  "div": "<div xmlns=\"http://www.w3.org/1999/xhtml\"><h3>Chemistry</h3><table class=\"hl7__eu__lab__report\"><thead><tr><th>Test</th><th>20-APR-2016</th><th>Reference&#xA0;Range</th><th>Unit</th></tr></thead><tbody><tr><td>Glucose [Mass/volume] in Blood</td><td>89.4</td><td>70 - 140</td><td>mg/dL</td></tr><tr><td>Urea nitrogen [Mass/volume] in Blood</td><td>10.6</td><td>7 - 30</td><td>mg/dL</td></tr><tr><td>Creatinine [Mass/volume] in Blood</td><td><strong>2.6 H</strong></td><td>0.5 - 1.3</td><td>mg/dL</td></tr><tr><td>Calcium [Mass/volume] in Blood</td><td>10.1</td><td>8.6 - 10.2</td><td>mg/dL</td></tr><tr><td>Sodium [Moles/volume] in Blood</td><td>140.7</td><td>135 - 145</td><td>mmol/L</td></tr><tr><td>Potassium [Moles/volume] in Blood</td><td>4.5</td><td>3.5 - 5.1</td><td>mmol/L</td></tr><tr><td>Chloride [Moles/volume] in Blood</td><td>108.6</td><td>98 - 114</td><td>mmol/L</td></tr><tr><td>Carbon dioxide, total [Moles/volume] in Blood</td><td>27.4</td><td>22 - 32</td><td>mmol/L</td></tr><tr><td>Protein [Mass/volume] in Serum or Plasma</td><td>7.9</td><td>6 - 8.3</td><td>g/dL</td></tr><tr><td>Albumin [Mass/volume] in Serum or Plasma</td><td>4.9</td><td>3.5 - 5.5</td><td>g/dL</td></tr><tr><td>Globulin [Mass/volume] in Serum by calculation</td><td>3.3</td><td>2 - 3.5</td><td>g/L</td></tr><tr><td>Bilirubin.total [Mass/volume] in Serum or Plasma</td><td>0.9</td><td>0.3 - 1.2</td><td>mg/dL</td></tr><tr><td>Alkaline phosphatase [Enzymatic activity/volume] in Serum or Plasma</td><td>109.0</td><td>44 - 142</td><td>U/L</td></tr><tr><td>Alanine aminotransferase [Enzymatic activity/volume] in Serum or Plasma</td><td><strong>43.0 H</strong></td><td>7 - 40</td><td>U/L</td></tr><tr><td>Aspartate aminotransferase [Enzymatic activity/volume] in Serum or Plasma</td><td>10.2</td><td>10 - 40</td><td>U/L</td></tr><tr><td>Ketones [Presence] in Urine by Test strip</td><td>Urine ketone test = +++</td><td></td><td></td></tr></tbody></table></div>"
                },
                "title": "Chemistry"
              },
              {
                "code": {
                  "coding": [
                    {
                      "code": "$18729-4",
                      "system": "http://loinc.org",
                      "display": "Urinalysis studies (set)"
                    }
                  ],
                  "text": "Urinalysis"
                },
                "entry": [
                  {
                    "reference": "urn:uuid:e52ddce7-32dc-4b43-a5e6-7db3ce847501"
                  },
                  {
                    "reference": "urn:uuid:c1948c47-79c0-49f0-921f-d68983ef32f9"
                  },
                  {
                    "reference": "urn:uuid:87bf3bbf-d1b1-4f0e-a3a1-e3829b4bc576"
                  },
                  {
                    "reference": "urn:uuid:0f009a58-54a5-4647-8fcd-db5de59228a8"
                  },
                  {
                    "reference": "urn:uuid:4bfb17f3-ae15-41be-a494-6c56564fd419"
                  },
                  {
                    "reference": "urn:uuid:9d42d30f-5a1b-409e-ab32-a7fb29e74b5c"
                  },
                  {
                    "reference": "urn:uuid:8ec7603f-e7ce-48c0-842d-70a63e1fd8cb"
                  },
                  {
                    "reference": "urn:uuid:6d3670f0-d15f-496c-9c1c-3f21337c6384"
                  },
                  {
                    "reference": "urn:uuid:fd17decc-5844-4239-b846-7fbd9b1f7510"
                  },
                  {
                    "reference": "urn:uuid:b753b3a6-b428-4dfc-a70d-ee80d9b3f548"
                  },
                  {
                    "reference": "urn:uuid:5a31cdd4-d566-4c9c-9a21-8b306e86d283"
                  },
                  {
                    "reference": "urn:uuid:da9b624a-af6d-40ed-b760-12f19cbf6f63"
                  }
                ],
                "text": {
                  "status": "generated",
                  "div": "<div xmlns=\"http://www.w3.org/1999/xhtml\"><h3>Urinalysis</h3><table class=\"hl7__eu__lab__report\"><thead><tr><th>Test</th><th>20-APR-2016</th><th>Reference&#xA0;Range</th><th>Unit</th></tr></thead><tbody><tr><td>Glucose [Mass/volume] in Urine by Test strip</td><td><strong>1.9 H</strong></td><td>0.8 - 0</td><td>mg/dL</td></tr><tr><td>Glucose [Presence] in Urine by Test strip</td><td>++</td><td></td><td></td></tr><tr><td>Bilirubin.total [Mass/volume] in Urine by Test strip</td><td>0.5</td><td>0 - 1.5</td><td>mg/dL</td></tr><tr><td>Bilirubin.total [Presence] in Urine by Test strip</td><td>Finding of bilirubin in urine</td><td></td><td></td></tr><tr><td>Ketones [Mass/volume] in Urine by Test strip</td><td>0.4</td><td>0 - 8</td><td>mg/dL</td></tr><tr><td>Specific gravity of Urine by Test strip</td><td><strong>1.0 L</strong></td><td>1.01 - 1.03</td><td>{nominal}</td></tr><tr><td>pH of Urine by Test strip</td><td>6.8</td><td>4.6 - 7.5</td><td>pH</td></tr><tr><td>Protein [Mass/volume] in Urine by Test strip</td><td><strong>252.8 H</strong></td><td>0 - 14</td><td>mg/dL</td></tr><tr><td>Protein [Presence] in Urine by Test strip</td><td>Urine protein test = +++</td><td></td><td></td></tr><tr><td>Nitrite [Presence] in Urine by Test strip</td><td>Urine nitrite negative</td><td></td><td></td></tr><tr><td>Hemoglobin [Presence] in Urine by Test strip</td><td>Urine blood test = negative</td><td></td><td></td></tr><tr><td>Leukocyte esterase [Presence] in Urine by Test strip</td><td>Urine leukocyte test negative</td><td></td><td></td></tr></tbody></table></div>"
                },
                "title": "Urinalysis"
              },
              {
                "code": {
                  "coding": [
                    {
                      "code": "$LP7846-1",
                      "system": "http://loinc.org",
                      "display": "Specimen information"
                    }
                  ],
                  "text": "Specimen information"
                },
                "entry": [
                  {
                    "reference": "urn:uuid:ccaa7556-a66f-419f-a7b5-ebb295a5edaf"
                  },
                  {
                    "reference": "urn:uuid:1c71f292-9f06-432d-b0c5-b40991b7906a"
                  },
                  {
                    "reference": "urn:uuid:189cfc2a-1051-4e2b-8447-aedd836a707c"
                  },
                  {
                    "reference": "urn:uuid:0a6442bc-468a-43f8-a910-cb96ea3a2aa8"
                  }
                ],
                "text": {
                  "status": "generated",
                  "div": "<div xmlns=\"http://www.w3.org/1999/xhtml\"><h3>Specimen information</h3><table class=\"hl7__eu__lab__report\"><thead><tr><th>Test</th><th>20-APR-2016</th><th>Specimen</th><th></th></tr></thead><tbody><tr><td>Appearance of Urine</td><td>Cloudy urine</td><td>Urine</td><td></td></tr><tr><td>Odor of Urine</td><td>Urine smell ammoniacal</td><td>Urine</td><td></td></tr><tr><td>Clarity of Urine</td><td>Translucent</td><td>Urine</td><td></td></tr><tr><td>Color of Urine</td><td>Brown color</td><td>Urine</td><td></td></tr></tbody></table></div>"
                },
                "title": "Specimen information"
              }
            ],
            "title": "Laboratory Report"
          },
          {
            "text": {
              "status": "generated",
              "div": "<div xmlns=\"http://www.w3.org/1999/xhtml\"><h3>Annotation</h3><table class=\"hl7__eu__lab__report\"><tr><th>Conclusion and Recommendations based on this report and previous findings known to us</th></tr><tr><td>The patient shows elevated serum creatinine, indicating impaired renal function, and mild elevation of ALT. Urinalysis reveals significant proteinuria, glucosuria, and ketonuria, with low specific gravity and abnormal urine appearance, suggesting possible nephrotic syndrome or diabetic nephropathy. No evidence of urinary tract infection. Recommend further evaluation of renal function and glycemic control.</td></tr></table></div>"
            },
            "code": {
              "coding": [
                {
                  "system": "http://loinc.org",
                  "code": "48767-8",
                  "display": "Annotation comment"
                }
              ]
            },
            "title": "Annotation comment"
          }
        ],
        "status": "final",
        "subject": {
          "reference": "urn:uuid:607817d1-2957-4078-a532-642df7294485",
          "display": "Maria Nohlmans"
        },
        "date": "2016-04-20T16:09:39Z",
        "title": "Laboratory Report",
        "confidentiality": "N"
      }
    },
    {
      "fullUrl": "urn:uuid:c8c9af72-0293-4d90-aff2-c86f7281300e",
      "resource": {
        "resourceType": "DiagnosticReport",
        "id": "c8c9af72-0293-4d90-aff2-c86f7281300e",
        "meta": {
          "profile": [
            "http://hl7.eu/fhir/laboratory/StructureDefinition/DiagnosticReport-eu-lab"
          ]
        },
        "identifier": [
          {
            "assigner": {
              "display": "HL7 Europe"
            },
            "system": "urn:oid:2.16.840.1.113883.2.51.999",
            "value": "bb986716-acea-4de8-888f-d66466269d53"
          }
        ],
        "extension": [
          {
            "url": "http://hl7.org/fhir/5.0/StructureDefinition/extension-DiagnosticReport.composition",
            "valueReference": {
              "reference": "urn:uuid:a6a9d306-2e3c-4630-bedc-5af8aee8b671"
            }
          }
        ],
        "category": [
          {
            "coding": [
              {
                "code": "26436-6",
                "system": "http://loinc.org",
                "display": "Laboratory studies (set)"
              }
            ]
          }
        ],
        "specimen": [
          {
            "reference": "urn:uuid:cd8cfc4b-9b81-4067-b6a7-8b961308758c"
          },
          {
            "reference": "urn:uuid:f817759f-cd12-4c02-a6d5-140902c45873"
          },
          {
            "reference": "urn:uuid:2124f187-253a-4a2a-a690-8703c1b030b3"
          },
          {
            "reference": "urn:uuid:503a920f-9114-43fd-acb4-af7b7cf7c69a"
          }
        ],
        "result": [
          {
            "reference": "urn:uuid:ccb6989b-3e4e-47f7-8985-5fa70de9968a"
          },
          {
            "reference": "urn:uuid:7ef72193-2e13-4347-ba8f-1f7b72e42f53"
          },
          {
            "reference": "urn:uuid:70ee3ee4-d6c3-4ec7-aaaf-70f57a550b43"
          },
          {
            "reference": "urn:uuid:fc71efb8-209d-4c73-a85e-7f5bfde3770c"
          },
          {
            "reference": "urn:uuid:bbc0b522-9d3e-4c88-8869-7ffa058de69f"
          },
          {
            "reference": "urn:uuid:99261686-902e-4faa-8353-e9b9d0fa6869"
          },
          {
            "reference": "urn:uuid:68789a97-f846-4bb4-9120-2dbfba2831ad"
          },
          {
            "reference": "urn:uuid:c8dba3db-2bd9-4533-a5a0-7d38450c1a09"
          },
          {
            "reference": "urn:uuid:c4804ea0-7a42-4de6-8bc7-23c56a0be2a7"
          },
          {
            "reference": "urn:uuid:4aa11987-07c5-4f34-af27-d89f0439e393"
          },
          {
            "reference": "urn:uuid:b4804d96-f04a-4458-9939-9d405b456f0c"
          },
          {
            "reference": "urn:uuid:7758740c-6a93-4dc4-b52c-d42b31d5a794"
          },
          {
            "reference": "urn:uuid:60293e77-d36f-47fe-b34f-bbc5e61cdaaf"
          },
          {
            "reference": "urn:uuid:c8d49df8-fa06-42eb-9ef7-df452dad3d31"
          },
          {
            "reference": "urn:uuid:3d74a7b0-a765-4906-8ede-e3046d4e72e2"
          },
          {
            "reference": "urn:uuid:ccaa7556-a66f-419f-a7b5-ebb295a5edaf"
          },
          {
            "reference": "urn:uuid:1c71f292-9f06-432d-b0c5-b40991b7906a"
          },
          {
            "reference": "urn:uuid:189cfc2a-1051-4e2b-8447-aedd836a707c"
          },
          {
            "reference": "urn:uuid:0a6442bc-468a-43f8-a910-cb96ea3a2aa8"
          },
          {
            "reference": "urn:uuid:e52ddce7-32dc-4b43-a5e6-7db3ce847501"
          },
          {
            "reference": "urn:uuid:c1948c47-79c0-49f0-921f-d68983ef32f9"
          },
          {
            "reference": "urn:uuid:87bf3bbf-d1b1-4f0e-a3a1-e3829b4bc576"
          },
          {
            "reference": "urn:uuid:0f009a58-54a5-4647-8fcd-db5de59228a8"
          },
          {
            "reference": "urn:uuid:4bfb17f3-ae15-41be-a494-6c56564fd419"
          },
          {
            "reference": "urn:uuid:598a6917-2ecf-4c19-88f4-e6915ac3ef20"
          },
          {
            "reference": "urn:uuid:9d42d30f-5a1b-409e-ab32-a7fb29e74b5c"
          },
          {
            "reference": "urn:uuid:8ec7603f-e7ce-48c0-842d-70a63e1fd8cb"
          },
          {
            "reference": "urn:uuid:6d3670f0-d15f-496c-9c1c-3f21337c6384"
          },
          {
            "reference": "urn:uuid:fd17decc-5844-4239-b846-7fbd9b1f7510"
          },
          {
            "reference": "urn:uuid:b753b3a6-b428-4dfc-a70d-ee80d9b3f548"
          },
          {
            "reference": "urn:uuid:5a31cdd4-d566-4c9c-9a21-8b306e86d283"
          },
          {
            "reference": "urn:uuid:da9b624a-af6d-40ed-b760-12f19cbf6f63"
          }
        ],
        "status": "registered",
        "code": {
          "coding": [
            {
              "code": "11502-2",
              "system": "http://loinc.org",
              "display": "Laboratory report"
            }
          ]
        },
        "subject": {
          "reference": "urn:uuid:607817d1-2957-4078-a532-642df7294485",
          "display": "Maria Nohlmans"
        }
      }
    },
    {
      "fullUrl": "urn:uuid:607817d1-2957-4078-a532-642df7294485",
      "resource": {
        "resourceType": "Patient",
        "id": "607817d1-2957-4078-a532-642df7294485",
        "meta": {
          "security": [
            {
              "system": "http://terminology.hl7.org/CodeSystem/v3-ActReason",
              "code": "HTEST"
            },
            {
              "system": "http://terminology.hl7.org/CodeSystem/v3-ActReason",
              "code": "TRAIN"
            }
          ],
          "tag": [
            {
              "system": "https://synderai.net/fhir/CodeSystem/tags",
              "code": "synthetic",
              "display": "SYNDERAI Synthetic data"
            }
          ],
          "profile": [
            "http://hl7.eu/fhir/base/StructureDefinition/patient-eu-core"
          ]
        },
        "identifier": [
          {
            "type": {
              "coding": [
                {
                  "code": "PT",
                  "system": "http://terminology.hl7.org/CodeSystem/v2-0203"
                }
              ]
            },
            "system": "http://ec.europa.eu/identifier/eci",
            "value": "6886-506417-1"
          },
          {
            "type": {
              "coding": [
                {
                  "code": "MR",
                  "system": "http://terminology.hl7.org/CodeSystem/v2-0203"
                }
              ]
            },
            "system": "http://local.setting.eu/identifier",
            "value": "2cb21ed6-b617-b1f3-2290-589a710de5ee"
          }
        ],
        "name": [
          {
            "family": "Nohlmans"
          },
          {
            "given": [
              "Maria"
            ]
          },
          {
            "text": "Maria Nohlmans"
          }
        ],
        "address": [
          {
            "line": [
              "Alfons-Wulff-Weg 1"
            ],
            "use": "home",
            "type": "physical",
            "postalCode": "25813",
            "city": "Husum",
            "country": "Germany"
          }
        ],
        "telecom": [
          {
            "system": "phone",
            "value": "+49(0)1911 105501"
          }
        ],
        "extension": [
          {
            "url": "http://hl7.org/fhir/StructureDefinition/patient-nationality",
            "valueCodeableConcept": {
              "coding": [
                {
                  "code": "DE",
                  "system": "http://hl7.org/fhir/ValueSet/country"
                }
              ]
            }
          }
        ],
        "text": {
          "status": "generated",
          "div": "<div xmlns=\"http://www.w3.org/1999/xhtml\"><table class=\"hl7__ips\"><tr><td>Maria Nohlmans</td><td>female</td><td>11-Jun-1947</td></tr></table></div>"
        },
        "gender": "female",
        "birthDate": "1947-06-11"
      }
    },
    {
      "fullUrl": "urn:uuid:74e2be33-60b1-4d15-949b-284728dcf4bb",
      "resource": {
        "resourceType": "ServiceRequest",
        "id": "74e2be33-60b1-4d15-949b-284728dcf4bb",
        "meta": {
          "profile": [
            "http://hl7.eu/fhir/laboratory/StructureDefinition/ServiceRequest-eu-lab"
          ]
        },
        "identifier": [
          {
            "system": "http://example.org",
            "value": "770b6397-d12b-4a5a-b4a1-176f740a78d7"
          }
        ],
        "specimen": [
          {
            "reference": "urn:uuid:cd8cfc4b-9b81-4067-b6a7-8b961308758c"
          },
          {
            "reference": "urn:uuid:f817759f-cd12-4c02-a6d5-140902c45873"
          },
          {
            "reference": "urn:uuid:2124f187-253a-4a2a-a690-8703c1b030b3"
          },
          {
            "reference": "urn:uuid:503a920f-9114-43fd-acb4-af7b7cf7c69a"
          }
        ],
        "reasonCode": [
          {
            "coding": [
              {
                "code": "401314000",
                "system": "http://snomed.info/sct",
                "display": "Acute non-ST segment elevation myocardial infarction"
              }
            ]
          },
          {
            "coding": [
              {
                "code": "157141000119108",
                "system": "http://snomed.info/sct",
                "display": "Proteinuria due to type 2 diabetes mellitus"
              }
            ]
          },
          {
            "coding": [
              {
                "code": "237602007",
                "system": "http://snomed.info/sct",
                "display": "Metabolic syndrome X"
              }
            ]
          },
          {
            "coding": [
              {
                "code": "90781000119102",
                "system": "http://snomed.info/sct",
                "display": "Microalbuminuria due to type 2 diabetes mellitus"
              }
            ]
          },
          {
            "coding": [
              {
                "code": "127013003",
                "system": "http://snomed.info/sct",
                "display": "Disorder of kidney due to diabetes mellitus"
              }
            ]
          },
          {
            "coding": [
              {
                "code": "59621000",
                "system": "http://snomed.info/sct",
                "display": "Essential hypertension"
              }
            ]
          },
          {
            "coding": [
              {
                "code": "271737000",
                "system": "http://snomed.info/sct",
                "display": "Anemia"
              }
            ]
          },
          {
            "coding": [
              {
                "code": "15777000",
                "system": "http://snomed.info/sct",
                "display": "Prediabetes"
              }
            ]
          }
        ],
        "status": "active",
        "intent": "order",
        "code": {
          "coding": [
            {
              "code": "108252007",
              "system": "http://snomed.info/sct",
              "display": "Laboratory procedure"
            }
          ]
        },
        "subject": {
          "reference": "urn:uuid:607817d1-2957-4078-a532-642df7294485",
          "display": "Maria Nohlmans"
        },
        "requester": {
          "reference": "urn:uuid:bdb2be08-ee64-4859-84b6-cd31c5f533d6"
        }
      }
    },
    {
      "fullUrl": "urn:uuid:bdb2be08-ee64-4859-84b6-cd31c5f533d6",
      "resource": {
        "resourceType": "PractitionerRole",
        "id": "bdb2be08-ee64-4859-84b6-cd31c5f533d6",
        "meta": {
          "profile": [
            "http://hl7.eu/fhir/base/StructureDefinition/practitionerRole-eu"
          ]
        },
        "text": {
          "status": "generated",
          "div": "<div xmlns=\"http://www.w3.org/1999/xhtml\">Provider Role Id: bdb2be08-ee64-4859-84b6-cd31c5f533d6</div>"
        },
        "organization": {
          "reference": "urn:uuid:8c16d645-b7b1-4ce3-973a-aa370f5d2772"
        }
      }
    },
    {
      "fullUrl": "urn:uuid:8c16d645-b7b1-4ce3-973a-aa370f5d2772",
      "resource": {
        "resourceType": "Organization",
        "id": "8c16d645-b7b1-4ce3-973a-aa370f5d2772",
        "meta": {
          "profile": [
            "http://hl7.eu/fhir/base/StructureDefinition/organization-eu"
          ]
        },
        "identifier": [
          {
            "assigner": {
              "display": "HL7 Europe"
            },
            "system": "urn:oid:2.16.840.1.113883.2.51.999",
            "value": "722f4804-525c-496b-8aa3-b1355fc22382"
          }
        ],
        "address": [
          {
            "line": [
              "Brinckmannstraße 35"
            ],
            "city": "Husum",
            "postalCode": "25813",
            "country": "Germany"
          }
        ],
        "text": {
          "status": "generated",
          "div": "<div xmlns=\"http://www.w3.org/1999/xhtml\">Provider Organization: Dr. Wolfram Hussels Kieferorthopäde</div>"
        },
        "name": "Dr. Wolfram Hussels Kieferorthopäde"
      }
    },
    {
      "fullUrl": "urn:uuid:cd8cfc4b-9b81-4067-b6a7-8b961308758c",
      "resource": {
        "resourceType": "Specimen",
        "id": "cd8cfc4b-9b81-4067-b6a7-8b961308758c",
        "meta": {
          "profile": [
            "http://hl7.eu/fhir/laboratory/StructureDefinition/Specimen-eu-lab"
          ]
        },
        "collection": {
          "collectedDateTime": "2016-04-20"
        },
        "text": {
          "status": "generated",
          "div": "<div xmlns=\"http://www.w3.org/1999/xhtml\"><table class=\"hl7__eu__lab__report\"><tr><th>Specimen</th><th>Collection Date</th></tr><tr><td>Whole blood specimen (specimen)</td><td><span class=\"nb\">20-Apr-2016</span></td></tr></table></div>"
        },
        "type": {
          "coding": [
            {
              "code": "258580003",
              "system": "http://snomed.info/sct",
              "display": "Whole blood specimen (specimen)"
            }
          ]
        }
      }
    },
    {
      "fullUrl": "urn:uuid:f817759f-cd12-4c02-a6d5-140902c45873",
      "resource": {
        "resourceType": "Specimen",
        "id": "f817759f-cd12-4c02-a6d5-140902c45873",
        "meta": {
          "profile": [
            "http://hl7.eu/fhir/laboratory/StructureDefinition/Specimen-eu-lab"
          ]
        },
        "collection": {
          "collectedDateTime": "2016-04-20"
        },
        "text": {
          "status": "generated",
          "div": "<div xmlns=\"http://www.w3.org/1999/xhtml\"><table class=\"hl7__eu__lab__report\"><tr><th>Specimen</th><th>Collection Date</th></tr><tr><td>Acellular blood (serum or plasma) specimen</td><td><span class=\"nb\">20-Apr-2016</span></td></tr></table></div>"
        },
        "type": {
          "coding": [
            {
              "code": "122592007",
              "system": "http://snomed.info/sct",
              "display": "Acellular blood (serum or plasma) specimen"
            }
          ]
        }
      }
    },
    {
      "fullUrl": "urn:uuid:2124f187-253a-4a2a-a690-8703c1b030b3",
      "resource": {
        "resourceType": "Specimen",
        "id": "2124f187-253a-4a2a-a690-8703c1b030b3",
        "meta": {
          "profile": [
            "http://hl7.eu/fhir/laboratory/StructureDefinition/Specimen-eu-lab"
          ]
        },
        "collection": {
          "collectedDateTime": "2016-04-20"
        },
        "text": {
          "status": "generated",
          "div": "<div xmlns=\"http://www.w3.org/1999/xhtml\"><table class=\"hl7__eu__lab__report\"><tr><th>Specimen</th><th>Collection Date</th></tr><tr><td>Serum specimen</td><td><span class=\"nb\">20-Apr-2016</span></td></tr></table></div>"
        },
        "type": {
          "coding": [
            {
              "code": "119364003",
              "system": "http://snomed.info/sct",
              "display": "Serum specimen"
            }
          ]
        }
      }
    },
    {
      "fullUrl": "urn:uuid:503a920f-9114-43fd-acb4-af7b7cf7c69a",
      "resource": {
        "resourceType": "Specimen",
        "id": "503a920f-9114-43fd-acb4-af7b7cf7c69a",
        "meta": {
          "profile": [
            "http://hl7.eu/fhir/laboratory/StructureDefinition/Specimen-eu-lab"
          ]
        },
        "collection": {
          "collectedDateTime": "2016-04-20"
        },
        "text": {
          "status": "generated",
          "div": "<div xmlns=\"http://www.w3.org/1999/xhtml\"><table class=\"hl7__eu__lab__report\"><tr><th>Specimen</th><th>Collection Date</th></tr><tr><td>Urine specimen</td><td><span class=\"nb\">20-Apr-2016</span></td></tr></table></div>"
        },
        "type": {
          "coding": [
            {
              "code": "122575003",
              "system": "http://snomed.info/sct",
              "display": "Urine specimen"
            }
          ]
        }
      }
    },
    {
      "fullUrl": "urn:uuid:ccb6989b-3e4e-47f7-8985-5fa70de9968a",
      "resource": {
        "resourceType": "Observation",
        "id": "ccb6989b-3e4e-47f7-8985-5fa70de9968a",
        "meta": {
          "profile": [
            "http://hl7.eu/fhir/laboratory/StructureDefinition/Observation-resultslab-eu-lab"
          ]
        },
        "performer": [
          {
            "display": "The Central European Lab"
          }
        ],
        "category": [
          {
            "coding": [
              {
                "system": "http://terminology.hl7.org/CodeSystem/observation-category",
                "code": "laboratory"
              }
            ]
          }
        ],
        "code": {
          "coding": [
            {
              "code": "2339-0",
              "system": "http://loinc.org",
              "display": "Glucose [Mass/volume] in Blood"
            }
          ],
          "text": "Glucose [Mass/volume] in Blood"
        },
        "valueQuantity": {
          "system": "http://unitsofmeasure.org",
          "value": 89.4,
          "unit": "mg/dL",
          "code": "mg/dL"
        },
        "referenceRange": [
          {
            "low": {
              "value": 70,
              "code": "mg/dL",
              "system": "http://unitsofmeasure.org"
            }
          },
          {
            "high": {
              "value": 140,
              "code": "mg/dL",
              "system": "http://unitsofmeasure.org"
            }
          }
        ],
        "text": {
          "status": "generated",
          "div": "<div xmlns=\"http://www.w3.org/1999/xhtml\"><table class=\"hl7__eu__lab__report\"><tr><th>Test</th><th>20-Apr-2016</th><th>Reference&#xA0;Range</th><th>Unit</th></tr><tr><td>Glucose [Mass/volume] in Blood</td><td>89.4</td><td>70 - 140</td><td></td><td>mg/dL</td></tr></table></div>"
        },
        "status": "final",
        "subject": {
          "reference": "urn:uuid:607817d1-2957-4078-a532-642df7294485",
          "display": "Maria Nohlmans"
        },
        "effectiveDateTime": "2016-04-20T14:09:39Z",
        "specimen": {
          "reference": "urn:uuid:cd8cfc4b-9b81-4067-b6a7-8b961308758c"
        }
      }
    },
    {
      "fullUrl": "urn:uuid:7ef72193-2e13-4347-ba8f-1f7b72e42f53",
      "resource": {
        "resourceType": "Observation",
        "id": "7ef72193-2e13-4347-ba8f-1f7b72e42f53",
        "meta": {
          "profile": [
            "http://hl7.eu/fhir/laboratory/StructureDefinition/Observation-resultslab-eu-lab"
          ]
        },
        "performer": [
          {
            "display": "The Central European Lab"
          }
        ],
        "category": [
          {
            "coding": [
              {
                "system": "http://terminology.hl7.org/CodeSystem/observation-category",
                "code": "laboratory"
              }
            ]
          }
        ],
        "code": {
          "coding": [
            {
              "code": "6299-2",
              "system": "http://loinc.org",
              "display": "Urea nitrogen [Mass/volume] in Blood"
            }
          ],
          "text": "Urea nitrogen [Mass/volume] in Blood"
        },
        "valueQuantity": {
          "system": "http://unitsofmeasure.org",
          "value": 10.6,
          "unit": "mg/dL",
          "code": "mg/dL"
        },
        "referenceRange": [
          {
            "low": {
              "value": 7,
              "code": "mg/dL",
              "system": "http://unitsofmeasure.org"
            }
          },
          {
            "high": {
              "value": 30,
              "code": "mg/dL",
              "system": "http://unitsofmeasure.org"
            }
          }
        ],
        "text": {
          "status": "generated",
          "div": "<div xmlns=\"http://www.w3.org/1999/xhtml\"><table class=\"hl7__eu__lab__report\"><tr><th>Test</th><th>20-Apr-2016</th><th>Reference&#xA0;Range</th><th>Unit</th></tr><tr><td>Urea nitrogen [Mass/volume] in Blood</td><td>10.6</td><td>7 - 30</td><td></td><td>mg/dL</td></tr></table></div>"
        },
        "status": "final",
        "subject": {
          "reference": "urn:uuid:607817d1-2957-4078-a532-642df7294485",
          "display": "Maria Nohlmans"
        },
        "effectiveDateTime": "2016-04-20T14:09:39Z",
        "specimen": {
          "reference": "urn:uuid:cd8cfc4b-9b81-4067-b6a7-8b961308758c"
        }
      }
    },
    {
      "fullUrl": "urn:uuid:70ee3ee4-d6c3-4ec7-aaaf-70f57a550b43",
      "resource": {
        "resourceType": "Observation",
        "id": "70ee3ee4-d6c3-4ec7-aaaf-70f57a550b43",
        "meta": {
          "profile": [
            "http://hl7.eu/fhir/laboratory/StructureDefinition/Observation-resultslab-eu-lab"
          ]
        },
        "performer": [
          {
            "display": "The Central European Lab"
          }
        ],
        "category": [
          {
            "coding": [
              {
                "system": "http://terminology.hl7.org/CodeSystem/observation-category",
                "code": "laboratory"
              }
            ]
          }
        ],
        "code": {
          "coding": [
            {
              "code": "38483-4",
              "system": "http://loinc.org",
              "display": "Creatinine [Mass/volume] in Blood"
            }
          ],
          "text": "Creatinine [Mass/volume] in Blood"
        },
        "valueQuantity": {
          "system": "http://unitsofmeasure.org",
          "value": 2.6,
          "unit": "mg/dL",
          "code": "mg/dL"
        },
        "referenceRange": [
          {
            "low": {
              "value": 0.5,
              "code": "mg/dL",
              "system": "http://unitsofmeasure.org"
            }
          },
          {
            "high": {
              "value": 1.3,
              "code": "mg/dL",
              "system": "http://unitsofmeasure.org"
            }
          }
        ],
        "interpretation": [
          {
            "coding": [
              {
                "code": "H",
                "system": "http://terminology.hl7.org/CodeSystem/v3-ObservationInterpretation",
                "display": "High"
              }
            ]
          }
        ],
        "text": {
          "status": "generated",
          "div": "<div xmlns=\"http://www.w3.org/1999/xhtml\"><table class=\"hl7__eu__lab__report\"><tr><th>Test</th><th>20-Apr-2016</th><th>Reference&#xA0;Range</th><th>Unit</th></tr><tr><td>Creatinine [Mass/volume] in Blood</td><td>2.6</td><td>0.5 - 1.3</td><td>H</td><td>mg/dL</td></tr></table></div>"
        },
        "status": "final",
        "subject": {
          "reference": "urn:uuid:607817d1-2957-4078-a532-642df7294485",
          "display": "Maria Nohlmans"
        },
        "effectiveDateTime": "2016-04-20T14:09:39Z",
        "specimen": {
          "reference": "urn:uuid:cd8cfc4b-9b81-4067-b6a7-8b961308758c"
        }
      }
    },
    {
      "fullUrl": "urn:uuid:fc71efb8-209d-4c73-a85e-7f5bfde3770c",
      "resource": {
        "resourceType": "Observation",
        "id": "fc71efb8-209d-4c73-a85e-7f5bfde3770c",
        "meta": {
          "profile": [
            "http://hl7.eu/fhir/laboratory/StructureDefinition/Observation-resultslab-eu-lab"
          ]
        },
        "performer": [
          {
            "display": "The Central European Lab"
          }
        ],
        "category": [
          {
            "coding": [
              {
                "system": "http://terminology.hl7.org/CodeSystem/observation-category",
                "code": "laboratory"
              }
            ]
          }
        ],
        "code": {
          "coding": [
            {
              "code": "49765-1",
              "system": "http://loinc.org",
              "display": "Calcium [Mass/volume] in Blood"
            }
          ],
          "text": "Calcium [Mass/volume] in Blood"
        },
        "valueQuantity": {
          "system": "http://unitsofmeasure.org",
          "value": 10.1,
          "unit": "mg/dL",
          "code": "mg/dL"
        },
        "referenceRange": [
          {
            "low": {
              "value": 8.6,
              "code": "mg/dL",
              "system": "http://unitsofmeasure.org"
            }
          },
          {
            "high": {
              "value": 10.2,
              "code": "mg/dL",
              "system": "http://unitsofmeasure.org"
            }
          }
        ],
        "text": {
          "status": "generated",
          "div": "<div xmlns=\"http://www.w3.org/1999/xhtml\"><table class=\"hl7__eu__lab__report\"><tr><th>Test</th><th>20-Apr-2016</th><th>Reference&#xA0;Range</th><th>Unit</th></tr><tr><td>Calcium [Mass/volume] in Blood</td><td>10.1</td><td>8.6 - 10.2</td><td></td><td>mg/dL</td></tr></table></div>"
        },
        "status": "final",
        "subject": {
          "reference": "urn:uuid:607817d1-2957-4078-a532-642df7294485",
          "display": "Maria Nohlmans"
        },
        "effectiveDateTime": "2016-04-20T14:09:39Z",
        "specimen": {
          "reference": "urn:uuid:cd8cfc4b-9b81-4067-b6a7-8b961308758c"
        }
      }
    },
    {
      "fullUrl": "urn:uuid:bbc0b522-9d3e-4c88-8869-7ffa058de69f",
      "resource": {
        "resourceType": "Observation",
        "id": "bbc0b522-9d3e-4c88-8869-7ffa058de69f",
        "meta": {
          "profile": [
            "http://hl7.eu/fhir/laboratory/StructureDefinition/Observation-resultslab-eu-lab"
          ]
        },
        "performer": [
          {
            "display": "The Central European Lab"
          }
        ],
        "category": [
          {
            "coding": [
              {
                "system": "http://terminology.hl7.org/CodeSystem/observation-category",
                "code": "laboratory"
              }
            ]
          }
        ],
        "code": {
          "coding": [
            {
              "code": "2947-0",
              "system": "http://loinc.org",
              "display": "Sodium [Moles/volume] in Blood"
            }
          ],
          "text": "Sodium [Moles/volume] in Blood"
        },
        "valueQuantity": {
          "system": "http://unitsofmeasure.org",
          "value": 140.7,
          "unit": "mmol/L",
          "code": "mmol/L"
        },
        "referenceRange": [
          {
            "low": {
              "value": 135,
              "code": "mmol/L",
              "system": "http://unitsofmeasure.org"
            }
          },
          {
            "high": {
              "value": 145,
              "code": "mmol/L",
              "system": "http://unitsofmeasure.org"
            }
          }
        ],
        "text": {
          "status": "generated",
          "div": "<div xmlns=\"http://www.w3.org/1999/xhtml\"><table class=\"hl7__eu__lab__report\"><tr><th>Test</th><th>20-Apr-2016</th><th>Reference&#xA0;Range</th><th>Unit</th></tr><tr><td>Sodium [Moles/volume] in Blood</td><td>140.7</td><td>135 - 145</td><td></td><td>mmol/L</td></tr></table></div>"
        },
        "status": "final",
        "subject": {
          "reference": "urn:uuid:607817d1-2957-4078-a532-642df7294485",
          "display": "Maria Nohlmans"
        },
        "effectiveDateTime": "2016-04-20T14:09:39Z",
        "specimen": {
          "reference": "urn:uuid:cd8cfc4b-9b81-4067-b6a7-8b961308758c"
        }
      }
    },
    {
      "fullUrl": "urn:uuid:99261686-902e-4faa-8353-e9b9d0fa6869",
      "resource": {
        "resourceType": "Observation",
        "id": "99261686-902e-4faa-8353-e9b9d0fa6869",
        "meta": {
          "profile": [
            "http://hl7.eu/fhir/laboratory/StructureDefinition/Observation-resultslab-eu-lab"
          ]
        },
        "performer": [
          {
            "display": "The Central European Lab"
          }
        ],
        "category": [
          {
            "coding": [
              {
                "system": "http://terminology.hl7.org/CodeSystem/observation-category",
                "code": "laboratory"
              }
            ]
          }
        ],
        "code": {
          "coding": [
            {
              "code": "6298-4",
              "system": "http://loinc.org",
              "display": "Potassium [Moles/volume] in Blood"
            }
          ],
          "text": "Potassium [Moles/volume] in Blood"
        },
        "valueQuantity": {
          "system": "http://unitsofmeasure.org",
          "value": 4.5,
          "unit": "mmol/L",
          "code": "mmol/L"
        },
        "referenceRange": [
          {
            "low": {
              "value": 3.5,
              "code": "mmol/L",
              "system": "http://unitsofmeasure.org"
            }
          },
          {
            "high": {
              "value": 5.1,
              "code": "mmol/L",
              "system": "http://unitsofmeasure.org"
            }
          }
        ],
        "text": {
          "status": "generated",
          "div": "<div xmlns=\"http://www.w3.org/1999/xhtml\"><table class=\"hl7__eu__lab__report\"><tr><th>Test</th><th>20-Apr-2016</th><th>Reference&#xA0;Range</th><th>Unit</th></tr><tr><td>Potassium [Moles/volume] in Blood</td><td>4.5</td><td>3.5 - 5.1</td><td></td><td>mmol/L</td></tr></table></div>"
        },
        "status": "final",
        "subject": {
          "reference": "urn:uuid:607817d1-2957-4078-a532-642df7294485",
          "display": "Maria Nohlmans"
        },
        "effectiveDateTime": "2016-04-20T14:09:39Z",
        "specimen": {
          "reference": "urn:uuid:cd8cfc4b-9b81-4067-b6a7-8b961308758c"
        }
      }
    },
    {
      "fullUrl": "urn:uuid:68789a97-f846-4bb4-9120-2dbfba2831ad",
      "resource": {
        "resourceType": "Observation",
        "id": "68789a97-f846-4bb4-9120-2dbfba2831ad",
        "meta": {
          "profile": [
            "http://hl7.eu/fhir/laboratory/StructureDefinition/Observation-resultslab-eu-lab"
          ]
        },
        "performer": [
          {
            "display": "The Central European Lab"
          }
        ],
        "category": [
          {
            "coding": [
              {
                "system": "http://terminology.hl7.org/CodeSystem/observation-category",
                "code": "laboratory"
              }
            ]
          }
        ],
        "code": {
          "coding": [
            {
              "code": "2069-3",
              "system": "http://loinc.org",
              "display": "Chloride [Moles/volume] in Blood"
            }
          ],
          "text": "Chloride [Moles/volume] in Blood"
        },
        "valueQuantity": {
          "system": "http://unitsofmeasure.org",
          "value": 108.6,
          "unit": "mmol/L",
          "code": "mmol/L"
        },
        "referenceRange": [
          {
            "low": {
              "value": 98,
              "code": "mmol/L",
              "system": "http://unitsofmeasure.org"
            }
          },
          {
            "high": {
              "value": 114,
              "code": "mmol/L",
              "system": "http://unitsofmeasure.org"
            }
          }
        ],
        "text": {
          "status": "generated",
          "div": "<div xmlns=\"http://www.w3.org/1999/xhtml\"><table class=\"hl7__eu__lab__report\"><tr><th>Test</th><th>20-Apr-2016</th><th>Reference&#xA0;Range</th><th>Unit</th></tr><tr><td>Chloride [Moles/volume] in Blood</td><td>108.6</td><td>98 - 114</td><td></td><td>mmol/L</td></tr></table></div>"
        },
        "status": "final",
        "subject": {
          "reference": "urn:uuid:607817d1-2957-4078-a532-642df7294485",
          "display": "Maria Nohlmans"
        },
        "effectiveDateTime": "2016-04-20T14:09:39Z",
        "specimen": {
          "reference": "urn:uuid:cd8cfc4b-9b81-4067-b6a7-8b961308758c"
        }
      }
    },
    {
      "fullUrl": "urn:uuid:c8dba3db-2bd9-4533-a5a0-7d38450c1a09",
      "resource": {
        "resourceType": "Observation",
        "id": "c8dba3db-2bd9-4533-a5a0-7d38450c1a09",
        "meta": {
          "profile": [
            "http://hl7.eu/fhir/laboratory/StructureDefinition/Observation-resultslab-eu-lab"
          ]
        },
        "performer": [
          {
            "display": "The Central European Lab"
          }
        ],
        "category": [
          {
            "coding": [
              {
                "system": "http://terminology.hl7.org/CodeSystem/observation-category",
                "code": "laboratory"
              }
            ]
          }
        ],
        "code": {
          "coding": [
            {
              "code": "20565-8",
              "system": "http://loinc.org",
              "display": "Carbon dioxide, total [Moles/volume] in Blood"
            }
          ],
          "text": "Carbon dioxide, total [Moles/volume] in Blood"
        },
        "valueQuantity": {
          "system": "http://unitsofmeasure.org",
          "value": 27.4,
          "unit": "mmol/L",
          "code": "mmol/L"
        },
        "referenceRange": [
          {
            "low": {
              "value": 22,
              "code": "mmol/L",
              "system": "http://unitsofmeasure.org"
            }
          },
          {
            "high": {
              "value": 32,
              "code": "mmol/L",
              "system": "http://unitsofmeasure.org"
            }
          }
        ],
        "text": {
          "status": "generated",
          "div": "<div xmlns=\"http://www.w3.org/1999/xhtml\"><table class=\"hl7__eu__lab__report\"><tr><th>Test</th><th>20-Apr-2016</th><th>Reference&#xA0;Range</th><th>Unit</th></tr><tr><td>Carbon dioxide, total [Moles/volume] in Blood</td><td>27.4</td><td>22 - 32</td><td></td><td>mmol/L</td></tr></table></div>"
        },
        "status": "final",
        "subject": {
          "reference": "urn:uuid:607817d1-2957-4078-a532-642df7294485",
          "display": "Maria Nohlmans"
        },
        "effectiveDateTime": "2016-04-20T14:09:39Z",
        "specimen": {
          "reference": "urn:uuid:cd8cfc4b-9b81-4067-b6a7-8b961308758c"
        }
      }
    },
    {
      "fullUrl": "urn:uuid:c4804ea0-7a42-4de6-8bc7-23c56a0be2a7",
      "resource": {
        "resourceType": "Observation",
        "id": "c4804ea0-7a42-4de6-8bc7-23c56a0be2a7",
        "meta": {
          "profile": [
            "http://hl7.eu/fhir/laboratory/StructureDefinition/Observation-resultslab-eu-lab"
          ]
        },
        "performer": [
          {
            "display": "The Central European Lab"
          }
        ],
        "category": [
          {
            "coding": [
              {
                "system": "http://terminology.hl7.org/CodeSystem/observation-category",
                "code": "laboratory"
              }
            ]
          }
        ],
        "code": {
          "coding": [
            {
              "code": "2885-2",
              "system": "http://loinc.org",
              "display": "Protein [Mass/volume] in Serum or Plasma"
            }
          ],
          "text": "Protein [Mass/volume] in Serum or Plasma"
        },
        "valueQuantity": {
          "system": "http://unitsofmeasure.org",
          "value": 7.9,
          "unit": "g/dL",
          "code": "g/dL"
        },
        "referenceRange": [
          {
            "low": {
              "value": 6,
              "code": "g/dL",
              "system": "http://unitsofmeasure.org"
            }
          },
          {
            "high": {
              "value": 8.3,
              "code": "g/dL",
              "system": "http://unitsofmeasure.org"
            }
          }
        ],
        "text": {
          "status": "generated",
          "div": "<div xmlns=\"http://www.w3.org/1999/xhtml\"><table class=\"hl7__eu__lab__report\"><tr><th>Test</th><th>20-Apr-2016</th><th>Reference&#xA0;Range</th><th>Unit</th></tr><tr><td>Protein [Mass/volume] in Serum or Plasma</td><td>7.9</td><td>6 - 8.3</td><td></td><td>g/dL</td></tr></table></div>"
        },
        "status": "final",
        "subject": {
          "reference": "urn:uuid:607817d1-2957-4078-a532-642df7294485",
          "display": "Maria Nohlmans"
        },
        "effectiveDateTime": "2016-04-20T14:09:39Z",
        "specimen": {
          "reference": "urn:uuid:f817759f-cd12-4c02-a6d5-140902c45873"
        }
      }
    },
    {
      "fullUrl": "urn:uuid:4aa11987-07c5-4f34-af27-d89f0439e393",
      "resource": {
        "resourceType": "Observation",
        "id": "4aa11987-07c5-4f34-af27-d89f0439e393",
        "meta": {
          "profile": [
            "http://hl7.eu/fhir/laboratory/StructureDefinition/Observation-resultslab-eu-lab"
          ]
        },
        "performer": [
          {
            "display": "The Central European Lab"
          }
        ],
        "category": [
          {
            "coding": [
              {
                "system": "http://terminology.hl7.org/CodeSystem/observation-category",
                "code": "laboratory"
              }
            ]
          }
        ],
        "code": {
          "coding": [
            {
              "code": "1751-7",
              "system": "http://loinc.org",
              "display": "Albumin [Mass/volume] in Serum or Plasma"
            }
          ],
          "text": "Albumin [Mass/volume] in Serum or Plasma"
        },
        "valueQuantity": {
          "system": "http://unitsofmeasure.org",
          "value": 4.9,
          "unit": "g/dL",
          "code": "g/dL"
        },
        "referenceRange": [
          {
            "low": {
              "value": 3.5,
              "code": "g/dL",
              "system": "http://unitsofmeasure.org"
            }
          },
          {
            "high": {
              "value": 5.5,
              "code": "g/dL",
              "system": "http://unitsofmeasure.org"
            }
          }
        ],
        "text": {
          "status": "generated",
          "div": "<div xmlns=\"http://www.w3.org/1999/xhtml\"><table class=\"hl7__eu__lab__report\"><tr><th>Test</th><th>20-Apr-2016</th><th>Reference&#xA0;Range</th><th>Unit</th></tr><tr><td>Albumin [Mass/volume] in Serum or Plasma</td><td>4.9</td><td>3.5 - 5.5</td><td></td><td>g/dL</td></tr></table></div>"
        },
        "status": "final",
        "subject": {
          "reference": "urn:uuid:607817d1-2957-4078-a532-642df7294485",
          "display": "Maria Nohlmans"
        },
        "effectiveDateTime": "2016-04-20T14:09:39Z",
        "specimen": {
          "reference": "urn:uuid:f817759f-cd12-4c02-a6d5-140902c45873"
        }
      }
    },
    {
      "fullUrl": "urn:uuid:b4804d96-f04a-4458-9939-9d405b456f0c",
      "resource": {
        "resourceType": "Observation",
        "id": "b4804d96-f04a-4458-9939-9d405b456f0c",
        "meta": {
          "profile": [
            "http://hl7.eu/fhir/laboratory/StructureDefinition/Observation-resultslab-eu-lab"
          ]
        },
        "performer": [
          {
            "display": "The Central European Lab"
          }
        ],
        "category": [
          {
            "coding": [
              {
                "system": "http://terminology.hl7.org/CodeSystem/observation-category",
                "code": "laboratory"
              }
            ]
          }
        ],
        "code": {
          "coding": [
            {
              "code": "10834-0",
              "system": "http://loinc.org",
              "display": "Globulin [Mass/volume] in Serum by calculation"
            }
          ],
          "text": "Globulin [Mass/volume] in Serum by calculation"
        },
        "valueQuantity": {
          "system": "http://unitsofmeasure.org",
          "value": 3.3,
          "unit": "g/L",
          "code": "g/L"
        },
        "referenceRange": [
          {
            "low": {
              "value": 2,
              "code": "g/L",
              "system": "http://unitsofmeasure.org"
            }
          },
          {
            "high": {
              "value": 3.5,
              "code": "g/L",
              "system": "http://unitsofmeasure.org"
            }
          }
        ],
        "text": {
          "status": "generated",
          "div": "<div xmlns=\"http://www.w3.org/1999/xhtml\"><table class=\"hl7__eu__lab__report\"><tr><th>Test</th><th>20-Apr-2016</th><th>Reference&#xA0;Range</th><th>Unit</th></tr><tr><td>Globulin [Mass/volume] in Serum by calculation</td><td>3.3</td><td>2 - 3.5</td><td></td><td>g/L</td></tr></table></div>"
        },
        "status": "final",
        "subject": {
          "reference": "urn:uuid:607817d1-2957-4078-a532-642df7294485",
          "display": "Maria Nohlmans"
        },
        "effectiveDateTime": "2016-04-20T14:09:39Z",
        "specimen": {
          "reference": "urn:uuid:2124f187-253a-4a2a-a690-8703c1b030b3"
        }
      }
    },
    {
      "fullUrl": "urn:uuid:7758740c-6a93-4dc4-b52c-d42b31d5a794",
      "resource": {
        "resourceType": "Observation",
        "id": "7758740c-6a93-4dc4-b52c-d42b31d5a794",
        "meta": {
          "profile": [
            "http://hl7.eu/fhir/laboratory/StructureDefinition/Observation-resultslab-eu-lab"
          ]
        },
        "performer": [
          {
            "display": "The Central European Lab"
          }
        ],
        "category": [
          {
            "coding": [
              {
                "system": "http://terminology.hl7.org/CodeSystem/observation-category",
                "code": "laboratory"
              }
            ]
          }
        ],
        "code": {
          "coding": [
            {
              "code": "1975-2",
              "system": "http://loinc.org",
              "display": "Bilirubin.total [Mass/volume] in Serum or Plasma"
            }
          ],
          "text": "Bilirubin.total [Mass/volume] in Serum or Plasma"
        },
        "valueQuantity": {
          "system": "http://unitsofmeasure.org",
          "value": 0.9,
          "unit": "mg/dL",
          "code": "mg/dL"
        },
        "referenceRange": [
          {
            "low": {
              "value": 0.3,
              "code": "mg/dL",
              "system": "http://unitsofmeasure.org"
            }
          },
          {
            "high": {
              "value": 1.2,
              "code": "mg/dL",
              "system": "http://unitsofmeasure.org"
            }
          }
        ],
        "text": {
          "status": "generated",
          "div": "<div xmlns=\"http://www.w3.org/1999/xhtml\"><table class=\"hl7__eu__lab__report\"><tr><th>Test</th><th>20-Apr-2016</th><th>Reference&#xA0;Range</th><th>Unit</th></tr><tr><td>Bilirubin.total [Mass/volume] in Serum or Plasma</td><td>0.9</td><td>0.3 - 1.2</td><td></td><td>mg/dL</td></tr></table></div>"
        },
        "status": "final",
        "subject": {
          "reference": "urn:uuid:607817d1-2957-4078-a532-642df7294485",
          "display": "Maria Nohlmans"
        },
        "effectiveDateTime": "2016-04-20T14:09:39Z",
        "specimen": {
          "reference": "urn:uuid:f817759f-cd12-4c02-a6d5-140902c45873"
        }
      }
    },
    {
      "fullUrl": "urn:uuid:60293e77-d36f-47fe-b34f-bbc5e61cdaaf",
      "resource": {
        "resourceType": "Observation",
        "id": "60293e77-d36f-47fe-b34f-bbc5e61cdaaf",
        "meta": {
          "profile": [
            "http://hl7.eu/fhir/laboratory/StructureDefinition/Observation-resultslab-eu-lab"
          ]
        },
        "performer": [
          {
            "display": "The Central European Lab"
          }
        ],
        "category": [
          {
            "coding": [
              {
                "system": "http://terminology.hl7.org/CodeSystem/observation-category",
                "code": "laboratory"
              }
            ]
          }
        ],
        "code": {
          "coding": [
            {
              "code": "6768-6",
              "system": "http://loinc.org",
              "display": "Alkaline phosphatase [Enzymatic activity/volume] in Serum or Plasma"
            }
          ],
          "text": "Alkaline phosphatase [Enzymatic activity/volume] in Serum or Plasma"
        },
        "valueQuantity": {
          "system": "http://unitsofmeasure.org",
          "value": 109,
          "unit": "U/L",
          "code": "U/L"
        },
        "referenceRange": [
          {
            "low": {
              "value": 44,
              "code": "U/L",
              "system": "http://unitsofmeasure.org"
            }
          },
          {
            "high": {
              "value": 142,
              "code": "U/L",
              "system": "http://unitsofmeasure.org"
            }
          }
        ],
        "text": {
          "status": "generated",
          "div": "<div xmlns=\"http://www.w3.org/1999/xhtml\"><table class=\"hl7__eu__lab__report\"><tr><th>Test</th><th>20-Apr-2016</th><th>Reference&#xA0;Range</th><th>Unit</th></tr><tr><td>Alkaline phosphatase [Enzymatic activity/volume] in Serum or Plasma</td><td>109.0</td><td>44 - 142</td><td></td><td>U/L</td></tr></table></div>"
        },
        "status": "final",
        "subject": {
          "reference": "urn:uuid:607817d1-2957-4078-a532-642df7294485",
          "display": "Maria Nohlmans"
        },
        "effectiveDateTime": "2016-04-20T14:09:39Z",
        "specimen": {
          "reference": "urn:uuid:f817759f-cd12-4c02-a6d5-140902c45873"
        }
      }
    },
    {
      "fullUrl": "urn:uuid:c8d49df8-fa06-42eb-9ef7-df452dad3d31",
      "resource": {
        "resourceType": "Observation",
        "id": "c8d49df8-fa06-42eb-9ef7-df452dad3d31",
        "meta": {
          "profile": [
            "http://hl7.eu/fhir/laboratory/StructureDefinition/Observation-resultslab-eu-lab"
          ]
        },
        "performer": [
          {
            "display": "The Central European Lab"
          }
        ],
        "category": [
          {
            "coding": [
              {
                "system": "http://terminology.hl7.org/CodeSystem/observation-category",
                "code": "laboratory"
              }
            ]
          }
        ],
        "code": {
          "coding": [
            {
              "code": "1742-6",
              "system": "http://loinc.org",
              "display": "Alanine aminotransferase [Enzymatic activity/volume] in Serum or Plasma"
            }
          ],
          "text": "Alanine aminotransferase [Enzymatic activity/volume] in Serum or Plasma"
        },
        "valueQuantity": {
          "system": "http://unitsofmeasure.org",
          "value": 43,
          "unit": "U/L",
          "code": "U/L"
        },
        "referenceRange": [
          {
            "low": {
              "value": 7,
              "code": "U/L",
              "system": "http://unitsofmeasure.org"
            }
          },
          {
            "high": {
              "value": 40,
              "code": "U/L",
              "system": "http://unitsofmeasure.org"
            }
          }
        ],
        "interpretation": [
          {
            "coding": [
              {
                "code": "H",
                "system": "http://terminology.hl7.org/CodeSystem/v3-ObservationInterpretation",
                "display": "High"
              }
            ]
          }
        ],
        "text": {
          "status": "generated",
          "div": "<div xmlns=\"http://www.w3.org/1999/xhtml\"><table class=\"hl7__eu__lab__report\"><tr><th>Test</th><th>20-Apr-2016</th><th>Reference&#xA0;Range</th><th>Unit</th></tr><tr><td>Alanine aminotransferase [Enzymatic activity/volume] in Serum or Plasma</td><td>43.0</td><td>7 - 40</td><td>H</td><td>U/L</td></tr></table></div>"
        },
        "status": "final",
        "subject": {
          "reference": "urn:uuid:607817d1-2957-4078-a532-642df7294485",
          "display": "Maria Nohlmans"
        },
        "effectiveDateTime": "2016-04-20T14:09:39Z",
        "specimen": {
          "reference": "urn:uuid:f817759f-cd12-4c02-a6d5-140902c45873"
        }
      }
    },
    {
      "fullUrl": "urn:uuid:3d74a7b0-a765-4906-8ede-e3046d4e72e2",
      "resource": {
        "resourceType": "Observation",
        "id": "3d74a7b0-a765-4906-8ede-e3046d4e72e2",
        "meta": {
          "profile": [
            "http://hl7.eu/fhir/laboratory/StructureDefinition/Observation-resultslab-eu-lab"
          ]
        },
        "performer": [
          {
            "display": "The Central European Lab"
          }
        ],
        "category": [
          {
            "coding": [
              {
                "system": "http://terminology.hl7.org/CodeSystem/observation-category",
                "code": "laboratory"
              }
            ]
          }
        ],
        "code": {
          "coding": [
            {
              "code": "1920-8",
              "system": "http://loinc.org",
              "display": "Aspartate aminotransferase [Enzymatic activity/volume] in Serum or Plasma"
            }
          ],
          "text": "Aspartate aminotransferase [Enzymatic activity/volume] in Serum or Plasma"
        },
        "valueQuantity": {
          "system": "http://unitsofmeasure.org",
          "value": 10.2,
          "unit": "U/L",
          "code": "U/L"
        },
        "referenceRange": [
          {
            "low": {
              "value": 10,
              "code": "U/L",
              "system": "http://unitsofmeasure.org"
            }
          },
          {
            "high": {
              "value": 40,
              "code": "U/L",
              "system": "http://unitsofmeasure.org"
            }
          }
        ],
        "text": {
          "status": "generated",
          "div": "<div xmlns=\"http://www.w3.org/1999/xhtml\"><table class=\"hl7__eu__lab__report\"><tr><th>Test</th><th>20-Apr-2016</th><th>Reference&#xA0;Range</th><th>Unit</th></tr><tr><td>Aspartate aminotransferase [Enzymatic activity/volume] in Serum or Plasma</td><td>10.2</td><td>10 - 40</td><td></td><td>U/L</td></tr></table></div>"
        },
        "status": "final",
        "subject": {
          "reference": "urn:uuid:607817d1-2957-4078-a532-642df7294485",
          "display": "Maria Nohlmans"
        },
        "effectiveDateTime": "2016-04-20T14:09:39Z",
        "specimen": {
          "reference": "urn:uuid:f817759f-cd12-4c02-a6d5-140902c45873"
        }
      }
    },
    {
      "fullUrl": "urn:uuid:ccaa7556-a66f-419f-a7b5-ebb295a5edaf",
      "resource": {
        "resourceType": "Observation",
        "id": "ccaa7556-a66f-419f-a7b5-ebb295a5edaf",
        "meta": {
          "profile": [
            "http://hl7.eu/fhir/laboratory/StructureDefinition/Observation-resultslab-eu-lab"
          ]
        },
        "performer": [
          {
            "display": "The Central European Lab"
          }
        ],
        "category": [
          {
            "coding": [
              {
                "system": "http://terminology.hl7.org/CodeSystem/observation-category",
                "code": "laboratory"
              }
            ]
          }
        ],
        "code": {
          "coding": [
            {
              "code": "5767-9",
              "system": "http://loinc.org",
              "display": "Appearance of Urine"
            }
          ],
          "text": "Appearance of Urine"
        },
        "text": {
          "status": "generated",
          "div": "<div xmlns=\"http://www.w3.org/1999/xhtml\"><table class=\"hl7__eu__lab__report\"><tr><th>Test</th><th>20-Apr-2016</th><th>Reference&#xA0;Range</th><th>Unit</th></tr><tr><td>Appearance of Urine</td></tr></table></div>"
        },
        "status": "final",
        "subject": {
          "reference": "urn:uuid:607817d1-2957-4078-a532-642df7294485",
          "display": "Maria Nohlmans"
        },
        "effectiveDateTime": "2016-04-20T14:09:39Z",
        "specimen": {
          "reference": "urn:uuid:503a920f-9114-43fd-acb4-af7b7cf7c69a"
        }
      }
    },
    {
      "fullUrl": "urn:uuid:1c71f292-9f06-432d-b0c5-b40991b7906a",
      "resource": {
        "resourceType": "Observation",
        "id": "1c71f292-9f06-432d-b0c5-b40991b7906a",
        "meta": {
          "profile": [
            "http://hl7.eu/fhir/laboratory/StructureDefinition/Observation-resultslab-eu-lab"
          ]
        },
        "performer": [
          {
            "display": "The Central European Lab"
          }
        ],
        "category": [
          {
            "coding": [
              {
                "system": "http://terminology.hl7.org/CodeSystem/observation-category",
                "code": "laboratory"
              }
            ]
          }
        ],
        "code": {
          "coding": [
            {
              "code": "34533-0",
              "system": "http://loinc.org",
              "display": "Odor of Urine"
            }
          ],
          "text": "Odor of Urine"
        },
        "text": {
          "status": "generated",
          "div": "<div xmlns=\"http://www.w3.org/1999/xhtml\"><table class=\"hl7__eu__lab__report\"><tr><th>Test</th><th>20-Apr-2016</th><th>Reference&#xA0;Range</th><th>Unit</th></tr><tr><td>Odor of Urine</td></tr></table></div>"
        },
        "status": "final",
        "subject": {
          "reference": "urn:uuid:607817d1-2957-4078-a532-642df7294485",
          "display": "Maria Nohlmans"
        },
        "effectiveDateTime": "2016-04-20T14:09:39Z",
        "specimen": {
          "reference": "urn:uuid:503a920f-9114-43fd-acb4-af7b7cf7c69a"
        }
      }
    },
    {
      "fullUrl": "urn:uuid:189cfc2a-1051-4e2b-8447-aedd836a707c",
      "resource": {
        "resourceType": "Observation",
        "id": "189cfc2a-1051-4e2b-8447-aedd836a707c",
        "meta": {
          "profile": [
            "http://hl7.eu/fhir/laboratory/StructureDefinition/Observation-resultslab-eu-lab"
          ]
        },
        "performer": [
          {
            "display": "The Central European Lab"
          }
        ],
        "category": [
          {
            "coding": [
              {
                "system": "http://terminology.hl7.org/CodeSystem/observation-category",
                "code": "laboratory"
              }
            ]
          }
        ],
        "code": {
          "coding": [
            {
              "code": "32167-9",
              "system": "http://loinc.org",
              "display": "Clarity of Urine"
            }
          ],
          "text": "Clarity of Urine"
        },
        "text": {
          "status": "generated",
          "div": "<div xmlns=\"http://www.w3.org/1999/xhtml\"><table class=\"hl7__eu__lab__report\"><tr><th>Test</th><th>20-Apr-2016</th><th>Reference&#xA0;Range</th><th>Unit</th></tr><tr><td>Clarity of Urine</td></tr></table></div>"
        },
        "status": "final",
        "subject": {
          "reference": "urn:uuid:607817d1-2957-4078-a532-642df7294485",
          "display": "Maria Nohlmans"
        },
        "effectiveDateTime": "2016-04-20T14:09:39Z",
        "specimen": {
          "reference": "urn:uuid:503a920f-9114-43fd-acb4-af7b7cf7c69a"
        }
      }
    },
    {
      "fullUrl": "urn:uuid:0a6442bc-468a-43f8-a910-cb96ea3a2aa8",
      "resource": {
        "resourceType": "Observation",
        "id": "0a6442bc-468a-43f8-a910-cb96ea3a2aa8",
        "meta": {
          "profile": [
            "http://hl7.eu/fhir/laboratory/StructureDefinition/Observation-resultslab-eu-lab"
          ]
        },
        "performer": [
          {
            "display": "The Central European Lab"
          }
        ],
        "category": [
          {
            "coding": [
              {
                "system": "http://terminology.hl7.org/CodeSystem/observation-category",
                "code": "laboratory"
              }
            ]
          }
        ],
        "code": {
          "coding": [
            {
              "code": "5778-6",
              "system": "http://loinc.org",
              "display": "Color of Urine"
            }
          ],
          "text": "Color of Urine"
        },
        "text": {
          "status": "generated",
          "div": "<div xmlns=\"http://www.w3.org/1999/xhtml\"><table class=\"hl7__eu__lab__report\"><tr><th>Test</th><th>20-Apr-2016</th><th>Reference&#xA0;Range</th><th>Unit</th></tr><tr><td>Color of Urine</td></tr></table></div>"
        },
        "status": "final",
        "subject": {
          "reference": "urn:uuid:607817d1-2957-4078-a532-642df7294485",
          "display": "Maria Nohlmans"
        },
        "effectiveDateTime": "2016-04-20T14:09:39Z",
        "specimen": {
          "reference": "urn:uuid:503a920f-9114-43fd-acb4-af7b7cf7c69a"
        }
      }
    },
    {
      "fullUrl": "urn:uuid:e52ddce7-32dc-4b43-a5e6-7db3ce847501",
      "resource": {
        "resourceType": "Observation",
        "id": "e52ddce7-32dc-4b43-a5e6-7db3ce847501",
        "meta": {
          "profile": [
            "http://hl7.eu/fhir/laboratory/StructureDefinition/Observation-resultslab-eu-lab"
          ]
        },
        "performer": [
          {
            "display": "The Central European Lab"
          }
        ],
        "category": [
          {
            "coding": [
              {
                "system": "http://terminology.hl7.org/CodeSystem/observation-category",
                "code": "laboratory"
              }
            ]
          }
        ],
        "code": {
          "coding": [
            {
              "code": "5792-7",
              "system": "http://loinc.org",
              "display": "Glucose [Mass/volume] in Urine by Test strip"
            }
          ],
          "text": "Glucose [Mass/volume] in Urine by Test strip"
        },
        "valueQuantity": {
          "system": "http://unitsofmeasure.org",
          "value": 1.9,
          "unit": "mg/dL",
          "code": "mg/dL"
        },
        "referenceRange": [
          {
            "low": {
              "value": 0.8,
              "code": "mg/dL",
              "system": "http://unitsofmeasure.org"
            }
          },
          {
            "high": {
              "value": 0,
              "code": "mg/dL",
              "system": "http://unitsofmeasure.org"
            }
          }
        ],
        "interpretation": [
          {
            "coding": [
              {
                "code": "H",
                "system": "http://terminology.hl7.org/CodeSystem/v3-ObservationInterpretation",
                "display": "High"
              }
            ]
          }
        ],
        "text": {
          "status": "generated",
          "div": "<div xmlns=\"http://www.w3.org/1999/xhtml\"><table class=\"hl7__eu__lab__report\"><tr><th>Test</th><th>20-Apr-2016</th><th>Reference&#xA0;Range</th><th>Unit</th></tr><tr><td>Glucose [Mass/volume] in Urine by Test strip</td><td>1.9</td><td>0.8 - 0</td><td>H</td><td>mg/dL</td></tr></table></div>"
        },
        "status": "final",
        "subject": {
          "reference": "urn:uuid:607817d1-2957-4078-a532-642df7294485",
          "display": "Maria Nohlmans"
        },
        "effectiveDateTime": "2016-04-20T14:09:39Z",
        "specimen": {
          "reference": "urn:uuid:503a920f-9114-43fd-acb4-af7b7cf7c69a"
        }
      }
    },
    {
      "fullUrl": "urn:uuid:c1948c47-79c0-49f0-921f-d68983ef32f9",
      "resource": {
        "resourceType": "Observation",
        "id": "c1948c47-79c0-49f0-921f-d68983ef32f9",
        "meta": {
          "profile": [
            "http://hl7.eu/fhir/laboratory/StructureDefinition/Observation-resultslab-eu-lab"
          ]
        },
        "performer": [
          {
            "display": "The Central European Lab"
          }
        ],
        "category": [
          {
            "coding": [
              {
                "system": "http://terminology.hl7.org/CodeSystem/observation-category",
                "code": "laboratory"
              }
            ]
          }
        ],
        "code": {
          "coding": [
            {
              "code": "25428-4",
              "system": "http://loinc.org",
              "display": "Glucose [Presence] in Urine by Test strip"
            }
          ],
          "text": "Glucose [Presence] in Urine by Test strip"
        },
        "text": {
          "status": "generated",
          "div": "<div xmlns=\"http://www.w3.org/1999/xhtml\"><table class=\"hl7__eu__lab__report\"><tr><th>Test</th><th>20-Apr-2016</th><th>Reference&#xA0;Range</th><th>Unit</th></tr><tr><td>Glucose [Presence] in Urine by Test strip</td></tr></table></div>"
        },
        "status": "final",
        "subject": {
          "reference": "urn:uuid:607817d1-2957-4078-a532-642df7294485",
          "display": "Maria Nohlmans"
        },
        "effectiveDateTime": "2016-04-20T14:09:39Z",
        "specimen": {
          "reference": "urn:uuid:503a920f-9114-43fd-acb4-af7b7cf7c69a"
        }
      }
    },
    {
      "fullUrl": "urn:uuid:87bf3bbf-d1b1-4f0e-a3a1-e3829b4bc576",
      "resource": {
        "resourceType": "Observation",
        "id": "87bf3bbf-d1b1-4f0e-a3a1-e3829b4bc576",
        "meta": {
          "profile": [
            "http://hl7.eu/fhir/laboratory/StructureDefinition/Observation-resultslab-eu-lab"
          ]
        },
        "performer": [
          {
            "display": "The Central European Lab"
          }
        ],
        "category": [
          {
            "coding": [
              {
                "system": "http://terminology.hl7.org/CodeSystem/observation-category",
                "code": "laboratory"
              }
            ]
          }
        ],
        "code": {
          "coding": [
            {
              "code": "20505-4",
              "system": "http://loinc.org",
              "display": "Bilirubin.total [Mass/volume] in Urine by Test strip"
            }
          ],
          "text": "Bilirubin.total [Mass/volume] in Urine by Test strip"
        },
        "valueQuantity": {
          "system": "http://unitsofmeasure.org",
          "value": 0.5,
          "unit": "mg/dL",
          "code": "mg/dL"
        },
        "referenceRange": [
          {
            "low": {
              "value": 0,
              "code": "mg/dL",
              "system": "http://unitsofmeasure.org"
            }
          },
          {
            "high": {
              "value": 1.5,
              "code": "mg/dL",
              "system": "http://unitsofmeasure.org"
            }
          }
        ],
        "text": {
          "status": "generated",
          "div": "<div xmlns=\"http://www.w3.org/1999/xhtml\"><table class=\"hl7__eu__lab__report\"><tr><th>Test</th><th>20-Apr-2016</th><th>Reference&#xA0;Range</th><th>Unit</th></tr><tr><td>Bilirubin.total [Mass/volume] in Urine by Test strip</td><td>0.5</td><td>0 - 1.5</td><td></td><td>mg/dL</td></tr></table></div>"
        },
        "status": "final",
        "subject": {
          "reference": "urn:uuid:607817d1-2957-4078-a532-642df7294485",
          "display": "Maria Nohlmans"
        },
        "effectiveDateTime": "2016-04-20T14:09:39Z",
        "specimen": {
          "reference": "urn:uuid:503a920f-9114-43fd-acb4-af7b7cf7c69a"
        }
      }
    },
    {
      "fullUrl": "urn:uuid:0f009a58-54a5-4647-8fcd-db5de59228a8",
      "resource": {
        "resourceType": "Observation",
        "id": "0f009a58-54a5-4647-8fcd-db5de59228a8",
        "meta": {
          "profile": [
            "http://hl7.eu/fhir/laboratory/StructureDefinition/Observation-resultslab-eu-lab"
          ]
        },
        "performer": [
          {
            "display": "The Central European Lab"
          }
        ],
        "category": [
          {
            "coding": [
              {
                "system": "http://terminology.hl7.org/CodeSystem/observation-category",
                "code": "laboratory"
              }
            ]
          }
        ],
        "code": {
          "coding": [
            {
              "code": "5770-3",
              "system": "http://loinc.org",
              "display": "Bilirubin.total [Presence] in Urine by Test strip"
            }
          ],
          "text": "Bilirubin.total [Presence] in Urine by Test strip"
        },
        "text": {
          "status": "generated",
          "div": "<div xmlns=\"http://www.w3.org/1999/xhtml\"><table class=\"hl7__eu__lab__report\"><tr><th>Test</th><th>20-Apr-2016</th><th>Reference&#xA0;Range</th><th>Unit</th></tr><tr><td>Bilirubin.total [Presence] in Urine by Test strip</td></tr></table></div>"
        },
        "status": "final",
        "subject": {
          "reference": "urn:uuid:607817d1-2957-4078-a532-642df7294485",
          "display": "Maria Nohlmans"
        },
        "effectiveDateTime": "2016-04-20T14:09:39Z",
        "specimen": {
          "reference": "urn:uuid:503a920f-9114-43fd-acb4-af7b7cf7c69a"
        }
      }
    },
    {
      "fullUrl": "urn:uuid:4bfb17f3-ae15-41be-a494-6c56564fd419",
      "resource": {
        "resourceType": "Observation",
        "id": "4bfb17f3-ae15-41be-a494-6c56564fd419",
        "meta": {
          "profile": [
            "http://hl7.eu/fhir/laboratory/StructureDefinition/Observation-resultslab-eu-lab"
          ]
        },
        "performer": [
          {
            "display": "The Central European Lab"
          }
        ],
        "category": [
          {
            "coding": [
              {
                "system": "http://terminology.hl7.org/CodeSystem/observation-category",
                "code": "laboratory"
              }
            ]
          }
        ],
        "code": {
          "coding": [
            {
              "code": "5797-6",
              "system": "http://loinc.org",
              "display": "Ketones [Mass/volume] in Urine by Test strip"
            }
          ],
          "text": "Ketones [Mass/volume] in Urine by Test strip"
        },
        "valueQuantity": {
          "system": "http://unitsofmeasure.org",
          "value": 0.4,
          "unit": "mg/dL",
          "code": "mg/dL"
        },
        "referenceRange": [
          {
            "low": {
              "value": 0,
              "code": "mg/dL",
              "system": "http://unitsofmeasure.org"
            }
          },
          {
            "high": {
              "value": 8,
              "code": "mg/dL",
              "system": "http://unitsofmeasure.org"
            }
          }
        ],
        "text": {
          "status": "generated",
          "div": "<div xmlns=\"http://www.w3.org/1999/xhtml\"><table class=\"hl7__eu__lab__report\"><tr><th>Test</th><th>20-Apr-2016</th><th>Reference&#xA0;Range</th><th>Unit</th></tr><tr><td>Ketones [Mass/volume] in Urine by Test strip</td><td>0.4</td><td>0 - 8</td><td></td><td>mg/dL</td></tr></table></div>"
        },
        "status": "final",
        "subject": {
          "reference": "urn:uuid:607817d1-2957-4078-a532-642df7294485",
          "display": "Maria Nohlmans"
        },
        "effectiveDateTime": "2016-04-20T14:09:39Z",
        "specimen": {
          "reference": "urn:uuid:503a920f-9114-43fd-acb4-af7b7cf7c69a"
        }
      }
    },
    {
      "fullUrl": "urn:uuid:598a6917-2ecf-4c19-88f4-e6915ac3ef20",
      "resource": {
        "resourceType": "Observation",
        "id": "598a6917-2ecf-4c19-88f4-e6915ac3ef20",
        "meta": {
          "profile": [
            "http://hl7.eu/fhir/laboratory/StructureDefinition/Observation-resultslab-eu-lab"
          ]
        },
        "performer": [
          {
            "display": "The Central European Lab"
          }
        ],
        "category": [
          {
            "coding": [
              {
                "system": "http://terminology.hl7.org/CodeSystem/observation-category",
                "code": "laboratory"
              }
            ]
          }
        ],
        "code": {
          "coding": [
            {
              "code": "2514-8",
              "system": "http://loinc.org",
              "display": "Ketones [Presence] in Urine by Test strip"
            }
          ],
          "text": "Ketones [Presence] in Urine by Test strip"
        },
        "text": {
          "status": "generated",
          "div": "<div xmlns=\"http://www.w3.org/1999/xhtml\"><table class=\"hl7__eu__lab__report\"><tr><th>Test</th><th>20-Apr-2016</th><th>Reference&#xA0;Range</th><th>Unit</th></tr><tr><td>Ketones [Presence] in Urine by Test strip</td></tr></table></div>"
        },
        "status": "final",
        "subject": {
          "reference": "urn:uuid:607817d1-2957-4078-a532-642df7294485",
          "display": "Maria Nohlmans"
        },
        "effectiveDateTime": "2016-04-20T14:09:39Z",
        "specimen": {
          "reference": "urn:uuid:503a920f-9114-43fd-acb4-af7b7cf7c69a"
        }
      }
    },
    {
      "fullUrl": "urn:uuid:9d42d30f-5a1b-409e-ab32-a7fb29e74b5c",
      "resource": {
        "resourceType": "Observation",
        "id": "9d42d30f-5a1b-409e-ab32-a7fb29e74b5c",
        "meta": {
          "profile": [
            "http://hl7.eu/fhir/laboratory/StructureDefinition/Observation-resultslab-eu-lab"
          ]
        },
        "performer": [
          {
            "display": "The Central European Lab"
          }
        ],
        "category": [
          {
            "coding": [
              {
                "system": "http://terminology.hl7.org/CodeSystem/observation-category",
                "code": "laboratory"
              }
            ]
          }
        ],
        "code": {
          "coding": [
            {
              "code": "5811-5",
              "system": "http://loinc.org",
              "display": "Specific gravity of Urine by Test strip"
            }
          ],
          "text": "Specific gravity of Urine by Test strip"
        },
        "valueQuantity": {
          "system": "http://unitsofmeasure.org",
          "value": 1,
          "unit": "{nominal}",
          "code": "{nominal}"
        },
        "referenceRange": [
          {
            "low": {
              "value": 1.01,
              "code": "g/mL",
              "system": "http://unitsofmeasure.org"
            }
          },
          {
            "high": {
              "value": 1.03,
              "code": "g/mL",
              "system": "http://unitsofmeasure.org"
            }
          }
        ],
        "interpretation": [
          {
            "coding": [
              {
                "code": "L",
                "system": "http://terminology.hl7.org/CodeSystem/v3-ObservationInterpretation",
                "display": "Low"
              }
            ]
          }
        ],
        "text": {
          "status": "generated",
          "div": "<div xmlns=\"http://www.w3.org/1999/xhtml\"><table class=\"hl7__eu__lab__report\"><tr><th>Test</th><th>20-Apr-2016</th><th>Reference&#xA0;Range</th><th>Unit</th></tr><tr><td>Specific gravity of Urine by Test strip</td><td>1.0</td><td>1.01 - 1.03</td><td>L</td><td>{nominal}</td></tr></table></div>"
        },
        "status": "final",
        "subject": {
          "reference": "urn:uuid:607817d1-2957-4078-a532-642df7294485",
          "display": "Maria Nohlmans"
        },
        "effectiveDateTime": "2016-04-20T14:09:39Z",
        "specimen": {
          "reference": "urn:uuid:503a920f-9114-43fd-acb4-af7b7cf7c69a"
        }
      }
    },
    {
      "fullUrl": "urn:uuid:8ec7603f-e7ce-48c0-842d-70a63e1fd8cb",
      "resource": {
        "resourceType": "Observation",
        "id": "8ec7603f-e7ce-48c0-842d-70a63e1fd8cb",
        "meta": {
          "profile": [
            "http://hl7.eu/fhir/laboratory/StructureDefinition/Observation-resultslab-eu-lab"
          ]
        },
        "performer": [
          {
            "display": "The Central European Lab"
          }
        ],
        "category": [
          {
            "coding": [
              {
                "system": "http://terminology.hl7.org/CodeSystem/observation-category",
                "code": "laboratory"
              }
            ]
          }
        ],
        "code": {
          "coding": [
            {
              "code": "5803-2",
              "system": "http://loinc.org",
              "display": "pH of Urine by Test strip"
            }
          ],
          "text": "pH of Urine by Test strip"
        },
        "valueQuantity": {
          "system": "http://unitsofmeasure.org",
          "value": 6.8,
          "unit": "pH",
          "code": "pH"
        },
        "referenceRange": [
          {
            "low": {
              "value": 4.6,
              "code": "pH",
              "system": "http://unitsofmeasure.org"
            }
          },
          {
            "high": {
              "value": 7.5,
              "code": "pH",
              "system": "http://unitsofmeasure.org"
            }
          }
        ],
        "text": {
          "status": "generated",
          "div": "<div xmlns=\"http://www.w3.org/1999/xhtml\"><table class=\"hl7__eu__lab__report\"><tr><th>Test</th><th>20-Apr-2016</th><th>Reference&#xA0;Range</th><th>Unit</th></tr><tr><td>pH of Urine by Test strip</td><td>6.8</td><td>4.6 - 7.5</td><td></td><td>pH</td></tr></table></div>"
        },
        "status": "final",
        "subject": {
          "reference": "urn:uuid:607817d1-2957-4078-a532-642df7294485",
          "display": "Maria Nohlmans"
        },
        "effectiveDateTime": "2016-04-20T14:09:39Z",
        "specimen": {
          "reference": "urn:uuid:503a920f-9114-43fd-acb4-af7b7cf7c69a"
        }
      }
    },
    {
      "fullUrl": "urn:uuid:6d3670f0-d15f-496c-9c1c-3f21337c6384",
      "resource": {
        "resourceType": "Observation",
        "id": "6d3670f0-d15f-496c-9c1c-3f21337c6384",
        "meta": {
          "profile": [
            "http://hl7.eu/fhir/laboratory/StructureDefinition/Observation-resultslab-eu-lab"
          ]
        },
        "performer": [
          {
            "display": "The Central European Lab"
          }
        ],
        "category": [
          {
            "coding": [
              {
                "system": "http://terminology.hl7.org/CodeSystem/observation-category",
                "code": "laboratory"
              }
            ]
          }
        ],
        "code": {
          "coding": [
            {
              "code": "5804-0",
              "system": "http://loinc.org",
              "display": "Protein [Mass/volume] in Urine by Test strip"
            }
          ],
          "text": "Protein [Mass/volume] in Urine by Test strip"
        },
        "valueQuantity": {
          "system": "http://unitsofmeasure.org",
          "value": 252.8,
          "unit": "mg/dL",
          "code": "mg/dL"
        },
        "referenceRange": [
          {
            "low": {
              "value": 0,
              "code": "mg/dL",
              "system": "http://unitsofmeasure.org"
            }
          },
          {
            "high": {
              "value": 14,
              "code": "mg/dL",
              "system": "http://unitsofmeasure.org"
            }
          }
        ],
        "interpretation": [
          {
            "coding": [
              {
                "code": "H",
                "system": "http://terminology.hl7.org/CodeSystem/v3-ObservationInterpretation",
                "display": "High"
              }
            ]
          }
        ],
        "text": {
          "status": "generated",
          "div": "<div xmlns=\"http://www.w3.org/1999/xhtml\"><table class=\"hl7__eu__lab__report\"><tr><th>Test</th><th>20-Apr-2016</th><th>Reference&#xA0;Range</th><th>Unit</th></tr><tr><td>Protein [Mass/volume] in Urine by Test strip</td><td>252.8</td><td>0 - 14</td><td>H</td><td>mg/dL</td></tr></table></div>"
        },
        "status": "final",
        "subject": {
          "reference": "urn:uuid:607817d1-2957-4078-a532-642df7294485",
          "display": "Maria Nohlmans"
        },
        "effectiveDateTime": "2016-04-20T14:09:39Z",
        "specimen": {
          "reference": "urn:uuid:503a920f-9114-43fd-acb4-af7b7cf7c69a"
        }
      }
    },
    {
      "fullUrl": "urn:uuid:fd17decc-5844-4239-b846-7fbd9b1f7510",
      "resource": {
        "resourceType": "Observation",
        "id": "fd17decc-5844-4239-b846-7fbd9b1f7510",
        "meta": {
          "profile": [
            "http://hl7.eu/fhir/laboratory/StructureDefinition/Observation-resultslab-eu-lab"
          ]
        },
        "performer": [
          {
            "display": "The Central European Lab"
          }
        ],
        "category": [
          {
            "coding": [
              {
                "system": "http://terminology.hl7.org/CodeSystem/observation-category",
                "code": "laboratory"
              }
            ]
          }
        ],
        "code": {
          "coding": [
            {
              "code": "20454-5",
              "system": "http://loinc.org",
              "display": "Protein [Presence] in Urine by Test strip"
            }
          ],
          "text": "Protein [Presence] in Urine by Test strip"
        },
        "text": {
          "status": "generated",
          "div": "<div xmlns=\"http://www.w3.org/1999/xhtml\"><table class=\"hl7__eu__lab__report\"><tr><th>Test</th><th>20-Apr-2016</th><th>Reference&#xA0;Range</th><th>Unit</th></tr><tr><td>Protein [Presence] in Urine by Test strip</td></tr></table></div>"
        },
        "status": "final",
        "subject": {
          "reference": "urn:uuid:607817d1-2957-4078-a532-642df7294485",
          "display": "Maria Nohlmans"
        },
        "effectiveDateTime": "2016-04-20T14:09:39Z",
        "specimen": {
          "reference": "urn:uuid:503a920f-9114-43fd-acb4-af7b7cf7c69a"
        }
      }
    },
    {
      "fullUrl": "urn:uuid:b753b3a6-b428-4dfc-a70d-ee80d9b3f548",
      "resource": {
        "resourceType": "Observation",
        "id": "b753b3a6-b428-4dfc-a70d-ee80d9b3f548",
        "meta": {
          "profile": [
            "http://hl7.eu/fhir/laboratory/StructureDefinition/Observation-resultslab-eu-lab"
          ]
        },
        "performer": [
          {
            "display": "The Central European Lab"
          }
        ],
        "category": [
          {
            "coding": [
              {
                "system": "http://terminology.hl7.org/CodeSystem/observation-category",
                "code": "laboratory"
              }
            ]
          }
        ],
        "code": {
          "coding": [
            {
              "code": "5802-4",
              "system": "http://loinc.org",
              "display": "Nitrite [Presence] in Urine by Test strip"
            }
          ],
          "text": "Nitrite [Presence] in Urine by Test strip"
        },
        "text": {
          "status": "generated",
          "div": "<div xmlns=\"http://www.w3.org/1999/xhtml\"><table class=\"hl7__eu__lab__report\"><tr><th>Test</th><th>20-Apr-2016</th><th>Reference&#xA0;Range</th><th>Unit</th></tr><tr><td>Nitrite [Presence] in Urine by Test strip</td></tr></table></div>"
        },
        "status": "final",
        "subject": {
          "reference": "urn:uuid:607817d1-2957-4078-a532-642df7294485",
          "display": "Maria Nohlmans"
        },
        "effectiveDateTime": "2016-04-20T14:09:39Z",
        "specimen": {
          "reference": "urn:uuid:503a920f-9114-43fd-acb4-af7b7cf7c69a"
        }
      }
    },
    {
      "fullUrl": "urn:uuid:5a31cdd4-d566-4c9c-9a21-8b306e86d283",
      "resource": {
        "resourceType": "Observation",
        "id": "5a31cdd4-d566-4c9c-9a21-8b306e86d283",
        "meta": {
          "profile": [
            "http://hl7.eu/fhir/laboratory/StructureDefinition/Observation-resultslab-eu-lab"
          ]
        },
        "performer": [
          {
            "display": "The Central European Lab"
          }
        ],
        "category": [
          {
            "coding": [
              {
                "system": "http://terminology.hl7.org/CodeSystem/observation-category",
                "code": "laboratory"
              }
            ]
          }
        ],
        "code": {
          "coding": [
            {
              "code": "5794-3",
              "system": "http://loinc.org",
              "display": "Hemoglobin [Presence] in Urine by Test strip"
            }
          ],
          "text": "Hemoglobin [Presence] in Urine by Test strip"
        },
        "text": {
          "status": "generated",
          "div": "<div xmlns=\"http://www.w3.org/1999/xhtml\"><table class=\"hl7__eu__lab__report\"><tr><th>Test</th><th>20-Apr-2016</th><th>Reference&#xA0;Range</th><th>Unit</th></tr><tr><td>Hemoglobin [Presence] in Urine by Test strip</td></tr></table></div>"
        },
        "status": "final",
        "subject": {
          "reference": "urn:uuid:607817d1-2957-4078-a532-642df7294485",
          "display": "Maria Nohlmans"
        },
        "effectiveDateTime": "2016-04-20T14:09:39Z",
        "specimen": {
          "reference": "urn:uuid:503a920f-9114-43fd-acb4-af7b7cf7c69a"
        }
      }
    },
    {
      "fullUrl": "urn:uuid:da9b624a-af6d-40ed-b760-12f19cbf6f63",
      "resource": {
        "resourceType": "Observation",
        "id": "da9b624a-af6d-40ed-b760-12f19cbf6f63",
        "meta": {
          "profile": [
            "http://hl7.eu/fhir/laboratory/StructureDefinition/Observation-resultslab-eu-lab"
          ]
        },
        "performer": [
          {
            "display": "The Central European Lab"
          }
        ],
        "category": [
          {
            "coding": [
              {
                "system": "http://terminology.hl7.org/CodeSystem/observation-category",
                "code": "laboratory"
              }
            ]
          }
        ],
        "code": {
          "coding": [
            {
              "code": "5799-2",
              "system": "http://loinc.org",
              "display": "Leukocyte esterase [Presence] in Urine by Test strip"
            }
          ],
          "text": "Leukocyte esterase [Presence] in Urine by Test strip"
        },
        "text": {
          "status": "generated",
          "div": "<div xmlns=\"http://www.w3.org/1999/xhtml\"><table class=\"hl7__eu__lab__report\"><tr><th>Test</th><th>20-Apr-2016</th><th>Reference&#xA0;Range</th><th>Unit</th></tr><tr><td>Leukocyte esterase [Presence] in Urine by Test strip</td></tr></table></div>"
        },
        "status": "final",
        "subject": {
          "reference": "urn:uuid:607817d1-2957-4078-a532-642df7294485",
          "display": "Maria Nohlmans"
        },
        "effectiveDateTime": "2016-04-20T14:09:39Z",
        "specimen": {
          "reference": "urn:uuid:503a920f-9114-43fd-acb4-af7b7cf7c69a"
        }
      }
    },
    {
      "fullUrl": "urn:uuid:ec24601c-75cb-46da-b523-ca4b8508793b",
      "resource": {
        "resourceType": "Device",
        "id": "ec24601c-75cb-46da-b523-ca4b8508793b",
        "deviceName": [
          {
            "name": "SYNDERAI Synthetic Generator",
            "type": "manufacturer-name"
          }
        ],
        "version": [
          {
            "value": "5.0"
          }
        ],
        "text": {
          "status": "generated",
          "div": "<div xmlns=\"http://www.w3.org/1999/xhtml\">SYNDERAI Synthetic Generator v5.0</div>"
        },
        "status": "active\"",
        "distinctIdentifier": "synderai-generator-50",
        "manufacturer": "SYNDERAI Project"
      }
    },
    {
      "fullUrl": "urn:uuid:c4a189c4-d476-4c29-b173-82cc59ae24f6",
      "resource": {
        "resourceType": "Provenance",
        "id": "c4a189c4-d476-4c29-b173-82cc59ae24f6",
        "target": [
          {
            "reference": "Patient/607817d1-2957-4078-a532-642df7294485"
          },
          {
            "reference": "Bundle/5b66c9ef-f4d3-4b03-a632-58481a1ab490"
          },
          {
            "reference": "Composition/ee044f6b-27bd-4942-9fb4-f1e74ff3dad5"
          },
          {
            "reference": "PractitionerRole/09ee7009-f19c-49c0-9b74-27bd981ea361"
          },
          {
            "reference": "Practitioner/4b7d5079-4d79-47fb-b740-4ae0cefc5e17"
          },
          {
            "reference": "PractitionerRole/bdb2be08-ee64-4859-84b6-cd31c5f533d6"
          },
          {
            "reference": "Organization/8c16d645-b7b1-4ce3-973a-aa370f5d2772"
          }
        ],
        "activity": {
          "text": "Synthetic Example Data Generation"
        },
        "policy": [
          "https://synderai.net/synderai-synthetic-data-policy"
        ],
        "agent": [
          {
            "type": {
              "text": "author"
            },
            "who": {
              "reference": "Device/ec24601c-75cb-46da-b523-ca4b8508793b"
            }
          }
        ],
        "reason": [
          {
            "text": "Interoperability Testing and Training (non-clinical use)"
          }
        ],
        "text": {
          "status": "generated",
          "div": "<div xmlns=\"http://www.w3.org/1999/xhtml\">Provenance for SYNDERAI Synthetic Example Data Resource</div>"
        },
        "recorded": "2016-04-20T16:09:39Z"
      }
    },
    {
      "fullUrl": "urn:uuid:09ee7009-f19c-49c0-9b74-27bd981ea361",
      "resource": {
        "resourceType": "PractitionerRole",
        "id": "09ee7009-f19c-49c0-9b74-27bd981ea361",
        "meta": {
          "profile": [
            "http://hl7.eu/fhir/base/StructureDefinition/practitionerRole-eu"
          ]
        },
        "text": {
          "status": "generated",
          "div": "<div xmlns=\"http://www.w3.org/1999/xhtml\">Laboratory Role Id: 09ee7009-f19c-49c0-9b74-27bd981ea361</div>"
        },
        "practitioner": {
          "reference": "urn:uuid:4b7d5079-4d79-47fb-b740-4ae0cefc5e17"
        }
      }
    },
    {
      "fullUrl": "urn:uuid:4b7d5079-4d79-47fb-b740-4ae0cefc5e17",
      "resource": {
        "resourceType": "Practitioner",
        "id": "4b7d5079-4d79-47fb-b740-4ae0cefc5e17",
        "meta": {
          "profile": [
            "http://hl7.eu/fhir/base/StructureDefinition/practitioner-eu"
          ]
        },
        "identifier": [
          {
            "assigner": {
              "display": "HL7 Europe"
            },
            "system": "urn:oid:2.16.840.1.113883.2.51.999",
            "value": "93fad69e-f761-46bb-aae9-7a9a7d4250b3"
          }
        ],
        "name": [
          {
            "prefix": [
              "dr"
            ],
            "given": [
              "Ex"
            ],
            "family": "Ample"
          }
        ],
        "address": [
          {
            "line": [
              "Laboratoire Central Européenne",
              "Boulevard du Jardin Botanique 32"
            ],
            "postalCode": "1000",
            "city": "Brussels",
            "country": "Belgium"
          }
        ],
        "text": {
          "status": "generated",
          "div": "<div xmlns=\"http://www.w3.org/1999/xhtml\">Laboratory: Laboratoire Central Européenne, 1000 Brussels, Belgium</div>"
        }
      }
    }
  ],
  "type": "document",
  "timestamp": "2016-04-20T16:09:39Z"
}
