<Bundle xmlns="http://hl7.org/fhir">
   <id value="ee0db846-e35b-49d4-bd79-76d427c900b6"/>
   <meta>
      <profile value="http://hl7.eu/fhir/laboratory/StructureDefinition/Bundle-eu-lab"/>
   </meta>
   <identifier>
      <system value="urn:oid:2.16.840.1.113883.2.51.999"/>
      <value value="292a7a58-806e-42c5-ac1f-218ebdbf7b18"/>
      <assigner>
         <display value="HL7 Europe"/>
      </assigner>
   </identifier>
   <type value="document"/>
   <timestamp value="2023-07-12T20:07:38Z"/>
   <entry>
      <fullUrl value="urn:uuid:5e9bebeb-0a58-4401-9743-a0b3a70a3328"/>
      <resource>
         <Composition>
            <id value="5e9bebeb-0a58-4401-9743-a0b3a70a3328"/>
            <meta>
               <profile value="http://hl7.eu/fhir/laboratory/StructureDefinition/Composition-eu-lab"/>
            </meta>
            <identifier>
               <system value="urn:oid:2.16.840.1.113883.2.51.999"/>
               <value value="a5382453-9ae9-4599-ba19-bc4df0f56841"/>
               <assigner>
                  <display value="HL7 Europe"/>
               </assigner>
            </identifier>
            <status value="final"/>
            <type>
               <coding>
                  <system value="http://loinc.org"/>
                  <code value="11502-2"/>
                  <display value="Laboratory report"/>
               </coding>
               <text value="Laboratory Report"/>
            </type>
            <category>
               <coding>
                  <system value="http://loinc.org"/>
                  <code value="26436-6"/>
                  <display value="Laboratory studies (set)"/>
               </coding>
            </category>
            <subject>
               <reference value="urn:uuid:81c2cc79-df0b-43c6-b8d9-886800cd2f15"/>
               <display value="Jele Jurković"/>
            </subject>
            <date value="2023-07-12T20:07:38Z"/>
            <author>
               <reference value="urn:uuid:9fc5d3cc-bd48-41bb-a9e9-5a6a84b69751"/>
            </author>
            <title value="Laboratory Report"/>
            <confidentiality value="N"/>
            <section>
               <title value="Laboratory Report"/>
               <code>
                  <coding>
                     <system value="http://loinc.org"/>
                     <code value="26436-6"/>
                     <display value="Laboratory studies (set)"/>
                  </coding>
                  <text value="Laboratory studies"/>
               </code>
               <section>
                  <title value="Chemistry"/>
                  <code>
                     <coding>
                        <system value="http://loinc.org"/>
                        <code value="$18719-5"/>
                        <display value="Chemistry studies (set)"/>
                     </coding>
                     <text value="Chemistry"/>
                  </code>
                  <text>
                     <status value="generated"/>
                     <div xmlns="http://www.w3.org/1999/xhtml">
                        <h3>Chemistry</h3>
                        <table class="hl7__eu__lab__report">
                           <thead>
                              <tr>
                                 <th>Test</th>
                                 <th>12-JUL-2023</th>
                                 <th>Reference Range</th>
                                 <th>Unit</th>
                              </tr>
                           </thead>
                           <tbody>
                              <tr>
                                 <td>Hemoglobin A1c/Hemoglobin.total in Blood</td>
                                 <td>
                                    <strong>6.1 H</strong>
                                 </td>
                                 <td>4 - 6</td>
                                 <td>%</td>
                              </tr>
                           </tbody>
                        </table>
                     </div>
                  </text>
                  <entry>
                     <reference value="urn:uuid:0f34345a-ac2b-406f-a559-32677c05947b"/>
                  </entry>
               </section>
            </section>
            <section>
               <title value="Annotation comment"/>
               <code>
                  <coding>
                     <system value="http://loinc.org"/>
                     <code value="48767-8"/>
                     <display value="Annotation comment"/>
                  </coding>
               </code>
               <text>
                  <status value="generated"/>
                  <div xmlns="http://www.w3.org/1999/xhtml">
                     <h3>Annotation</h3>
                     <table class="hl7__eu__lab__report">
                        <tr>
                           <th>Conclusion and Recommendations based on this report and previous findings known to us</th>
                        </tr>
                        <tr>
                           <td>The patient"s HbA1c is mildly elevated at 6.1%, indicating suboptimal long-term glycemic control and suggesting prediabetes or early diabetes. Clinical correlation and further assessment of glucose metabolism are recommended.</td>
                        </tr>
                     </table>
                  </div>
               </text>
            </section>
         </Composition>
      </resource>
   </entry>
   <entry>
      <fullUrl value="urn:uuid:f7c5e5fb-29c5-44bc-ac7f-69300250d138"/>
      <resource>
         <DiagnosticReport>
            <id value="f7c5e5fb-29c5-44bc-ac7f-69300250d138"/>
            <meta>
               <profile value="http://hl7.eu/fhir/laboratory/StructureDefinition/DiagnosticReport-eu-lab"/>
            </meta>
            <extension url="http://hl7.org/fhir/5.0/StructureDefinition/extension-DiagnosticReport.composition">
               <valueReference>
                  <reference value="urn:uuid:a5382453-9ae9-4599-ba19-bc4df0f56841"/>
               </valueReference>
            </extension>
            <identifier>
               <system value="urn:oid:2.16.840.1.113883.2.51.999"/>
               <value value="c178d6ba-4923-4166-9274-a6b41b110ab7"/>
               <assigner>
                  <display value="HL7 Europe"/>
               </assigner>
            </identifier>
            <status value="registered"/>
            <category>
               <coding>
                  <system value="http://loinc.org"/>
                  <code value="26436-6"/>
                  <display value="Laboratory studies (set)"/>
               </coding>
            </category>
            <code>
               <coding>
                  <system value="http://loinc.org"/>
                  <code value="11502-2"/>
                  <display value="Laboratory report"/>
               </coding>
            </code>
            <subject>
               <reference value="urn:uuid:81c2cc79-df0b-43c6-b8d9-886800cd2f15"/>
               <display value="Jele Jurković"/>
            </subject>
            <specimen>
               <reference value="urn:uuid:5cd5ee5d-9bfe-499d-9b45-c1780ab96059"/>
            </specimen>
            <result>
               <reference value="urn:uuid:0f34345a-ac2b-406f-a559-32677c05947b"/>
            </result>
         </DiagnosticReport>
      </resource>
   </entry>
   <entry>
      <fullUrl value="urn:uuid:81c2cc79-df0b-43c6-b8d9-886800cd2f15"/>
      <resource>
         <Patient>
            <id value="81c2cc79-df0b-43c6-b8d9-886800cd2f15"/>
            <meta>
               <profile value="http://hl7.eu/fhir/base/StructureDefinition/patient-eu-core"/>
               <security>
                  <system value="http://terminology.hl7.org/CodeSystem/v3-ActReason"/>
                  <code value="HTEST"/>
               </security>
               <security>
                  <system value="http://terminology.hl7.org/CodeSystem/v3-ActReason"/>
                  <code value="TRAIN"/>
               </security>
               <tag>
                  <system value="https://synderai.net/fhir/CodeSystem/tags"/>
                  <code value="synthetic"/>
                  <display value="SYNDERAI Synthetic data"/>
               </tag>
            </meta>
            <text>
               <status value="generated"/>
               <div xmlns="http://www.w3.org/1999/xhtml">
                  <table class="hl7__ips">
                     <tr>
                        <td>Jele Jurković</td>
                        <td>female</td>
                        <td>07-Jan-1953</td>
                     </tr>
                  </table>
               </div>
            </text>
            <extension url="http://hl7.org/fhir/StructureDefinition/patient-nationality">
               <valueCodeableConcept>
                  <coding>
                     <system value="http://hl7.org/fhir/ValueSet/country"/>
                     <code value="HR"/>
                  </coding>
               </valueCodeableConcept>
            </extension>
            <identifier>
               <type>
                  <coding>
                     <system value="http://terminology.hl7.org/CodeSystem/v2-0203"/>
                     <code value="PT"/>
                  </coding>
               </type>
               <system value="http://ec.europa.eu/identifier/eci"/>
               <value value="3583-291434-1"/>
            </identifier>
            <identifier>
               <type>
                  <coding>
                     <system value="http://terminology.hl7.org/CodeSystem/v2-0203"/>
                     <code value="MR"/>
                  </coding>
               </type>
               <system value="http://local.setting.eu/identifier"/>
               <value value="9d4fea2d-eece-b99f-3e16-832f0f5813f5"/>
            </identifier>
            <name>
               <family value="Jurković"/>
            </name>
            <name>
               <given value="Jele"/>
            </name>
            <name>
               <text value="Jele Jurković"/>
            </name>
            <telecom>
               <system value="phone"/>
               <value value="021 083 354"/>
            </telecom>
            <gender value="female"/>
            <birthDate value="1953-01-07"/>
            <address>
               <use value="home"/>
               <type value="physical"/>
               <line value="Klesarski put 7b/8"/>
               <city value="Pleternica"/>
               <postalCode value="34310"/>
               <country value="Croatia"/>
            </address>
         </Patient>
      </resource>
   </entry>
   <entry>
      <fullUrl value="urn:uuid:6bf3d680-d82e-4b80-ac12-efeea7830cb7"/>
      <resource>
         <ServiceRequest>
            <id value="6bf3d680-d82e-4b80-ac12-efeea7830cb7"/>
            <meta>
               <profile value="http://hl7.eu/fhir/laboratory/StructureDefinition/ServiceRequest-eu-lab"/>
            </meta>
            <identifier>
               <system value="http://example.org"/>
               <value value="140d8e9a-e972-4a7d-81ed-03232ad6f9db"/>
            </identifier>
            <status value="active"/>
            <intent value="order"/>
            <code>
               <coding>
                  <system value="http://snomed.info/sct"/>
                  <code value="108252007"/>
                  <display value="Laboratory procedure"/>
               </coding>
            </code>
            <subject>
               <reference value="urn:uuid:81c2cc79-df0b-43c6-b8d9-886800cd2f15"/>
               <display value="Jele Jurković"/>
            </subject>
            <requester>
               <reference value="urn:uuid:d2f25706-60d9-49f3-8732-26da22101ad7"/>
            </requester>
            <reasonCode>
               <coding>
                  <system value="http://snomed.info/sct"/>
                  <code value="64859006"/>
                  <display value="Osteoporosis"/>
               </coding>
            </reasonCode>
            <reasonCode>
               <coding>
                  <system value="http://snomed.info/sct"/>
                  <code value="6525002"/>
                  <display value="Dependent drug abuse"/>
               </coding>
            </reasonCode>
            <reasonCode>
               <coding>
                  <system value="http://snomed.info/sct"/>
                  <code value="15777000"/>
                  <display value="Prediabetes"/>
               </coding>
            </reasonCode>
            <specimen>
               <reference value="urn:uuid:5cd5ee5d-9bfe-499d-9b45-c1780ab96059"/>
            </specimen>
         </ServiceRequest>
      </resource>
   </entry>
   <entry>
      <fullUrl value="urn:uuid:d2f25706-60d9-49f3-8732-26da22101ad7"/>
      <resource>
         <PractitionerRole>
            <id value="d2f25706-60d9-49f3-8732-26da22101ad7"/>
            <meta>
               <profile value="http://hl7.eu/fhir/base/StructureDefinition/practitionerRole-eu"/>
            </meta>
            <text>
               <status value="generated"/>
               <div xmlns="http://www.w3.org/1999/xhtml">Provider Role Id: d2f25706-60d9-49f3-8732-26da22101ad7</div>
            </text>
            <organization>
               <reference value="urn:uuid:03d2b566-d31a-4755-98b6-63a58e42c44b"/>
            </organization>
         </PractitionerRole>
      </resource>
   </entry>
   <entry>
      <fullUrl value="urn:uuid:03d2b566-d31a-4755-98b6-63a58e42c44b"/>
      <resource>
         <Organization>
            <id value="03d2b566-d31a-4755-98b6-63a58e42c44b"/>
            <meta>
               <profile value="http://hl7.eu/fhir/base/StructureDefinition/organization-eu"/>
            </meta>
            <text>
               <status value="generated"/>
               <div xmlns="http://www.w3.org/1999/xhtml">Provider Organization: Opća županijska bolnica Požega</div>
            </text>
            <identifier>
               <system value="urn:oid:2.16.840.1.113883.2.51.999"/>
               <value value="fc88c58e-c91a-4a66-a076-d3126333b585"/>
               <assigner>
                  <display value="HL7 Europe"/>
               </assigner>
            </identifier>
            <name value="Opća županijska bolnica Požega"/>
            <address>
               <line value="Osječka ulica 107"/>
               <city value="Požega"/>
               <postalCode value="34000"/>
               <country value="Croatia"/>
            </address>
         </Organization>
      </resource>
   </entry>
   <entry>
      <fullUrl value="urn:uuid:5cd5ee5d-9bfe-499d-9b45-c1780ab96059"/>
      <resource>
         <Specimen>
            <id value="5cd5ee5d-9bfe-499d-9b45-c1780ab96059"/>
            <meta>
               <profile value="http://hl7.eu/fhir/laboratory/StructureDefinition/Specimen-eu-lab"/>
            </meta>
            <text>
               <status value="generated"/>
               <div xmlns="http://www.w3.org/1999/xhtml">
                  <table class="hl7__eu__lab__report">
                     <tr>
                        <th>Specimen</th>
                        <th>Collection Date</th>
                     </tr>
                     <tr>
                        <td>Whole blood specimen (specimen)</td>
                        <td>
                           <span class="nb">12-Jul-2023</span>
                        </td>
                     </tr>
                  </table>
               </div>
            </text>
            <type>
               <coding>
                  <system value="http://snomed.info/sct"/>
                  <code value="258580003"/>
                  <display value="Whole blood specimen (specimen)"/>
               </coding>
            </type>
            <collection>
               <collectedDateTime value="2023-07-12"/>
            </collection>
         </Specimen>
      </resource>
   </entry>
   <entry>
      <fullUrl value="urn:uuid:0f34345a-ac2b-406f-a559-32677c05947b"/>
      <resource>
         <Observation>
            <id value="0f34345a-ac2b-406f-a559-32677c05947b"/>
            <meta>
               <profile value="http://hl7.eu/fhir/laboratory/StructureDefinition/Observation-resultslab-eu-lab"/>
            </meta>
            <text>
               <status value="generated"/>
               <div xmlns="http://www.w3.org/1999/xhtml">
                  <table class="hl7__eu__lab__report">
                     <tr>
                        <th>Test</th>
                        <th>12-Jul-2023</th>
                        <th>Reference Range</th>
                        <th>Unit</th>
                     </tr>
                     <tr>
                        <td>Hemoglobin A1c/Hemoglobin.total in Blood</td>
                        <td>6.1</td>
                        <td>4 - 6</td>
                        <td>H</td>
                        <td>%</td>
                     </tr>
                  </table>
               </div>
            </text>
            <status value="final"/>
            <category>
               <coding>
                  <system value="http://terminology.hl7.org/CodeSystem/observation-category"/>
                  <code value="laboratory"/>
               </coding>
            </category>
            <code>
               <coding>
                  <system value="http://loinc.org"/>
                  <code value="4548-4"/>
                  <display value="Hemoglobin A1c/Hemoglobin.total in Blood"/>
               </coding>
               <text value="Hemoglobin A1c/Hemoglobin.total in Blood"/>
            </code>
            <subject>
               <reference value="urn:uuid:81c2cc79-df0b-43c6-b8d9-886800cd2f15"/>
               <display value="Jele Jurković"/>
            </subject>
            <effectiveDateTime value="2023-07-12T18:07:38Z"/>
            <performer>
               <display value="The Central European Lab"/>
            </performer>
            <valueQuantity>
               <value value="6.1"/>
               <unit value="%"/>
               <system value="http://unitsofmeasure.org"/>
               <code value="%"/>
            </valueQuantity>
            <interpretation>
               <coding>
                  <system value="http://terminology.hl7.org/CodeSystem/v3-ObservationInterpretation"/>
                  <code value="H"/>
                  <display value="High"/>
               </coding>
            </interpretation>
            <specimen>
               <reference value="urn:uuid:5cd5ee5d-9bfe-499d-9b45-c1780ab96059"/>
            </specimen>
            <referenceRange>
               <low>
                  <value value="4"/>
                  <system value="http://unitsofmeasure.org"/>
                  <code value="%"/>
               </low>
            </referenceRange>
            <referenceRange>
               <high>
                  <value value="6"/>
                  <system value="http://unitsofmeasure.org"/>
                  <code value="%"/>
               </high>
            </referenceRange>
         </Observation>
      </resource>
   </entry>
   <entry>
      <fullUrl value="urn:uuid:64f4bc4c-0386-4fbc-addb-e0582bf8ad59"/>
      <resource>
         <Device>
            <id value="64f4bc4c-0386-4fbc-addb-e0582bf8ad59"/>
            <text>
               <status value="generated"/>
               <div xmlns="http://www.w3.org/1999/xhtml">SYNDERAI Synthetic Generator v5.0</div>
            </text>
            <status value="active&#34;"/>
            <distinctIdentifier value="synderai-generator-50"/>
            <manufacturer value="SYNDERAI Project"/>
            <deviceName>
               <name value="SYNDERAI Synthetic Generator"/>
               <type value="manufacturer-name"/>
            </deviceName>
            <version>
               <value value="5.0"/>
            </version>
         </Device>
      </resource>
   </entry>
   <entry>
      <fullUrl value="urn:uuid:8871a2d4-19da-47b2-8cc6-a573b5f010de"/>
      <resource>
         <Provenance>
            <id value="8871a2d4-19da-47b2-8cc6-a573b5f010de"/>
            <text>
               <status value="generated"/>
               <div xmlns="http://www.w3.org/1999/xhtml">Provenance for SYNDERAI Synthetic Example Data Resource</div>
            </text>
            <target>
               <reference value="Patient/81c2cc79-df0b-43c6-b8d9-886800cd2f15"/>
            </target>
            <target>
               <reference value="Bundle/ee0db846-e35b-49d4-bd79-76d427c900b6"/>
            </target>
            <target>
               <reference value="Composition/5e9bebeb-0a58-4401-9743-a0b3a70a3328"/>
            </target>
            <target>
               <reference value="PractitionerRole/9fc5d3cc-bd48-41bb-a9e9-5a6a84b69751"/>
            </target>
            <target>
               <reference value="Practitioner/6f52bfb3-92f9-4848-a208-92dbb2f8791b"/>
            </target>
            <target>
               <reference value="PractitionerRole/d2f25706-60d9-49f3-8732-26da22101ad7"/>
            </target>
            <target>
               <reference value="Organization/03d2b566-d31a-4755-98b6-63a58e42c44b"/>
            </target>
            <recorded value="2023-07-12T20:07:38Z"/>
            <policy value="https://synderai.net/synderai-synthetic-data-policy"/>
            <reason>
               <text value="Interoperability Testing and Training (non-clinical use)"/>
            </reason>
            <activity>
               <text value="Synthetic Example Data Generation"/>
            </activity>
            <agent>
               <type>
                  <text value="author"/>
               </type>
               <who>
                  <reference value="Device/64f4bc4c-0386-4fbc-addb-e0582bf8ad59"/>
               </who>
            </agent>
         </Provenance>
      </resource>
   </entry>
   <entry>
      <fullUrl value="urn:uuid:9fc5d3cc-bd48-41bb-a9e9-5a6a84b69751"/>
      <resource>
         <PractitionerRole>
            <id value="9fc5d3cc-bd48-41bb-a9e9-5a6a84b69751"/>
            <meta>
               <profile value="http://hl7.eu/fhir/base/StructureDefinition/practitionerRole-eu"/>
            </meta>
            <text>
               <status value="generated"/>
               <div xmlns="http://www.w3.org/1999/xhtml">Laboratory Role Id: 9fc5d3cc-bd48-41bb-a9e9-5a6a84b69751</div>
            </text>
            <practitioner>
               <reference value="urn:uuid:6f52bfb3-92f9-4848-a208-92dbb2f8791b"/>
            </practitioner>
         </PractitionerRole>
      </resource>
   </entry>
   <entry>
      <fullUrl value="urn:uuid:6f52bfb3-92f9-4848-a208-92dbb2f8791b"/>
      <resource>
         <Practitioner>
            <id value="6f52bfb3-92f9-4848-a208-92dbb2f8791b"/>
            <meta>
               <profile value="http://hl7.eu/fhir/base/StructureDefinition/practitioner-eu"/>
            </meta>
            <text>
               <status value="generated"/>
               <div xmlns="http://www.w3.org/1999/xhtml">Laboratory: Laboratoire Central Européenne, 1000 Brussels, Belgium</div>
            </text>
            <identifier>
               <system value="urn:oid:2.16.840.1.113883.2.51.999"/>
               <value value="e4b8b109-1e31-46da-9a9b-87b53cd5928b"/>
               <assigner>
                  <display value="HL7 Europe"/>
               </assigner>
            </identifier>
            <name>
               <family value="Ample"/>
               <given value="Ex"/>
               <prefix value="dr"/>
            </name>
            <address>
               <line value="Laboratoire Central Européenne"/>
               <line value="Boulevard du Jardin Botanique 32"/>
               <city value="Brussels"/>
               <postalCode value="1000"/>
               <country value="Belgium"/>
            </address>
         </Practitioner>
      </resource>
   </entry>
</Bundle>