{
  "resourceType": "Bundle",
  "id": "0d376e93-e4e6-49bf-94db-25048b701a5a",
  "meta": {
    "profile": [
      "http://hl7.eu/fhir/laboratory/StructureDefinition/Bundle-eu-lab"
    ]
  },
  "identifier": {
    "assigner": {
      "display": "HL7 Europe"
    },
    "system": "urn:oid:2.16.840.1.113883.2.51.999",
    "value": "552ca6d6-3039-41d3-add1-58297faf90af"
  },
  "entry": [
    {
      "fullUrl": "urn:uuid:cd9dcfe0-399b-4410-8240-3f72b261d1d9",
      "resource": {
        "resourceType": "Composition",
        "id": "cd9dcfe0-399b-4410-8240-3f72b261d1d9",
        "meta": {
          "profile": [
            "http://hl7.eu/fhir/laboratory/StructureDefinition/Composition-eu-lab"
          ]
        },
        "identifier": {
          "assigner": {
            "display": "HL7 Europe"
          },
          "system": "urn:oid:2.16.840.1.113883.2.51.999",
          "value": "cc08507c-bc9e-4e54-abf8-046956158201"
        },
        "author": [
          {
            "reference": "urn:uuid:c6b71fd4-e423-4134-95ee-5d8778cff6a2"
          }
        ],
        "category": [
          {
            "coding": [
              {
                "code": "26436-6",
                "system": "http://loinc.org",
                "display": "Laboratory studies (set)"
              }
            ]
          }
        ],
        "type": {
          "coding": [
            {
              "code": "11502-2",
              "system": "http://loinc.org",
              "display": "Laboratory report"
            }
          ],
          "text": "Laboratory Report"
        },
        "section": [
          {
            "code": {
              "coding": [
                {
                  "code": "26436-6",
                  "system": "http://loinc.org",
                  "display": "Laboratory studies (set)"
                }
              ],
              "text": "Laboratory studies"
            },
            "section": [
              {
                "code": {
                  "coding": [
                    {
                      "code": "$18719-5",
                      "system": "http://loinc.org",
                      "display": "Chemistry studies (set)"
                    }
                  ],
                  "text": "Chemistry"
                },
                "entry": [
                  {
                    "reference": "urn:uuid:5fce90bc-65e4-4846-9ee5-30f82d55e48e"
                  },
                  {
                    "reference": "urn:uuid:8670403c-c470-4aa5-b3bd-0da3d1b02fbe"
                  },
                  {
                    "reference": "urn:uuid:f7c7685f-5e6d-4ad2-a836-04f85b1389cf"
                  },
                  {
                    "reference": "urn:uuid:cd84ca12-afc1-4d26-aaed-a0923c42644d"
                  },
                  {
                    "reference": "urn:uuid:2fd09a7c-b1bf-454b-9408-f8312f74087d"
                  },
                  {
                    "reference": "urn:uuid:3a6e197e-6d94-418c-bf91-ee077184d184"
                  },
                  {
                    "reference": "urn:uuid:49959003-9e6d-4289-9eda-fd5e2c841b56"
                  },
                  {
                    "reference": "urn:uuid:1ca8d9ac-3ce4-4945-b623-f4049df157cd"
                  },
                  {
                    "reference": "urn:uuid:f660c6a1-37ea-4396-853f-b7cce58973f8"
                  },
                  {
                    "reference": "urn:uuid:1f7047b6-2d88-475f-87b3-6a07980d5d39"
                  },
                  {
                    "reference": "urn:uuid:2b4a8192-a440-47c4-94c8-0db884bed664"
                  },
                  {
                    "reference": "urn:uuid:3c3c96e9-50b3-4b32-9582-0b22e8822c86"
                  },
                  {
                    "reference": "urn:uuid:e22bce7e-5f49-47aa-b890-51bf65216005"
                  },
                  {
                    "reference": "urn:uuid:88e919cb-d945-4a00-b329-670624041811"
                  },
                  {
                    "reference": "urn:uuid:88cbd56a-ec9e-4d01-87e1-91ce760c555e"
                  },
                  {
                    "reference": "urn:uuid:90d6955c-d1e0-4d21-be5e-02345c6a55dc"
                  },
                  {
                    "reference": "urn:uuid:766aecdf-bee0-4f42-b815-a091b3f46704"
                  },
                  {
                    "reference": "urn:uuid:9faed0cf-6698-4b8b-b8e3-1e3eaa1664a3"
                  }
                ],
                "text": {
                  "status": "generated",
                  "div": "<div xmlns=\"http://www.w3.org/1999/xhtml\"><h3>Chemistry</h3><table class=\"hl7__eu__lab__report\"><thead><tr><th>Test</th><th>15-OCT-2023</th><th>Reference&#xA0;Range</th><th>Unit</th></tr></thead><tbody><tr><td>Glucose [Mass/volume] in Serum or Plasma</td><td>75.0</td><td>70 - 99</td><td>mg/dL</td></tr><tr><td>Urea nitrogen [Mass/volume] in Serum or Plasma</td><td>17.6</td><td>7 - 20</td><td>mg/dL</td></tr><tr><td>Creatinine [Mass/volume] in Serum or Plasma</td><td><strong>2.1 H</strong></td><td>0.6 - 1.3</td><td>mg/dL</td></tr><tr><td>Calcium [Mass/volume] in Serum or Plasma</td><td>9.8</td><td>8.6 - 10.4</td><td>mg/dL</td></tr><tr><td>Sodium [Moles/volume] in Serum or Plasma</td><td>139.4</td><td>135 - 145</td><td>mmol/L</td></tr><tr><td>Potassium [Moles/volume] in Serum or Plasma</td><td>4.8</td><td>3.5 - 5</td><td>mmol/L</td></tr><tr><td>Chloride [Moles/volume] in Serum or Plasma</td><td>104.4</td><td>98 - 106</td><td>mmol/L</td></tr><tr><td>Carbon dioxide, total [Moles/volume] in Serum or Plasma</td><td>27.5</td><td>22 - 29</td><td>mmol/L</td></tr><tr><td>Ketones [Presence] in Urine by Test strip</td><td>Urine ketone test = +</td><td></td><td></td></tr><tr><td>Hemoglobin A1c/Hemoglobin.total in Blood</td><td><strong>3.0 L</strong></td><td>4 - 6</td><td>%</td></tr><tr><td>Glucose [Mass/volume] in Blood</td><td>75.0</td><td>70 - 140</td><td>mg/dL</td></tr><tr><td>Urea nitrogen [Mass/volume] in Blood</td><td>17.6</td><td>7 - 25</td><td>mg/dL</td></tr><tr><td>Creatinine [Mass/volume] in Blood</td><td><strong>1.3 H</strong></td><td>0.6 - 1.1</td><td>mg/dL</td></tr><tr><td>Calcium [Mass/volume] in Blood</td><td>9.8</td><td>8.6 - 10.4</td><td>mg/dL</td></tr><tr><td>Sodium [Moles/volume] in Blood</td><td>139.4</td><td>135 - 145</td><td>mmol/L</td></tr><tr><td>Potassium [Moles/volume] in Blood</td><td>4.8</td><td>3.5 - 5.1</td><td>mmol/L</td></tr><tr><td>Chloride [Moles/volume] in Blood</td><td>104.4</td><td>98 - 110</td><td>mmol/L</td></tr><tr><td>Carbon dioxide, total [Moles/volume] in Blood</td><td>27.5</td><td>22 - 29</td><td>mmol/L</td></tr></tbody></table></div>"
                },
                "title": "Chemistry"
              },
              {
                "code": {
                  "coding": [
                    {
                      "code": "$18729-4",
                      "system": "http://loinc.org",
                      "display": "Urinalysis studies (set)"
                    }
                  ],
                  "text": "Urinalysis"
                },
                "entry": [
                  {
                    "reference": "urn:uuid:3ff9a3e9-c2a9-48d9-90fd-d0e8df8aae3c"
                  },
                  {
                    "reference": "urn:uuid:6da9b26d-b56a-4946-b0a7-09d76af73205"
                  },
                  {
                    "reference": "urn:uuid:ddaa8811-087e-474b-a3b1-b537735b65d5"
                  },
                  {
                    "reference": "urn:uuid:7ffea594-fa7f-4089-8aa6-cb9dfb5ac0c0"
                  },
                  {
                    "reference": "urn:uuid:a34de3ff-238b-49e2-aa3d-9b5071b53d16"
                  },
                  {
                    "reference": "urn:uuid:c2086a6c-52e8-42eb-9203-5f0856be82fe"
                  },
                  {
                    "reference": "urn:uuid:ac537cc9-20f6-45f9-80a2-b1b6f5da1226"
                  },
                  {
                    "reference": "urn:uuid:f7c1fd11-f2d0-4447-8ad8-5224fc7e3401"
                  },
                  {
                    "reference": "urn:uuid:316d9cc1-24ea-403c-bb2b-a838af36350b"
                  },
                  {
                    "reference": "urn:uuid:6376ee45-4f96-4da9-b5a5-d8ee05901f88"
                  },
                  {
                    "reference": "urn:uuid:871c4394-2f1b-41ae-afd5-e3812f31aeb3"
                  },
                  {
                    "reference": "urn:uuid:34e6d0a5-1f06-4e52-a447-f8211585a769"
                  }
                ],
                "text": {
                  "status": "generated",
                  "div": "<div xmlns=\"http://www.w3.org/1999/xhtml\"><h3>Urinalysis</h3><table class=\"hl7__eu__lab__report\"><thead><tr><th>Test</th><th>15-OCT-2023</th><th>Reference&#xA0;Range</th><th>Unit</th></tr></thead><tbody><tr><td>Glucose [Mass/volume] in Urine by Test strip</td><td>0.6</td><td>0 - 0.8</td><td>mg/dL</td></tr><tr><td>Glucose [Presence] in Urine by Test strip</td><td>++</td><td></td><td></td></tr><tr><td>Bilirubin.total [Mass/volume] in Urine by Test strip</td><td><strong>1.2 H</strong></td><td>0 - 1</td><td>mg/dL</td></tr><tr><td>Bilirubin.total [Presence] in Urine by Test strip</td><td>Finding of bilirubin in urine</td><td></td><td></td></tr><tr><td>Ketones [Mass/volume] in Urine by Test strip</td><td><strong>8.8 H</strong></td><td>0 - 4</td><td>mg/dL</td></tr><tr><td>Specific gravity of Urine by Test strip</td><td><strong>1.0 L</strong></td><td>1.005 - 1.03</td><td>{nominal}</td></tr><tr><td>pH of Urine by Test strip</td><td>6.8</td><td>4.5 - 7</td><td>pH</td></tr><tr><td>Protein [Mass/volume] in Urine by Test strip</td><td><strong>293.8 H</strong></td><td>0 - 145</td><td>mg/dL</td></tr><tr><td>Protein [Presence] in Urine by Test strip</td><td>Urine protein test = ++</td><td></td><td></td></tr><tr><td>Nitrite [Presence] in Urine by Test strip</td><td>Urine nitrite negative</td><td></td><td></td></tr><tr><td>Hemoglobin [Presence] in Urine by Test strip</td><td>Urine blood test = negative</td><td></td><td></td></tr><tr><td>Leukocyte esterase [Presence] in Urine by Test strip</td><td>Urine leukocyte test negative</td><td></td><td></td></tr></tbody></table></div>"
                },
                "title": "Urinalysis"
              },
              {
                "code": {
                  "coding": [
                    {
                      "code": "$LP7846-1",
                      "system": "http://loinc.org",
                      "display": "Specimen information"
                    }
                  ],
                  "text": "Specimen information"
                },
                "entry": [
                  {
                    "reference": "urn:uuid:bb6e0bb8-bd34-4555-9499-0d08566bc56b"
                  },
                  {
                    "reference": "urn:uuid:b476e3d5-d6a9-41c3-9bd7-ef3a007de13a"
                  },
                  {
                    "reference": "urn:uuid:e09c9cf2-b98b-49b5-9c17-423ab0a788a6"
                  },
                  {
                    "reference": "urn:uuid:682c254f-1430-46e4-8693-a7e2dc83a4ea"
                  }
                ],
                "text": {
                  "status": "generated",
                  "div": "<div xmlns=\"http://www.w3.org/1999/xhtml\"><h3>Specimen information</h3><table class=\"hl7__eu__lab__report\"><thead><tr><th>Test</th><th>15-OCT-2023</th><th>Specimen</th><th></th></tr></thead><tbody><tr><td>Appearance of Urine</td><td>Cloudy urine</td><td>Urine</td><td></td></tr><tr><td>Odor of Urine</td><td>Urine smell ammoniacal</td><td>Urine</td><td></td></tr><tr><td>Clarity of Urine</td><td>Translucent</td><td>Urine</td><td></td></tr><tr><td>Color of Urine</td><td>Brown color</td><td>Urine</td><td></td></tr></tbody></table></div>"
                },
                "title": "Specimen information"
              }
            ],
            "title": "Laboratory Report"
          },
          {
            "text": {
              "status": "generated",
              "div": "<div xmlns=\"http://www.w3.org/1999/xhtml\"><h3>Annotation</h3><table class=\"hl7__eu__lab__report\"><tr><th>Conclusion and Recommendations based on this report and previous findings known to us</th></tr><tr><td>The patient shows elevated creatinine, proteinuria, ketonuria, bilirubinuria, and low urine specific gravity, suggesting impaired renal function with possible nephrotic features. Urine is cloudy, brown, and ammoniacal, but no evidence of infection. Blood glucose and HbA1c are low-normal, making diabetes unlikely. Recommend further nephrological evaluation for possible chronic kidney disease and assessment for underlying causes of proteinuria and renal impairment.</td></tr></table></div>"
            },
            "code": {
              "coding": [
                {
                  "system": "http://loinc.org",
                  "code": "48767-8",
                  "display": "Annotation comment"
                }
              ]
            },
            "title": "Annotation comment"
          }
        ],
        "status": "final",
        "subject": {
          "reference": "urn:uuid:6d988540-756a-4bc3-802f-139c7333d63d",
          "display": "Iva Kratochvílová"
        },
        "date": "2023-10-15T18:10:29Z",
        "title": "Laboratory Report",
        "confidentiality": "N"
      }
    },
    {
      "fullUrl": "urn:uuid:38579edf-ab89-48cd-a699-f4cbb58e2167",
      "resource": {
        "resourceType": "DiagnosticReport",
        "id": "38579edf-ab89-48cd-a699-f4cbb58e2167",
        "meta": {
          "profile": [
            "http://hl7.eu/fhir/laboratory/StructureDefinition/DiagnosticReport-eu-lab"
          ]
        },
        "identifier": [
          {
            "assigner": {
              "display": "HL7 Europe"
            },
            "system": "urn:oid:2.16.840.1.113883.2.51.999",
            "value": "a66b3495-22a7-4aeb-a7a5-359eafd7faa0"
          }
        ],
        "extension": [
          {
            "url": "http://hl7.org/fhir/5.0/StructureDefinition/extension-DiagnosticReport.composition",
            "valueReference": {
              "reference": "urn:uuid:cc08507c-bc9e-4e54-abf8-046956158201"
            }
          }
        ],
        "category": [
          {
            "coding": [
              {
                "code": "26436-6",
                "system": "http://loinc.org",
                "display": "Laboratory studies (set)"
              }
            ]
          }
        ],
        "specimen": [
          {
            "reference": "urn:uuid:f22ddf8f-80a2-4b60-a5c7-c939c97bb921"
          },
          {
            "reference": "urn:uuid:060904f7-87b8-4750-8dd9-49bea3f2de90"
          },
          {
            "reference": "urn:uuid:b1e5fd57-0670-4a7f-8dde-259492c86731"
          }
        ],
        "result": [
          {
            "reference": "urn:uuid:5fce90bc-65e4-4846-9ee5-30f82d55e48e"
          },
          {
            "reference": "urn:uuid:8670403c-c470-4aa5-b3bd-0da3d1b02fbe"
          },
          {
            "reference": "urn:uuid:f7c7685f-5e6d-4ad2-a836-04f85b1389cf"
          },
          {
            "reference": "urn:uuid:cd84ca12-afc1-4d26-aaed-a0923c42644d"
          },
          {
            "reference": "urn:uuid:2fd09a7c-b1bf-454b-9408-f8312f74087d"
          },
          {
            "reference": "urn:uuid:3a6e197e-6d94-418c-bf91-ee077184d184"
          },
          {
            "reference": "urn:uuid:49959003-9e6d-4289-9eda-fd5e2c841b56"
          },
          {
            "reference": "urn:uuid:1ca8d9ac-3ce4-4945-b623-f4049df157cd"
          },
          {
            "reference": "urn:uuid:bb6e0bb8-bd34-4555-9499-0d08566bc56b"
          },
          {
            "reference": "urn:uuid:b476e3d5-d6a9-41c3-9bd7-ef3a007de13a"
          },
          {
            "reference": "urn:uuid:e09c9cf2-b98b-49b5-9c17-423ab0a788a6"
          },
          {
            "reference": "urn:uuid:682c254f-1430-46e4-8693-a7e2dc83a4ea"
          },
          {
            "reference": "urn:uuid:3ff9a3e9-c2a9-48d9-90fd-d0e8df8aae3c"
          },
          {
            "reference": "urn:uuid:6da9b26d-b56a-4946-b0a7-09d76af73205"
          },
          {
            "reference": "urn:uuid:ddaa8811-087e-474b-a3b1-b537735b65d5"
          },
          {
            "reference": "urn:uuid:7ffea594-fa7f-4089-8aa6-cb9dfb5ac0c0"
          },
          {
            "reference": "urn:uuid:a34de3ff-238b-49e2-aa3d-9b5071b53d16"
          },
          {
            "reference": "urn:uuid:f660c6a1-37ea-4396-853f-b7cce58973f8"
          },
          {
            "reference": "urn:uuid:c2086a6c-52e8-42eb-9203-5f0856be82fe"
          },
          {
            "reference": "urn:uuid:ac537cc9-20f6-45f9-80a2-b1b6f5da1226"
          },
          {
            "reference": "urn:uuid:f7c1fd11-f2d0-4447-8ad8-5224fc7e3401"
          },
          {
            "reference": "urn:uuid:316d9cc1-24ea-403c-bb2b-a838af36350b"
          },
          {
            "reference": "urn:uuid:6376ee45-4f96-4da9-b5a5-d8ee05901f88"
          },
          {
            "reference": "urn:uuid:871c4394-2f1b-41ae-afd5-e3812f31aeb3"
          },
          {
            "reference": "urn:uuid:34e6d0a5-1f06-4e52-a447-f8211585a769"
          },
          {
            "reference": "urn:uuid:1f7047b6-2d88-475f-87b3-6a07980d5d39"
          },
          {
            "reference": "urn:uuid:2b4a8192-a440-47c4-94c8-0db884bed664"
          },
          {
            "reference": "urn:uuid:3c3c96e9-50b3-4b32-9582-0b22e8822c86"
          },
          {
            "reference": "urn:uuid:e22bce7e-5f49-47aa-b890-51bf65216005"
          },
          {
            "reference": "urn:uuid:88e919cb-d945-4a00-b329-670624041811"
          },
          {
            "reference": "urn:uuid:88cbd56a-ec9e-4d01-87e1-91ce760c555e"
          },
          {
            "reference": "urn:uuid:90d6955c-d1e0-4d21-be5e-02345c6a55dc"
          },
          {
            "reference": "urn:uuid:766aecdf-bee0-4f42-b815-a091b3f46704"
          },
          {
            "reference": "urn:uuid:9faed0cf-6698-4b8b-b8e3-1e3eaa1664a3"
          }
        ],
        "status": "registered",
        "code": {
          "coding": [
            {
              "code": "11502-2",
              "system": "http://loinc.org",
              "display": "Laboratory report"
            }
          ]
        },
        "subject": {
          "reference": "urn:uuid:6d988540-756a-4bc3-802f-139c7333d63d",
          "display": "Iva Kratochvílová"
        }
      }
    },
    {
      "fullUrl": "urn:uuid:6d988540-756a-4bc3-802f-139c7333d63d",
      "resource": {
        "resourceType": "Patient",
        "id": "6d988540-756a-4bc3-802f-139c7333d63d",
        "meta": {
          "security": [
            {
              "system": "http://terminology.hl7.org/CodeSystem/v3-ActReason",
              "code": "HTEST"
            },
            {
              "system": "http://terminology.hl7.org/CodeSystem/v3-ActReason",
              "code": "TRAIN"
            }
          ],
          "tag": [
            {
              "system": "https://synderai.net/fhir/CodeSystem/tags",
              "code": "synthetic",
              "display": "SYNDERAI Synthetic data"
            }
          ],
          "profile": [
            "http://hl7.eu/fhir/base/StructureDefinition/patient-eu-core"
          ]
        },
        "identifier": [
          {
            "type": {
              "coding": [
                {
                  "code": "PT",
                  "system": "http://terminology.hl7.org/CodeSystem/v2-0203"
                }
              ]
            },
            "system": "http://ec.europa.eu/identifier/eci",
            "value": "4380-389488-0"
          },
          {
            "type": {
              "coding": [
                {
                  "code": "MR",
                  "system": "http://terminology.hl7.org/CodeSystem/v2-0203"
                }
              ]
            },
            "system": "http://local.setting.eu/identifier",
            "value": "f8f9ebdc-03dd-2fc0-819c-affa4ffd7f67"
          }
        ],
        "name": [
          {
            "family": "Kratochvílová"
          },
          {
            "given": [
              "Iva"
            ]
          },
          {
            "text": "Iva Kratochvílová"
          }
        ],
        "address": [
          {
            "line": [
              "Žofie Podlipské 4"
            ],
            "use": "home",
            "type": "physical",
            "postalCode": "27324",
            "city": "Postoloprty",
            "country": "Czechia"
          }
        ],
        "telecom": [
          {
            "system": "phone",
            "value": "00420 607 985 072"
          }
        ],
        "extension": [
          {
            "url": "http://hl7.org/fhir/StructureDefinition/patient-nationality",
            "valueCodeableConcept": {
              "coding": [
                {
                  "code": "CZ",
                  "system": "http://hl7.org/fhir/ValueSet/country"
                }
              ]
            }
          }
        ],
        "text": {
          "status": "generated",
          "div": "<div xmlns=\"http://www.w3.org/1999/xhtml\"><table class=\"hl7__ips\"><tr><td>Iva Kratochvílová</td><td>female</td><td>17-Sep-1964</td></tr></table></div>"
        },
        "gender": "female",
        "birthDate": "1964-09-17"
      }
    },
    {
      "fullUrl": "urn:uuid:35bf1e1e-93cf-4350-81f9-b31f1caa191b",
      "resource": {
        "resourceType": "ServiceRequest",
        "id": "35bf1e1e-93cf-4350-81f9-b31f1caa191b",
        "meta": {
          "profile": [
            "http://hl7.eu/fhir/laboratory/StructureDefinition/ServiceRequest-eu-lab"
          ]
        },
        "identifier": [
          {
            "system": "http://example.org",
            "value": "36c382f9-7bcf-49d9-8743-d2a6e70e95ba"
          }
        ],
        "specimen": [
          {
            "reference": "urn:uuid:f22ddf8f-80a2-4b60-a5c7-c939c97bb921"
          },
          {
            "reference": "urn:uuid:060904f7-87b8-4750-8dd9-49bea3f2de90"
          },
          {
            "reference": "urn:uuid:b1e5fd57-0670-4a7f-8dde-259492c86731"
          }
        ],
        "reasonCode": [
          {
            "coding": [
              {
                "code": "431856006",
                "system": "http://snomed.info/sct",
                "display": "Chronic kidney disease stage 2"
              }
            ]
          },
          {
            "coding": [
              {
                "code": "431855005",
                "system": "http://snomed.info/sct",
                "display": "Chronic kidney disease stage 1"
              }
            ]
          },
          {
            "coding": [
              {
                "code": "237602007",
                "system": "http://snomed.info/sct",
                "display": "Metabolic syndrome X"
              }
            ]
          },
          {
            "coding": [
              {
                "code": "91302008",
                "system": "http://snomed.info/sct",
                "display": "Sepsis"
              }
            ]
          },
          {
            "coding": [
              {
                "code": "271737000",
                "system": "http://snomed.info/sct",
                "display": "Anemia"
              }
            ]
          },
          {
            "coding": [
              {
                "code": "15777000",
                "system": "http://snomed.info/sct",
                "display": "Prediabetes"
              }
            ]
          },
          {
            "coding": [
              {
                "code": "157141000119108",
                "system": "http://snomed.info/sct",
                "display": "Proteinuria due to type 2 diabetes mellitus"
              }
            ]
          },
          {
            "coding": [
              {
                "code": "90781000119102",
                "system": "http://snomed.info/sct",
                "display": "Microalbuminuria due to type 2 diabetes mellitus"
              }
            ]
          },
          {
            "coding": [
              {
                "code": "239872002",
                "system": "http://snomed.info/sct",
                "display": "Osteoarthritis of hip"
              }
            ]
          },
          {
            "coding": [
              {
                "code": "40055000",
                "system": "http://snomed.info/sct",
                "display": "Chronic sinusitis"
              }
            ]
          },
          {
            "coding": [
              {
                "code": "127013003",
                "system": "http://snomed.info/sct",
                "display": "Disorder of kidney due to diabetes mellitus"
              }
            ]
          },
          {
            "coding": [
              {
                "code": "59621000",
                "system": "http://snomed.info/sct",
                "display": "Essential hypertension"
              }
            ]
          }
        ],
        "status": "active",
        "intent": "order",
        "code": {
          "coding": [
            {
              "code": "108252007",
              "system": "http://snomed.info/sct",
              "display": "Laboratory procedure"
            }
          ]
        },
        "subject": {
          "reference": "urn:uuid:6d988540-756a-4bc3-802f-139c7333d63d",
          "display": "Iva Kratochvílová"
        },
        "requester": {
          "reference": "urn:uuid:b63ee2e8-c230-4e13-a478-1fcb5756706c"
        }
      }
    },
    {
      "fullUrl": "urn:uuid:b63ee2e8-c230-4e13-a478-1fcb5756706c",
      "resource": {
        "resourceType": "PractitionerRole",
        "id": "b63ee2e8-c230-4e13-a478-1fcb5756706c",
        "meta": {
          "profile": [
            "http://hl7.eu/fhir/base/StructureDefinition/practitionerRole-eu"
          ]
        },
        "text": {
          "status": "generated",
          "div": "<div xmlns=\"http://www.w3.org/1999/xhtml\">Provider Role Id: b63ee2e8-c230-4e13-a478-1fcb5756706c</div>"
        },
        "organization": {
          "reference": "urn:uuid:de06da33-9377-486f-957f-a7477a6d08b6"
        }
      }
    },
    {
      "fullUrl": "urn:uuid:de06da33-9377-486f-957f-a7477a6d08b6",
      "resource": {
        "resourceType": "Organization",
        "id": "de06da33-9377-486f-957f-a7477a6d08b6",
        "meta": {
          "profile": [
            "http://hl7.eu/fhir/base/StructureDefinition/organization-eu"
          ]
        },
        "identifier": [
          {
            "assigner": {
              "display": "HL7 Europe"
            },
            "system": "urn:oid:2.16.840.1.113883.2.51.999",
            "value": "41821efc-c44c-4af8-8f3c-e9426668d275"
          }
        ],
        "address": [
          {
            "city": "Kadaň",
            "postalCode": "432 01",
            "country": "Czechia"
          }
        ],
        "text": {
          "status": "generated",
          "div": "<div xmlns=\"http://www.w3.org/1999/xhtml\">Provider Organization: Nemocnice s poliklinikou Kadaň</div>"
        },
        "name": "Nemocnice s poliklinikou Kadaň"
      }
    },
    {
      "fullUrl": "urn:uuid:f22ddf8f-80a2-4b60-a5c7-c939c97bb921",
      "resource": {
        "resourceType": "Specimen",
        "id": "f22ddf8f-80a2-4b60-a5c7-c939c97bb921",
        "meta": {
          "profile": [
            "http://hl7.eu/fhir/laboratory/StructureDefinition/Specimen-eu-lab"
          ]
        },
        "collection": {
          "collectedDateTime": "2023-10-15"
        },
        "text": {
          "status": "generated",
          "div": "<div xmlns=\"http://www.w3.org/1999/xhtml\"><table class=\"hl7__eu__lab__report\"><tr><th>Specimen</th><th>Collection Date</th></tr><tr><td>Acellular blood (serum or plasma) specimen</td><td><span class=\"nb\">15-Oct-2023</span></td></tr></table></div>"
        },
        "type": {
          "coding": [
            {
              "code": "122592007",
              "system": "http://snomed.info/sct",
              "display": "Acellular blood (serum or plasma) specimen"
            }
          ]
        }
      }
    },
    {
      "fullUrl": "urn:uuid:060904f7-87b8-4750-8dd9-49bea3f2de90",
      "resource": {
        "resourceType": "Specimen",
        "id": "060904f7-87b8-4750-8dd9-49bea3f2de90",
        "meta": {
          "profile": [
            "http://hl7.eu/fhir/laboratory/StructureDefinition/Specimen-eu-lab"
          ]
        },
        "collection": {
          "collectedDateTime": "2023-10-15"
        },
        "text": {
          "status": "generated",
          "div": "<div xmlns=\"http://www.w3.org/1999/xhtml\"><table class=\"hl7__eu__lab__report\"><tr><th>Specimen</th><th>Collection Date</th></tr><tr><td>Urine specimen</td><td><span class=\"nb\">15-Oct-2023</span></td></tr></table></div>"
        },
        "type": {
          "coding": [
            {
              "code": "122575003",
              "system": "http://snomed.info/sct",
              "display": "Urine specimen"
            }
          ]
        }
      }
    },
    {
      "fullUrl": "urn:uuid:b1e5fd57-0670-4a7f-8dde-259492c86731",
      "resource": {
        "resourceType": "Specimen",
        "id": "b1e5fd57-0670-4a7f-8dde-259492c86731",
        "meta": {
          "profile": [
            "http://hl7.eu/fhir/laboratory/StructureDefinition/Specimen-eu-lab"
          ]
        },
        "collection": {
          "collectedDateTime": "2023-10-15"
        },
        "text": {
          "status": "generated",
          "div": "<div xmlns=\"http://www.w3.org/1999/xhtml\"><table class=\"hl7__eu__lab__report\"><tr><th>Specimen</th><th>Collection Date</th></tr><tr><td>Whole blood specimen (specimen)</td><td><span class=\"nb\">15-Oct-2023</span></td></tr></table></div>"
        },
        "type": {
          "coding": [
            {
              "code": "258580003",
              "system": "http://snomed.info/sct",
              "display": "Whole blood specimen (specimen)"
            }
          ]
        }
      }
    },
    {
      "fullUrl": "urn:uuid:5fce90bc-65e4-4846-9ee5-30f82d55e48e",
      "resource": {
        "resourceType": "Observation",
        "id": "5fce90bc-65e4-4846-9ee5-30f82d55e48e",
        "meta": {
          "profile": [
            "http://hl7.eu/fhir/laboratory/StructureDefinition/Observation-resultslab-eu-lab"
          ]
        },
        "performer": [
          {
            "display": "The Central European Lab"
          }
        ],
        "category": [
          {
            "coding": [
              {
                "system": "http://terminology.hl7.org/CodeSystem/observation-category",
                "code": "laboratory"
              }
            ]
          }
        ],
        "code": {
          "coding": [
            {
              "code": "2345-7",
              "system": "http://loinc.org",
              "display": "Glucose [Mass/volume] in Serum or Plasma"
            }
          ],
          "text": "Glucose [Mass/volume] in Serum or Plasma"
        },
        "valueQuantity": {
          "system": "http://unitsofmeasure.org",
          "value": 75,
          "unit": "mg/dL",
          "code": "mg/dL"
        },
        "referenceRange": [
          {
            "low": {
              "value": 70,
              "code": "mg/dL",
              "system": "http://unitsofmeasure.org"
            }
          },
          {
            "high": {
              "value": 99,
              "code": "mg/dL",
              "system": "http://unitsofmeasure.org"
            }
          }
        ],
        "text": {
          "status": "generated",
          "div": "<div xmlns=\"http://www.w3.org/1999/xhtml\"><table class=\"hl7__eu__lab__report\"><tr><th>Test</th><th>15-Oct-2023</th><th>Reference&#xA0;Range</th><th>Unit</th></tr><tr><td>Glucose [Mass/volume] in Serum or Plasma</td><td>75.0</td><td>70 - 99</td><td></td><td>mg/dL</td></tr></table></div>"
        },
        "status": "final",
        "subject": {
          "reference": "urn:uuid:6d988540-756a-4bc3-802f-139c7333d63d",
          "display": "Iva Kratochvílová"
        },
        "effectiveDateTime": "2023-10-15T16:10:29Z",
        "specimen": {
          "reference": "urn:uuid:f22ddf8f-80a2-4b60-a5c7-c939c97bb921"
        }
      }
    },
    {
      "fullUrl": "urn:uuid:8670403c-c470-4aa5-b3bd-0da3d1b02fbe",
      "resource": {
        "resourceType": "Observation",
        "id": "8670403c-c470-4aa5-b3bd-0da3d1b02fbe",
        "meta": {
          "profile": [
            "http://hl7.eu/fhir/laboratory/StructureDefinition/Observation-resultslab-eu-lab"
          ]
        },
        "performer": [
          {
            "display": "The Central European Lab"
          }
        ],
        "category": [
          {
            "coding": [
              {
                "system": "http://terminology.hl7.org/CodeSystem/observation-category",
                "code": "laboratory"
              }
            ]
          }
        ],
        "code": {
          "coding": [
            {
              "code": "3094-0",
              "system": "http://loinc.org",
              "display": "Urea nitrogen [Mass/volume] in Serum or Plasma"
            }
          ],
          "text": "Urea nitrogen [Mass/volume] in Serum or Plasma"
        },
        "valueQuantity": {
          "system": "http://unitsofmeasure.org",
          "value": 17.6,
          "unit": "mg/dL",
          "code": "mg/dL"
        },
        "referenceRange": [
          {
            "low": {
              "value": 7,
              "code": "mg/dL",
              "system": "http://unitsofmeasure.org"
            }
          },
          {
            "high": {
              "value": 20,
              "code": "mg/dL",
              "system": "http://unitsofmeasure.org"
            }
          }
        ],
        "text": {
          "status": "generated",
          "div": "<div xmlns=\"http://www.w3.org/1999/xhtml\"><table class=\"hl7__eu__lab__report\"><tr><th>Test</th><th>15-Oct-2023</th><th>Reference&#xA0;Range</th><th>Unit</th></tr><tr><td>Urea nitrogen [Mass/volume] in Serum or Plasma</td><td>17.6</td><td>7 - 20</td><td></td><td>mg/dL</td></tr></table></div>"
        },
        "status": "final",
        "subject": {
          "reference": "urn:uuid:6d988540-756a-4bc3-802f-139c7333d63d",
          "display": "Iva Kratochvílová"
        },
        "effectiveDateTime": "2023-10-15T16:10:29Z",
        "specimen": {
          "reference": "urn:uuid:f22ddf8f-80a2-4b60-a5c7-c939c97bb921"
        }
      }
    },
    {
      "fullUrl": "urn:uuid:f7c7685f-5e6d-4ad2-a836-04f85b1389cf",
      "resource": {
        "resourceType": "Observation",
        "id": "f7c7685f-5e6d-4ad2-a836-04f85b1389cf",
        "meta": {
          "profile": [
            "http://hl7.eu/fhir/laboratory/StructureDefinition/Observation-resultslab-eu-lab"
          ]
        },
        "performer": [
          {
            "display": "The Central European Lab"
          }
        ],
        "category": [
          {
            "coding": [
              {
                "system": "http://terminology.hl7.org/CodeSystem/observation-category",
                "code": "laboratory"
              }
            ]
          }
        ],
        "code": {
          "coding": [
            {
              "code": "2160-0",
              "system": "http://loinc.org",
              "display": "Creatinine [Mass/volume] in Serum or Plasma"
            }
          ],
          "text": "Creatinine [Mass/volume] in Serum or Plasma"
        },
        "valueQuantity": {
          "system": "http://unitsofmeasure.org",
          "value": 2.1,
          "unit": "mg/dL",
          "code": "mg/dL"
        },
        "referenceRange": [
          {
            "low": {
              "value": 0.6,
              "code": "mg/dL",
              "system": "http://unitsofmeasure.org"
            }
          },
          {
            "high": {
              "value": 1.3,
              "code": "mg/dL",
              "system": "http://unitsofmeasure.org"
            }
          }
        ],
        "interpretation": [
          {
            "coding": [
              {
                "code": "H",
                "system": "http://terminology.hl7.org/CodeSystem/v3-ObservationInterpretation",
                "display": "High"
              }
            ]
          }
        ],
        "text": {
          "status": "generated",
          "div": "<div xmlns=\"http://www.w3.org/1999/xhtml\"><table class=\"hl7__eu__lab__report\"><tr><th>Test</th><th>15-Oct-2023</th><th>Reference&#xA0;Range</th><th>Unit</th></tr><tr><td>Creatinine [Mass/volume] in Serum or Plasma</td><td>2.1</td><td>0.6 - 1.3</td><td>H</td><td>mg/dL</td></tr></table></div>"
        },
        "status": "final",
        "subject": {
          "reference": "urn:uuid:6d988540-756a-4bc3-802f-139c7333d63d",
          "display": "Iva Kratochvílová"
        },
        "effectiveDateTime": "2023-10-15T16:10:29Z",
        "specimen": {
          "reference": "urn:uuid:f22ddf8f-80a2-4b60-a5c7-c939c97bb921"
        }
      }
    },
    {
      "fullUrl": "urn:uuid:cd84ca12-afc1-4d26-aaed-a0923c42644d",
      "resource": {
        "resourceType": "Observation",
        "id": "cd84ca12-afc1-4d26-aaed-a0923c42644d",
        "meta": {
          "profile": [
            "http://hl7.eu/fhir/laboratory/StructureDefinition/Observation-resultslab-eu-lab"
          ]
        },
        "performer": [
          {
            "display": "The Central European Lab"
          }
        ],
        "category": [
          {
            "coding": [
              {
                "system": "http://terminology.hl7.org/CodeSystem/observation-category",
                "code": "laboratory"
              }
            ]
          }
        ],
        "code": {
          "coding": [
            {
              "code": "17861-6",
              "system": "http://loinc.org",
              "display": "Calcium [Mass/volume] in Serum or Plasma"
            }
          ],
          "text": "Calcium [Mass/volume] in Serum or Plasma"
        },
        "valueQuantity": {
          "system": "http://unitsofmeasure.org",
          "value": 9.8,
          "unit": "mg/dL",
          "code": "mg/dL"
        },
        "referenceRange": [
          {
            "low": {
              "value": 8.6,
              "code": "mg/dL",
              "system": "http://unitsofmeasure.org"
            }
          },
          {
            "high": {
              "value": 10.4,
              "code": "mg/dL",
              "system": "http://unitsofmeasure.org"
            }
          }
        ],
        "text": {
          "status": "generated",
          "div": "<div xmlns=\"http://www.w3.org/1999/xhtml\"><table class=\"hl7__eu__lab__report\"><tr><th>Test</th><th>15-Oct-2023</th><th>Reference&#xA0;Range</th><th>Unit</th></tr><tr><td>Calcium [Mass/volume] in Serum or Plasma</td><td>9.8</td><td>8.6 - 10.4</td><td></td><td>mg/dL</td></tr></table></div>"
        },
        "status": "final",
        "subject": {
          "reference": "urn:uuid:6d988540-756a-4bc3-802f-139c7333d63d",
          "display": "Iva Kratochvílová"
        },
        "effectiveDateTime": "2023-10-15T16:10:29Z",
        "specimen": {
          "reference": "urn:uuid:f22ddf8f-80a2-4b60-a5c7-c939c97bb921"
        }
      }
    },
    {
      "fullUrl": "urn:uuid:2fd09a7c-b1bf-454b-9408-f8312f74087d",
      "resource": {
        "resourceType": "Observation",
        "id": "2fd09a7c-b1bf-454b-9408-f8312f74087d",
        "meta": {
          "profile": [
            "http://hl7.eu/fhir/laboratory/StructureDefinition/Observation-resultslab-eu-lab"
          ]
        },
        "performer": [
          {
            "display": "The Central European Lab"
          }
        ],
        "category": [
          {
            "coding": [
              {
                "system": "http://terminology.hl7.org/CodeSystem/observation-category",
                "code": "laboratory"
              }
            ]
          }
        ],
        "code": {
          "coding": [
            {
              "code": "2951-2",
              "system": "http://loinc.org",
              "display": "Sodium [Moles/volume] in Serum or Plasma"
            }
          ],
          "text": "Sodium [Moles/volume] in Serum or Plasma"
        },
        "valueQuantity": {
          "system": "http://unitsofmeasure.org",
          "value": 139.4,
          "unit": "mmol/L",
          "code": "mmol/L"
        },
        "referenceRange": [
          {
            "low": {
              "value": 135,
              "code": "mmol/L",
              "system": "http://unitsofmeasure.org"
            }
          },
          {
            "high": {
              "value": 145,
              "code": "mmol/L",
              "system": "http://unitsofmeasure.org"
            }
          }
        ],
        "text": {
          "status": "generated",
          "div": "<div xmlns=\"http://www.w3.org/1999/xhtml\"><table class=\"hl7__eu__lab__report\"><tr><th>Test</th><th>15-Oct-2023</th><th>Reference&#xA0;Range</th><th>Unit</th></tr><tr><td>Sodium [Moles/volume] in Serum or Plasma</td><td>139.4</td><td>135 - 145</td><td></td><td>mmol/L</td></tr></table></div>"
        },
        "status": "final",
        "subject": {
          "reference": "urn:uuid:6d988540-756a-4bc3-802f-139c7333d63d",
          "display": "Iva Kratochvílová"
        },
        "effectiveDateTime": "2023-10-15T16:10:29Z",
        "specimen": {
          "reference": "urn:uuid:f22ddf8f-80a2-4b60-a5c7-c939c97bb921"
        }
      }
    },
    {
      "fullUrl": "urn:uuid:3a6e197e-6d94-418c-bf91-ee077184d184",
      "resource": {
        "resourceType": "Observation",
        "id": "3a6e197e-6d94-418c-bf91-ee077184d184",
        "meta": {
          "profile": [
            "http://hl7.eu/fhir/laboratory/StructureDefinition/Observation-resultslab-eu-lab"
          ]
        },
        "performer": [
          {
            "display": "The Central European Lab"
          }
        ],
        "category": [
          {
            "coding": [
              {
                "system": "http://terminology.hl7.org/CodeSystem/observation-category",
                "code": "laboratory"
              }
            ]
          }
        ],
        "code": {
          "coding": [
            {
              "code": "2823-3",
              "system": "http://loinc.org",
              "display": "Potassium [Moles/volume] in Serum or Plasma"
            }
          ],
          "text": "Potassium [Moles/volume] in Serum or Plasma"
        },
        "valueQuantity": {
          "system": "http://unitsofmeasure.org",
          "value": 4.8,
          "unit": "mmol/L",
          "code": "mmol/L"
        },
        "referenceRange": [
          {
            "low": {
              "value": 3.5,
              "code": "mmol/L",
              "system": "http://unitsofmeasure.org"
            }
          },
          {
            "high": {
              "value": 5,
              "code": "mmol/L",
              "system": "http://unitsofmeasure.org"
            }
          }
        ],
        "text": {
          "status": "generated",
          "div": "<div xmlns=\"http://www.w3.org/1999/xhtml\"><table class=\"hl7__eu__lab__report\"><tr><th>Test</th><th>15-Oct-2023</th><th>Reference&#xA0;Range</th><th>Unit</th></tr><tr><td>Potassium [Moles/volume] in Serum or Plasma</td><td>4.8</td><td>3.5 - 5</td><td></td><td>mmol/L</td></tr></table></div>"
        },
        "status": "final",
        "subject": {
          "reference": "urn:uuid:6d988540-756a-4bc3-802f-139c7333d63d",
          "display": "Iva Kratochvílová"
        },
        "effectiveDateTime": "2023-10-15T16:10:29Z",
        "specimen": {
          "reference": "urn:uuid:f22ddf8f-80a2-4b60-a5c7-c939c97bb921"
        }
      }
    },
    {
      "fullUrl": "urn:uuid:49959003-9e6d-4289-9eda-fd5e2c841b56",
      "resource": {
        "resourceType": "Observation",
        "id": "49959003-9e6d-4289-9eda-fd5e2c841b56",
        "meta": {
          "profile": [
            "http://hl7.eu/fhir/laboratory/StructureDefinition/Observation-resultslab-eu-lab"
          ]
        },
        "performer": [
          {
            "display": "The Central European Lab"
          }
        ],
        "category": [
          {
            "coding": [
              {
                "system": "http://terminology.hl7.org/CodeSystem/observation-category",
                "code": "laboratory"
              }
            ]
          }
        ],
        "code": {
          "coding": [
            {
              "code": "2075-0",
              "system": "http://loinc.org",
              "display": "Chloride [Moles/volume] in Serum or Plasma"
            }
          ],
          "text": "Chloride [Moles/volume] in Serum or Plasma"
        },
        "valueQuantity": {
          "system": "http://unitsofmeasure.org",
          "value": 104.4,
          "unit": "mmol/L",
          "code": "mmol/L"
        },
        "referenceRange": [
          {
            "low": {
              "value": 98,
              "code": "mmol/L",
              "system": "http://unitsofmeasure.org"
            }
          },
          {
            "high": {
              "value": 106,
              "code": "mmol/L",
              "system": "http://unitsofmeasure.org"
            }
          }
        ],
        "text": {
          "status": "generated",
          "div": "<div xmlns=\"http://www.w3.org/1999/xhtml\"><table class=\"hl7__eu__lab__report\"><tr><th>Test</th><th>15-Oct-2023</th><th>Reference&#xA0;Range</th><th>Unit</th></tr><tr><td>Chloride [Moles/volume] in Serum or Plasma</td><td>104.4</td><td>98 - 106</td><td></td><td>mmol/L</td></tr></table></div>"
        },
        "status": "final",
        "subject": {
          "reference": "urn:uuid:6d988540-756a-4bc3-802f-139c7333d63d",
          "display": "Iva Kratochvílová"
        },
        "effectiveDateTime": "2023-10-15T16:10:29Z",
        "specimen": {
          "reference": "urn:uuid:f22ddf8f-80a2-4b60-a5c7-c939c97bb921"
        }
      }
    },
    {
      "fullUrl": "urn:uuid:1ca8d9ac-3ce4-4945-b623-f4049df157cd",
      "resource": {
        "resourceType": "Observation",
        "id": "1ca8d9ac-3ce4-4945-b623-f4049df157cd",
        "meta": {
          "profile": [
            "http://hl7.eu/fhir/laboratory/StructureDefinition/Observation-resultslab-eu-lab"
          ]
        },
        "performer": [
          {
            "display": "The Central European Lab"
          }
        ],
        "category": [
          {
            "coding": [
              {
                "system": "http://terminology.hl7.org/CodeSystem/observation-category",
                "code": "laboratory"
              }
            ]
          }
        ],
        "code": {
          "coding": [
            {
              "code": "2028-9",
              "system": "http://loinc.org",
              "display": "Carbon dioxide, total [Moles/volume] in Serum or Plasma"
            }
          ],
          "text": "Carbon dioxide, total [Moles/volume] in Serum or Plasma"
        },
        "valueQuantity": {
          "system": "http://unitsofmeasure.org",
          "value": 27.5,
          "unit": "mmol/L",
          "code": "mmol/L"
        },
        "referenceRange": [
          {
            "low": {
              "value": 22,
              "code": "mmol/L",
              "system": "http://unitsofmeasure.org"
            }
          },
          {
            "high": {
              "value": 29,
              "code": "mmol/L",
              "system": "http://unitsofmeasure.org"
            }
          }
        ],
        "text": {
          "status": "generated",
          "div": "<div xmlns=\"http://www.w3.org/1999/xhtml\"><table class=\"hl7__eu__lab__report\"><tr><th>Test</th><th>15-Oct-2023</th><th>Reference&#xA0;Range</th><th>Unit</th></tr><tr><td>Carbon dioxide, total [Moles/volume] in Serum or Plasma</td><td>27.5</td><td>22 - 29</td><td></td><td>mmol/L</td></tr></table></div>"
        },
        "status": "final",
        "subject": {
          "reference": "urn:uuid:6d988540-756a-4bc3-802f-139c7333d63d",
          "display": "Iva Kratochvílová"
        },
        "effectiveDateTime": "2023-10-15T16:10:29Z",
        "specimen": {
          "reference": "urn:uuid:f22ddf8f-80a2-4b60-a5c7-c939c97bb921"
        }
      }
    },
    {
      "fullUrl": "urn:uuid:bb6e0bb8-bd34-4555-9499-0d08566bc56b",
      "resource": {
        "resourceType": "Observation",
        "id": "bb6e0bb8-bd34-4555-9499-0d08566bc56b",
        "meta": {
          "profile": [
            "http://hl7.eu/fhir/laboratory/StructureDefinition/Observation-resultslab-eu-lab"
          ]
        },
        "performer": [
          {
            "display": "The Central European Lab"
          }
        ],
        "category": [
          {
            "coding": [
              {
                "system": "http://terminology.hl7.org/CodeSystem/observation-category",
                "code": "laboratory"
              }
            ]
          }
        ],
        "code": {
          "coding": [
            {
              "code": "5767-9",
              "system": "http://loinc.org",
              "display": "Appearance of Urine"
            }
          ],
          "text": "Appearance of Urine"
        },
        "text": {
          "status": "generated",
          "div": "<div xmlns=\"http://www.w3.org/1999/xhtml\"><table class=\"hl7__eu__lab__report\"><tr><th>Test</th><th>15-Oct-2023</th><th>Reference&#xA0;Range</th><th>Unit</th></tr><tr><td>Appearance of Urine</td></tr></table></div>"
        },
        "status": "final",
        "subject": {
          "reference": "urn:uuid:6d988540-756a-4bc3-802f-139c7333d63d",
          "display": "Iva Kratochvílová"
        },
        "effectiveDateTime": "2023-10-15T16:10:29Z",
        "specimen": {
          "reference": "urn:uuid:060904f7-87b8-4750-8dd9-49bea3f2de90"
        }
      }
    },
    {
      "fullUrl": "urn:uuid:b476e3d5-d6a9-41c3-9bd7-ef3a007de13a",
      "resource": {
        "resourceType": "Observation",
        "id": "b476e3d5-d6a9-41c3-9bd7-ef3a007de13a",
        "meta": {
          "profile": [
            "http://hl7.eu/fhir/laboratory/StructureDefinition/Observation-resultslab-eu-lab"
          ]
        },
        "performer": [
          {
            "display": "The Central European Lab"
          }
        ],
        "category": [
          {
            "coding": [
              {
                "system": "http://terminology.hl7.org/CodeSystem/observation-category",
                "code": "laboratory"
              }
            ]
          }
        ],
        "code": {
          "coding": [
            {
              "code": "34533-0",
              "system": "http://loinc.org",
              "display": "Odor of Urine"
            }
          ],
          "text": "Odor of Urine"
        },
        "text": {
          "status": "generated",
          "div": "<div xmlns=\"http://www.w3.org/1999/xhtml\"><table class=\"hl7__eu__lab__report\"><tr><th>Test</th><th>15-Oct-2023</th><th>Reference&#xA0;Range</th><th>Unit</th></tr><tr><td>Odor of Urine</td></tr></table></div>"
        },
        "status": "final",
        "subject": {
          "reference": "urn:uuid:6d988540-756a-4bc3-802f-139c7333d63d",
          "display": "Iva Kratochvílová"
        },
        "effectiveDateTime": "2023-10-15T16:10:29Z",
        "specimen": {
          "reference": "urn:uuid:060904f7-87b8-4750-8dd9-49bea3f2de90"
        }
      }
    },
    {
      "fullUrl": "urn:uuid:e09c9cf2-b98b-49b5-9c17-423ab0a788a6",
      "resource": {
        "resourceType": "Observation",
        "id": "e09c9cf2-b98b-49b5-9c17-423ab0a788a6",
        "meta": {
          "profile": [
            "http://hl7.eu/fhir/laboratory/StructureDefinition/Observation-resultslab-eu-lab"
          ]
        },
        "performer": [
          {
            "display": "The Central European Lab"
          }
        ],
        "category": [
          {
            "coding": [
              {
                "system": "http://terminology.hl7.org/CodeSystem/observation-category",
                "code": "laboratory"
              }
            ]
          }
        ],
        "code": {
          "coding": [
            {
              "code": "32167-9",
              "system": "http://loinc.org",
              "display": "Clarity of Urine"
            }
          ],
          "text": "Clarity of Urine"
        },
        "text": {
          "status": "generated",
          "div": "<div xmlns=\"http://www.w3.org/1999/xhtml\"><table class=\"hl7__eu__lab__report\"><tr><th>Test</th><th>15-Oct-2023</th><th>Reference&#xA0;Range</th><th>Unit</th></tr><tr><td>Clarity of Urine</td></tr></table></div>"
        },
        "status": "final",
        "subject": {
          "reference": "urn:uuid:6d988540-756a-4bc3-802f-139c7333d63d",
          "display": "Iva Kratochvílová"
        },
        "effectiveDateTime": "2023-10-15T16:10:29Z",
        "specimen": {
          "reference": "urn:uuid:060904f7-87b8-4750-8dd9-49bea3f2de90"
        }
      }
    },
    {
      "fullUrl": "urn:uuid:682c254f-1430-46e4-8693-a7e2dc83a4ea",
      "resource": {
        "resourceType": "Observation",
        "id": "682c254f-1430-46e4-8693-a7e2dc83a4ea",
        "meta": {
          "profile": [
            "http://hl7.eu/fhir/laboratory/StructureDefinition/Observation-resultslab-eu-lab"
          ]
        },
        "performer": [
          {
            "display": "The Central European Lab"
          }
        ],
        "category": [
          {
            "coding": [
              {
                "system": "http://terminology.hl7.org/CodeSystem/observation-category",
                "code": "laboratory"
              }
            ]
          }
        ],
        "code": {
          "coding": [
            {
              "code": "5778-6",
              "system": "http://loinc.org",
              "display": "Color of Urine"
            }
          ],
          "text": "Color of Urine"
        },
        "text": {
          "status": "generated",
          "div": "<div xmlns=\"http://www.w3.org/1999/xhtml\"><table class=\"hl7__eu__lab__report\"><tr><th>Test</th><th>15-Oct-2023</th><th>Reference&#xA0;Range</th><th>Unit</th></tr><tr><td>Color of Urine</td></tr></table></div>"
        },
        "status": "final",
        "subject": {
          "reference": "urn:uuid:6d988540-756a-4bc3-802f-139c7333d63d",
          "display": "Iva Kratochvílová"
        },
        "effectiveDateTime": "2023-10-15T16:10:29Z",
        "specimen": {
          "reference": "urn:uuid:060904f7-87b8-4750-8dd9-49bea3f2de90"
        }
      }
    },
    {
      "fullUrl": "urn:uuid:3ff9a3e9-c2a9-48d9-90fd-d0e8df8aae3c",
      "resource": {
        "resourceType": "Observation",
        "id": "3ff9a3e9-c2a9-48d9-90fd-d0e8df8aae3c",
        "meta": {
          "profile": [
            "http://hl7.eu/fhir/laboratory/StructureDefinition/Observation-resultslab-eu-lab"
          ]
        },
        "performer": [
          {
            "display": "The Central European Lab"
          }
        ],
        "category": [
          {
            "coding": [
              {
                "system": "http://terminology.hl7.org/CodeSystem/observation-category",
                "code": "laboratory"
              }
            ]
          }
        ],
        "code": {
          "coding": [
            {
              "code": "5792-7",
              "system": "http://loinc.org",
              "display": "Glucose [Mass/volume] in Urine by Test strip"
            }
          ],
          "text": "Glucose [Mass/volume] in Urine by Test strip"
        },
        "valueQuantity": {
          "system": "http://unitsofmeasure.org",
          "value": 0.6,
          "unit": "mg/dL",
          "code": "mg/dL"
        },
        "referenceRange": [
          {
            "low": {
              "value": 0,
              "code": "mg/dL",
              "system": "http://unitsofmeasure.org"
            }
          },
          {
            "high": {
              "value": 0.8,
              "code": "mg/dL",
              "system": "http://unitsofmeasure.org"
            }
          }
        ],
        "text": {
          "status": "generated",
          "div": "<div xmlns=\"http://www.w3.org/1999/xhtml\"><table class=\"hl7__eu__lab__report\"><tr><th>Test</th><th>15-Oct-2023</th><th>Reference&#xA0;Range</th><th>Unit</th></tr><tr><td>Glucose [Mass/volume] in Urine by Test strip</td><td>0.6</td><td>0 - 0.8</td><td></td><td>mg/dL</td></tr></table></div>"
        },
        "status": "final",
        "subject": {
          "reference": "urn:uuid:6d988540-756a-4bc3-802f-139c7333d63d",
          "display": "Iva Kratochvílová"
        },
        "effectiveDateTime": "2023-10-15T16:10:29Z",
        "specimen": {
          "reference": "urn:uuid:060904f7-87b8-4750-8dd9-49bea3f2de90"
        }
      }
    },
    {
      "fullUrl": "urn:uuid:6da9b26d-b56a-4946-b0a7-09d76af73205",
      "resource": {
        "resourceType": "Observation",
        "id": "6da9b26d-b56a-4946-b0a7-09d76af73205",
        "meta": {
          "profile": [
            "http://hl7.eu/fhir/laboratory/StructureDefinition/Observation-resultslab-eu-lab"
          ]
        },
        "performer": [
          {
            "display": "The Central European Lab"
          }
        ],
        "category": [
          {
            "coding": [
              {
                "system": "http://terminology.hl7.org/CodeSystem/observation-category",
                "code": "laboratory"
              }
            ]
          }
        ],
        "code": {
          "coding": [
            {
              "code": "25428-4",
              "system": "http://loinc.org",
              "display": "Glucose [Presence] in Urine by Test strip"
            }
          ],
          "text": "Glucose [Presence] in Urine by Test strip"
        },
        "text": {
          "status": "generated",
          "div": "<div xmlns=\"http://www.w3.org/1999/xhtml\"><table class=\"hl7__eu__lab__report\"><tr><th>Test</th><th>15-Oct-2023</th><th>Reference&#xA0;Range</th><th>Unit</th></tr><tr><td>Glucose [Presence] in Urine by Test strip</td></tr></table></div>"
        },
        "status": "final",
        "subject": {
          "reference": "urn:uuid:6d988540-756a-4bc3-802f-139c7333d63d",
          "display": "Iva Kratochvílová"
        },
        "effectiveDateTime": "2023-10-15T16:10:29Z",
        "specimen": {
          "reference": "urn:uuid:060904f7-87b8-4750-8dd9-49bea3f2de90"
        }
      }
    },
    {
      "fullUrl": "urn:uuid:ddaa8811-087e-474b-a3b1-b537735b65d5",
      "resource": {
        "resourceType": "Observation",
        "id": "ddaa8811-087e-474b-a3b1-b537735b65d5",
        "meta": {
          "profile": [
            "http://hl7.eu/fhir/laboratory/StructureDefinition/Observation-resultslab-eu-lab"
          ]
        },
        "performer": [
          {
            "display": "The Central European Lab"
          }
        ],
        "category": [
          {
            "coding": [
              {
                "system": "http://terminology.hl7.org/CodeSystem/observation-category",
                "code": "laboratory"
              }
            ]
          }
        ],
        "code": {
          "coding": [
            {
              "code": "20505-4",
              "system": "http://loinc.org",
              "display": "Bilirubin.total [Mass/volume] in Urine by Test strip"
            }
          ],
          "text": "Bilirubin.total [Mass/volume] in Urine by Test strip"
        },
        "valueQuantity": {
          "system": "http://unitsofmeasure.org",
          "value": 1.2,
          "unit": "mg/dL",
          "code": "mg/dL"
        },
        "referenceRange": [
          {
            "low": {
              "value": 0,
              "code": "mg/dL",
              "system": "http://unitsofmeasure.org"
            }
          },
          {
            "high": {
              "value": 1,
              "code": "mg/dL",
              "system": "http://unitsofmeasure.org"
            }
          }
        ],
        "interpretation": [
          {
            "coding": [
              {
                "code": "H",
                "system": "http://terminology.hl7.org/CodeSystem/v3-ObservationInterpretation",
                "display": "High"
              }
            ]
          }
        ],
        "text": {
          "status": "generated",
          "div": "<div xmlns=\"http://www.w3.org/1999/xhtml\"><table class=\"hl7__eu__lab__report\"><tr><th>Test</th><th>15-Oct-2023</th><th>Reference&#xA0;Range</th><th>Unit</th></tr><tr><td>Bilirubin.total [Mass/volume] in Urine by Test strip</td><td>1.2</td><td>0 - 1</td><td>H</td><td>mg/dL</td></tr></table></div>"
        },
        "status": "final",
        "subject": {
          "reference": "urn:uuid:6d988540-756a-4bc3-802f-139c7333d63d",
          "display": "Iva Kratochvílová"
        },
        "effectiveDateTime": "2023-10-15T16:10:29Z",
        "specimen": {
          "reference": "urn:uuid:060904f7-87b8-4750-8dd9-49bea3f2de90"
        }
      }
    },
    {
      "fullUrl": "urn:uuid:7ffea594-fa7f-4089-8aa6-cb9dfb5ac0c0",
      "resource": {
        "resourceType": "Observation",
        "id": "7ffea594-fa7f-4089-8aa6-cb9dfb5ac0c0",
        "meta": {
          "profile": [
            "http://hl7.eu/fhir/laboratory/StructureDefinition/Observation-resultslab-eu-lab"
          ]
        },
        "performer": [
          {
            "display": "The Central European Lab"
          }
        ],
        "category": [
          {
            "coding": [
              {
                "system": "http://terminology.hl7.org/CodeSystem/observation-category",
                "code": "laboratory"
              }
            ]
          }
        ],
        "code": {
          "coding": [
            {
              "code": "5770-3",
              "system": "http://loinc.org",
              "display": "Bilirubin.total [Presence] in Urine by Test strip"
            }
          ],
          "text": "Bilirubin.total [Presence] in Urine by Test strip"
        },
        "text": {
          "status": "generated",
          "div": "<div xmlns=\"http://www.w3.org/1999/xhtml\"><table class=\"hl7__eu__lab__report\"><tr><th>Test</th><th>15-Oct-2023</th><th>Reference&#xA0;Range</th><th>Unit</th></tr><tr><td>Bilirubin.total [Presence] in Urine by Test strip</td></tr></table></div>"
        },
        "status": "final",
        "subject": {
          "reference": "urn:uuid:6d988540-756a-4bc3-802f-139c7333d63d",
          "display": "Iva Kratochvílová"
        },
        "effectiveDateTime": "2023-10-15T16:10:29Z",
        "specimen": {
          "reference": "urn:uuid:060904f7-87b8-4750-8dd9-49bea3f2de90"
        }
      }
    },
    {
      "fullUrl": "urn:uuid:a34de3ff-238b-49e2-aa3d-9b5071b53d16",
      "resource": {
        "resourceType": "Observation",
        "id": "a34de3ff-238b-49e2-aa3d-9b5071b53d16",
        "meta": {
          "profile": [
            "http://hl7.eu/fhir/laboratory/StructureDefinition/Observation-resultslab-eu-lab"
          ]
        },
        "performer": [
          {
            "display": "The Central European Lab"
          }
        ],
        "category": [
          {
            "coding": [
              {
                "system": "http://terminology.hl7.org/CodeSystem/observation-category",
                "code": "laboratory"
              }
            ]
          }
        ],
        "code": {
          "coding": [
            {
              "code": "5797-6",
              "system": "http://loinc.org",
              "display": "Ketones [Mass/volume] in Urine by Test strip"
            }
          ],
          "text": "Ketones [Mass/volume] in Urine by Test strip"
        },
        "valueQuantity": {
          "system": "http://unitsofmeasure.org",
          "value": 8.8,
          "unit": "mg/dL",
          "code": "mg/dL"
        },
        "referenceRange": [
          {
            "low": {
              "value": 0,
              "code": "mg/dL",
              "system": "http://unitsofmeasure.org"
            }
          },
          {
            "high": {
              "value": 4,
              "code": "mg/dL",
              "system": "http://unitsofmeasure.org"
            }
          }
        ],
        "interpretation": [
          {
            "coding": [
              {
                "code": "H",
                "system": "http://terminology.hl7.org/CodeSystem/v3-ObservationInterpretation",
                "display": "High"
              }
            ]
          }
        ],
        "text": {
          "status": "generated",
          "div": "<div xmlns=\"http://www.w3.org/1999/xhtml\"><table class=\"hl7__eu__lab__report\"><tr><th>Test</th><th>15-Oct-2023</th><th>Reference&#xA0;Range</th><th>Unit</th></tr><tr><td>Ketones [Mass/volume] in Urine by Test strip</td><td>8.8</td><td>0 - 4</td><td>H</td><td>mg/dL</td></tr></table></div>"
        },
        "status": "final",
        "subject": {
          "reference": "urn:uuid:6d988540-756a-4bc3-802f-139c7333d63d",
          "display": "Iva Kratochvílová"
        },
        "effectiveDateTime": "2023-10-15T16:10:29Z",
        "specimen": {
          "reference": "urn:uuid:060904f7-87b8-4750-8dd9-49bea3f2de90"
        }
      }
    },
    {
      "fullUrl": "urn:uuid:f660c6a1-37ea-4396-853f-b7cce58973f8",
      "resource": {
        "resourceType": "Observation",
        "id": "f660c6a1-37ea-4396-853f-b7cce58973f8",
        "meta": {
          "profile": [
            "http://hl7.eu/fhir/laboratory/StructureDefinition/Observation-resultslab-eu-lab"
          ]
        },
        "performer": [
          {
            "display": "The Central European Lab"
          }
        ],
        "category": [
          {
            "coding": [
              {
                "system": "http://terminology.hl7.org/CodeSystem/observation-category",
                "code": "laboratory"
              }
            ]
          }
        ],
        "code": {
          "coding": [
            {
              "code": "2514-8",
              "system": "http://loinc.org",
              "display": "Ketones [Presence] in Urine by Test strip"
            }
          ],
          "text": "Ketones [Presence] in Urine by Test strip"
        },
        "text": {
          "status": "generated",
          "div": "<div xmlns=\"http://www.w3.org/1999/xhtml\"><table class=\"hl7__eu__lab__report\"><tr><th>Test</th><th>15-Oct-2023</th><th>Reference&#xA0;Range</th><th>Unit</th></tr><tr><td>Ketones [Presence] in Urine by Test strip</td></tr></table></div>"
        },
        "status": "final",
        "subject": {
          "reference": "urn:uuid:6d988540-756a-4bc3-802f-139c7333d63d",
          "display": "Iva Kratochvílová"
        },
        "effectiveDateTime": "2023-10-15T16:10:29Z",
        "specimen": {
          "reference": "urn:uuid:060904f7-87b8-4750-8dd9-49bea3f2de90"
        }
      }
    },
    {
      "fullUrl": "urn:uuid:c2086a6c-52e8-42eb-9203-5f0856be82fe",
      "resource": {
        "resourceType": "Observation",
        "id": "c2086a6c-52e8-42eb-9203-5f0856be82fe",
        "meta": {
          "profile": [
            "http://hl7.eu/fhir/laboratory/StructureDefinition/Observation-resultslab-eu-lab"
          ]
        },
        "performer": [
          {
            "display": "The Central European Lab"
          }
        ],
        "category": [
          {
            "coding": [
              {
                "system": "http://terminology.hl7.org/CodeSystem/observation-category",
                "code": "laboratory"
              }
            ]
          }
        ],
        "code": {
          "coding": [
            {
              "code": "5811-5",
              "system": "http://loinc.org",
              "display": "Specific gravity of Urine by Test strip"
            }
          ],
          "text": "Specific gravity of Urine by Test strip"
        },
        "valueQuantity": {
          "system": "http://unitsofmeasure.org",
          "value": 1,
          "unit": "{nominal}",
          "code": "{nominal}"
        },
        "referenceRange": [
          {
            "low": {
              "value": 1.005,
              "code": "g/mL",
              "system": "http://unitsofmeasure.org"
            }
          },
          {
            "high": {
              "value": 1.03,
              "code": "g/mL",
              "system": "http://unitsofmeasure.org"
            }
          }
        ],
        "interpretation": [
          {
            "coding": [
              {
                "code": "L",
                "system": "http://terminology.hl7.org/CodeSystem/v3-ObservationInterpretation",
                "display": "Low"
              }
            ]
          }
        ],
        "text": {
          "status": "generated",
          "div": "<div xmlns=\"http://www.w3.org/1999/xhtml\"><table class=\"hl7__eu__lab__report\"><tr><th>Test</th><th>15-Oct-2023</th><th>Reference&#xA0;Range</th><th>Unit</th></tr><tr><td>Specific gravity of Urine by Test strip</td><td>1.0</td><td>1.005 - 1.03</td><td>L</td><td>{nominal}</td></tr></table></div>"
        },
        "status": "final",
        "subject": {
          "reference": "urn:uuid:6d988540-756a-4bc3-802f-139c7333d63d",
          "display": "Iva Kratochvílová"
        },
        "effectiveDateTime": "2023-10-15T16:10:29Z",
        "specimen": {
          "reference": "urn:uuid:060904f7-87b8-4750-8dd9-49bea3f2de90"
        }
      }
    },
    {
      "fullUrl": "urn:uuid:ac537cc9-20f6-45f9-80a2-b1b6f5da1226",
      "resource": {
        "resourceType": "Observation",
        "id": "ac537cc9-20f6-45f9-80a2-b1b6f5da1226",
        "meta": {
          "profile": [
            "http://hl7.eu/fhir/laboratory/StructureDefinition/Observation-resultslab-eu-lab"
          ]
        },
        "performer": [
          {
            "display": "The Central European Lab"
          }
        ],
        "category": [
          {
            "coding": [
              {
                "system": "http://terminology.hl7.org/CodeSystem/observation-category",
                "code": "laboratory"
              }
            ]
          }
        ],
        "code": {
          "coding": [
            {
              "code": "5803-2",
              "system": "http://loinc.org",
              "display": "pH of Urine by Test strip"
            }
          ],
          "text": "pH of Urine by Test strip"
        },
        "valueQuantity": {
          "system": "http://unitsofmeasure.org",
          "value": 6.8,
          "unit": "pH",
          "code": "pH"
        },
        "referenceRange": [
          {
            "low": {
              "value": 4.5,
              "code": "pH",
              "system": "http://unitsofmeasure.org"
            }
          },
          {
            "high": {
              "value": 7,
              "code": "pH",
              "system": "http://unitsofmeasure.org"
            }
          }
        ],
        "text": {
          "status": "generated",
          "div": "<div xmlns=\"http://www.w3.org/1999/xhtml\"><table class=\"hl7__eu__lab__report\"><tr><th>Test</th><th>15-Oct-2023</th><th>Reference&#xA0;Range</th><th>Unit</th></tr><tr><td>pH of Urine by Test strip</td><td>6.8</td><td>4.5 - 7</td><td></td><td>pH</td></tr></table></div>"
        },
        "status": "final",
        "subject": {
          "reference": "urn:uuid:6d988540-756a-4bc3-802f-139c7333d63d",
          "display": "Iva Kratochvílová"
        },
        "effectiveDateTime": "2023-10-15T16:10:29Z",
        "specimen": {
          "reference": "urn:uuid:060904f7-87b8-4750-8dd9-49bea3f2de90"
        }
      }
    },
    {
      "fullUrl": "urn:uuid:f7c1fd11-f2d0-4447-8ad8-5224fc7e3401",
      "resource": {
        "resourceType": "Observation",
        "id": "f7c1fd11-f2d0-4447-8ad8-5224fc7e3401",
        "meta": {
          "profile": [
            "http://hl7.eu/fhir/laboratory/StructureDefinition/Observation-resultslab-eu-lab"
          ]
        },
        "performer": [
          {
            "display": "The Central European Lab"
          }
        ],
        "category": [
          {
            "coding": [
              {
                "system": "http://terminology.hl7.org/CodeSystem/observation-category",
                "code": "laboratory"
              }
            ]
          }
        ],
        "code": {
          "coding": [
            {
              "code": "5804-0",
              "system": "http://loinc.org",
              "display": "Protein [Mass/volume] in Urine by Test strip"
            }
          ],
          "text": "Protein [Mass/volume] in Urine by Test strip"
        },
        "valueQuantity": {
          "system": "http://unitsofmeasure.org",
          "value": 293.8,
          "unit": "mg/dL",
          "code": "mg/dL"
        },
        "referenceRange": [
          {
            "low": {
              "value": 0,
              "code": "mg/dL",
              "system": "http://unitsofmeasure.org"
            }
          },
          {
            "high": {
              "value": 145,
              "code": "mg/dL",
              "system": "http://unitsofmeasure.org"
            }
          }
        ],
        "interpretation": [
          {
            "coding": [
              {
                "code": "H",
                "system": "http://terminology.hl7.org/CodeSystem/v3-ObservationInterpretation",
                "display": "High"
              }
            ]
          }
        ],
        "text": {
          "status": "generated",
          "div": "<div xmlns=\"http://www.w3.org/1999/xhtml\"><table class=\"hl7__eu__lab__report\"><tr><th>Test</th><th>15-Oct-2023</th><th>Reference&#xA0;Range</th><th>Unit</th></tr><tr><td>Protein [Mass/volume] in Urine by Test strip</td><td>293.8</td><td>0 - 145</td><td>H</td><td>mg/dL</td></tr></table></div>"
        },
        "status": "final",
        "subject": {
          "reference": "urn:uuid:6d988540-756a-4bc3-802f-139c7333d63d",
          "display": "Iva Kratochvílová"
        },
        "effectiveDateTime": "2023-10-15T16:10:29Z",
        "specimen": {
          "reference": "urn:uuid:060904f7-87b8-4750-8dd9-49bea3f2de90"
        }
      }
    },
    {
      "fullUrl": "urn:uuid:316d9cc1-24ea-403c-bb2b-a838af36350b",
      "resource": {
        "resourceType": "Observation",
        "id": "316d9cc1-24ea-403c-bb2b-a838af36350b",
        "meta": {
          "profile": [
            "http://hl7.eu/fhir/laboratory/StructureDefinition/Observation-resultslab-eu-lab"
          ]
        },
        "performer": [
          {
            "display": "The Central European Lab"
          }
        ],
        "category": [
          {
            "coding": [
              {
                "system": "http://terminology.hl7.org/CodeSystem/observation-category",
                "code": "laboratory"
              }
            ]
          }
        ],
        "code": {
          "coding": [
            {
              "code": "20454-5",
              "system": "http://loinc.org",
              "display": "Protein [Presence] in Urine by Test strip"
            }
          ],
          "text": "Protein [Presence] in Urine by Test strip"
        },
        "text": {
          "status": "generated",
          "div": "<div xmlns=\"http://www.w3.org/1999/xhtml\"><table class=\"hl7__eu__lab__report\"><tr><th>Test</th><th>15-Oct-2023</th><th>Reference&#xA0;Range</th><th>Unit</th></tr><tr><td>Protein [Presence] in Urine by Test strip</td></tr></table></div>"
        },
        "status": "final",
        "subject": {
          "reference": "urn:uuid:6d988540-756a-4bc3-802f-139c7333d63d",
          "display": "Iva Kratochvílová"
        },
        "effectiveDateTime": "2023-10-15T16:10:29Z",
        "specimen": {
          "reference": "urn:uuid:060904f7-87b8-4750-8dd9-49bea3f2de90"
        }
      }
    },
    {
      "fullUrl": "urn:uuid:6376ee45-4f96-4da9-b5a5-d8ee05901f88",
      "resource": {
        "resourceType": "Observation",
        "id": "6376ee45-4f96-4da9-b5a5-d8ee05901f88",
        "meta": {
          "profile": [
            "http://hl7.eu/fhir/laboratory/StructureDefinition/Observation-resultslab-eu-lab"
          ]
        },
        "performer": [
          {
            "display": "The Central European Lab"
          }
        ],
        "category": [
          {
            "coding": [
              {
                "system": "http://terminology.hl7.org/CodeSystem/observation-category",
                "code": "laboratory"
              }
            ]
          }
        ],
        "code": {
          "coding": [
            {
              "code": "5802-4",
              "system": "http://loinc.org",
              "display": "Nitrite [Presence] in Urine by Test strip"
            }
          ],
          "text": "Nitrite [Presence] in Urine by Test strip"
        },
        "text": {
          "status": "generated",
          "div": "<div xmlns=\"http://www.w3.org/1999/xhtml\"><table class=\"hl7__eu__lab__report\"><tr><th>Test</th><th>15-Oct-2023</th><th>Reference&#xA0;Range</th><th>Unit</th></tr><tr><td>Nitrite [Presence] in Urine by Test strip</td></tr></table></div>"
        },
        "status": "final",
        "subject": {
          "reference": "urn:uuid:6d988540-756a-4bc3-802f-139c7333d63d",
          "display": "Iva Kratochvílová"
        },
        "effectiveDateTime": "2023-10-15T16:10:29Z",
        "specimen": {
          "reference": "urn:uuid:060904f7-87b8-4750-8dd9-49bea3f2de90"
        }
      }
    },
    {
      "fullUrl": "urn:uuid:871c4394-2f1b-41ae-afd5-e3812f31aeb3",
      "resource": {
        "resourceType": "Observation",
        "id": "871c4394-2f1b-41ae-afd5-e3812f31aeb3",
        "meta": {
          "profile": [
            "http://hl7.eu/fhir/laboratory/StructureDefinition/Observation-resultslab-eu-lab"
          ]
        },
        "performer": [
          {
            "display": "The Central European Lab"
          }
        ],
        "category": [
          {
            "coding": [
              {
                "system": "http://terminology.hl7.org/CodeSystem/observation-category",
                "code": "laboratory"
              }
            ]
          }
        ],
        "code": {
          "coding": [
            {
              "code": "5794-3",
              "system": "http://loinc.org",
              "display": "Hemoglobin [Presence] in Urine by Test strip"
            }
          ],
          "text": "Hemoglobin [Presence] in Urine by Test strip"
        },
        "text": {
          "status": "generated",
          "div": "<div xmlns=\"http://www.w3.org/1999/xhtml\"><table class=\"hl7__eu__lab__report\"><tr><th>Test</th><th>15-Oct-2023</th><th>Reference&#xA0;Range</th><th>Unit</th></tr><tr><td>Hemoglobin [Presence] in Urine by Test strip</td></tr></table></div>"
        },
        "status": "final",
        "subject": {
          "reference": "urn:uuid:6d988540-756a-4bc3-802f-139c7333d63d",
          "display": "Iva Kratochvílová"
        },
        "effectiveDateTime": "2023-10-15T16:10:29Z",
        "specimen": {
          "reference": "urn:uuid:060904f7-87b8-4750-8dd9-49bea3f2de90"
        }
      }
    },
    {
      "fullUrl": "urn:uuid:34e6d0a5-1f06-4e52-a447-f8211585a769",
      "resource": {
        "resourceType": "Observation",
        "id": "34e6d0a5-1f06-4e52-a447-f8211585a769",
        "meta": {
          "profile": [
            "http://hl7.eu/fhir/laboratory/StructureDefinition/Observation-resultslab-eu-lab"
          ]
        },
        "performer": [
          {
            "display": "The Central European Lab"
          }
        ],
        "category": [
          {
            "coding": [
              {
                "system": "http://terminology.hl7.org/CodeSystem/observation-category",
                "code": "laboratory"
              }
            ]
          }
        ],
        "code": {
          "coding": [
            {
              "code": "5799-2",
              "system": "http://loinc.org",
              "display": "Leukocyte esterase [Presence] in Urine by Test strip"
            }
          ],
          "text": "Leukocyte esterase [Presence] in Urine by Test strip"
        },
        "text": {
          "status": "generated",
          "div": "<div xmlns=\"http://www.w3.org/1999/xhtml\"><table class=\"hl7__eu__lab__report\"><tr><th>Test</th><th>15-Oct-2023</th><th>Reference&#xA0;Range</th><th>Unit</th></tr><tr><td>Leukocyte esterase [Presence] in Urine by Test strip</td></tr></table></div>"
        },
        "status": "final",
        "subject": {
          "reference": "urn:uuid:6d988540-756a-4bc3-802f-139c7333d63d",
          "display": "Iva Kratochvílová"
        },
        "effectiveDateTime": "2023-10-15T16:10:29Z",
        "specimen": {
          "reference": "urn:uuid:060904f7-87b8-4750-8dd9-49bea3f2de90"
        }
      }
    },
    {
      "fullUrl": "urn:uuid:1f7047b6-2d88-475f-87b3-6a07980d5d39",
      "resource": {
        "resourceType": "Observation",
        "id": "1f7047b6-2d88-475f-87b3-6a07980d5d39",
        "meta": {
          "profile": [
            "http://hl7.eu/fhir/laboratory/StructureDefinition/Observation-resultslab-eu-lab"
          ]
        },
        "performer": [
          {
            "display": "The Central European Lab"
          }
        ],
        "category": [
          {
            "coding": [
              {
                "system": "http://terminology.hl7.org/CodeSystem/observation-category",
                "code": "laboratory"
              }
            ]
          }
        ],
        "code": {
          "coding": [
            {
              "code": "4548-4",
              "system": "http://loinc.org",
              "display": "Hemoglobin A1c/Hemoglobin.total in Blood"
            }
          ],
          "text": "Hemoglobin A1c/Hemoglobin.total in Blood"
        },
        "valueQuantity": {
          "system": "http://unitsofmeasure.org",
          "value": 3,
          "unit": "%",
          "code": "%"
        },
        "referenceRange": [
          {
            "low": {
              "value": 4,
              "code": "%",
              "system": "http://unitsofmeasure.org"
            }
          },
          {
            "high": {
              "value": 6,
              "code": "%",
              "system": "http://unitsofmeasure.org"
            }
          }
        ],
        "interpretation": [
          {
            "coding": [
              {
                "code": "L",
                "system": "http://terminology.hl7.org/CodeSystem/v3-ObservationInterpretation",
                "display": "Low"
              }
            ]
          }
        ],
        "text": {
          "status": "generated",
          "div": "<div xmlns=\"http://www.w3.org/1999/xhtml\"><table class=\"hl7__eu__lab__report\"><tr><th>Test</th><th>15-Oct-2023</th><th>Reference&#xA0;Range</th><th>Unit</th></tr><tr><td>Hemoglobin A1c/Hemoglobin.total in Blood</td><td>3.0</td><td>4 - 6</td><td>L</td><td>%</td></tr></table></div>"
        },
        "status": "final",
        "subject": {
          "reference": "urn:uuid:6d988540-756a-4bc3-802f-139c7333d63d",
          "display": "Iva Kratochvílová"
        },
        "effectiveDateTime": "2023-10-15T16:10:29Z",
        "specimen": {
          "reference": "urn:uuid:b1e5fd57-0670-4a7f-8dde-259492c86731"
        }
      }
    },
    {
      "fullUrl": "urn:uuid:2b4a8192-a440-47c4-94c8-0db884bed664",
      "resource": {
        "resourceType": "Observation",
        "id": "2b4a8192-a440-47c4-94c8-0db884bed664",
        "meta": {
          "profile": [
            "http://hl7.eu/fhir/laboratory/StructureDefinition/Observation-resultslab-eu-lab"
          ]
        },
        "performer": [
          {
            "display": "The Central European Lab"
          }
        ],
        "category": [
          {
            "coding": [
              {
                "system": "http://terminology.hl7.org/CodeSystem/observation-category",
                "code": "laboratory"
              }
            ]
          }
        ],
        "code": {
          "coding": [
            {
              "code": "2339-0",
              "system": "http://loinc.org",
              "display": "Glucose [Mass/volume] in Blood"
            }
          ],
          "text": "Glucose [Mass/volume] in Blood"
        },
        "valueQuantity": {
          "system": "http://unitsofmeasure.org",
          "value": 75,
          "unit": "mg/dL",
          "code": "mg/dL"
        },
        "referenceRange": [
          {
            "low": {
              "value": 70,
              "code": "mg/dL",
              "system": "http://unitsofmeasure.org"
            }
          },
          {
            "high": {
              "value": 140,
              "code": "mg/dL",
              "system": "http://unitsofmeasure.org"
            }
          }
        ],
        "text": {
          "status": "generated",
          "div": "<div xmlns=\"http://www.w3.org/1999/xhtml\"><table class=\"hl7__eu__lab__report\"><tr><th>Test</th><th>15-Oct-2023</th><th>Reference&#xA0;Range</th><th>Unit</th></tr><tr><td>Glucose [Mass/volume] in Blood</td><td>75.0</td><td>70 - 140</td><td></td><td>mg/dL</td></tr></table></div>"
        },
        "status": "final",
        "subject": {
          "reference": "urn:uuid:6d988540-756a-4bc3-802f-139c7333d63d",
          "display": "Iva Kratochvílová"
        },
        "effectiveDateTime": "2023-10-15T16:10:29Z",
        "specimen": {
          "reference": "urn:uuid:b1e5fd57-0670-4a7f-8dde-259492c86731"
        }
      }
    },
    {
      "fullUrl": "urn:uuid:3c3c96e9-50b3-4b32-9582-0b22e8822c86",
      "resource": {
        "resourceType": "Observation",
        "id": "3c3c96e9-50b3-4b32-9582-0b22e8822c86",
        "meta": {
          "profile": [
            "http://hl7.eu/fhir/laboratory/StructureDefinition/Observation-resultslab-eu-lab"
          ]
        },
        "performer": [
          {
            "display": "The Central European Lab"
          }
        ],
        "category": [
          {
            "coding": [
              {
                "system": "http://terminology.hl7.org/CodeSystem/observation-category",
                "code": "laboratory"
              }
            ]
          }
        ],
        "code": {
          "coding": [
            {
              "code": "6299-2",
              "system": "http://loinc.org",
              "display": "Urea nitrogen [Mass/volume] in Blood"
            }
          ],
          "text": "Urea nitrogen [Mass/volume] in Blood"
        },
        "valueQuantity": {
          "system": "http://unitsofmeasure.org",
          "value": 17.6,
          "unit": "mg/dL",
          "code": "mg/dL"
        },
        "referenceRange": [
          {
            "low": {
              "value": 7,
              "code": "mg/dL",
              "system": "http://unitsofmeasure.org"
            }
          },
          {
            "high": {
              "value": 25,
              "code": "mg/dL",
              "system": "http://unitsofmeasure.org"
            }
          }
        ],
        "text": {
          "status": "generated",
          "div": "<div xmlns=\"http://www.w3.org/1999/xhtml\"><table class=\"hl7__eu__lab__report\"><tr><th>Test</th><th>15-Oct-2023</th><th>Reference&#xA0;Range</th><th>Unit</th></tr><tr><td>Urea nitrogen [Mass/volume] in Blood</td><td>17.6</td><td>7 - 25</td><td></td><td>mg/dL</td></tr></table></div>"
        },
        "status": "final",
        "subject": {
          "reference": "urn:uuid:6d988540-756a-4bc3-802f-139c7333d63d",
          "display": "Iva Kratochvílová"
        },
        "effectiveDateTime": "2023-10-15T16:10:29Z",
        "specimen": {
          "reference": "urn:uuid:b1e5fd57-0670-4a7f-8dde-259492c86731"
        }
      }
    },
    {
      "fullUrl": "urn:uuid:e22bce7e-5f49-47aa-b890-51bf65216005",
      "resource": {
        "resourceType": "Observation",
        "id": "e22bce7e-5f49-47aa-b890-51bf65216005",
        "meta": {
          "profile": [
            "http://hl7.eu/fhir/laboratory/StructureDefinition/Observation-resultslab-eu-lab"
          ]
        },
        "performer": [
          {
            "display": "The Central European Lab"
          }
        ],
        "category": [
          {
            "coding": [
              {
                "system": "http://terminology.hl7.org/CodeSystem/observation-category",
                "code": "laboratory"
              }
            ]
          }
        ],
        "code": {
          "coding": [
            {
              "code": "38483-4",
              "system": "http://loinc.org",
              "display": "Creatinine [Mass/volume] in Blood"
            }
          ],
          "text": "Creatinine [Mass/volume] in Blood"
        },
        "valueQuantity": {
          "system": "http://unitsofmeasure.org",
          "value": 1.3,
          "unit": "mg/dL",
          "code": "mg/dL"
        },
        "referenceRange": [
          {
            "low": {
              "value": 0.6,
              "code": "mg/dL",
              "system": "http://unitsofmeasure.org"
            }
          },
          {
            "high": {
              "value": 1.1,
              "code": "mg/dL",
              "system": "http://unitsofmeasure.org"
            }
          }
        ],
        "interpretation": [
          {
            "coding": [
              {
                "code": "H",
                "system": "http://terminology.hl7.org/CodeSystem/v3-ObservationInterpretation",
                "display": "High"
              }
            ]
          }
        ],
        "text": {
          "status": "generated",
          "div": "<div xmlns=\"http://www.w3.org/1999/xhtml\"><table class=\"hl7__eu__lab__report\"><tr><th>Test</th><th>15-Oct-2023</th><th>Reference&#xA0;Range</th><th>Unit</th></tr><tr><td>Creatinine [Mass/volume] in Blood</td><td>1.3</td><td>0.6 - 1.1</td><td>H</td><td>mg/dL</td></tr></table></div>"
        },
        "status": "final",
        "subject": {
          "reference": "urn:uuid:6d988540-756a-4bc3-802f-139c7333d63d",
          "display": "Iva Kratochvílová"
        },
        "effectiveDateTime": "2023-10-15T16:10:29Z",
        "specimen": {
          "reference": "urn:uuid:b1e5fd57-0670-4a7f-8dde-259492c86731"
        }
      }
    },
    {
      "fullUrl": "urn:uuid:88e919cb-d945-4a00-b329-670624041811",
      "resource": {
        "resourceType": "Observation",
        "id": "88e919cb-d945-4a00-b329-670624041811",
        "meta": {
          "profile": [
            "http://hl7.eu/fhir/laboratory/StructureDefinition/Observation-resultslab-eu-lab"
          ]
        },
        "performer": [
          {
            "display": "The Central European Lab"
          }
        ],
        "category": [
          {
            "coding": [
              {
                "system": "http://terminology.hl7.org/CodeSystem/observation-category",
                "code": "laboratory"
              }
            ]
          }
        ],
        "code": {
          "coding": [
            {
              "code": "49765-1",
              "system": "http://loinc.org",
              "display": "Calcium [Mass/volume] in Blood"
            }
          ],
          "text": "Calcium [Mass/volume] in Blood"
        },
        "valueQuantity": {
          "system": "http://unitsofmeasure.org",
          "value": 9.8,
          "unit": "mg/dL",
          "code": "mg/dL"
        },
        "referenceRange": [
          {
            "low": {
              "value": 8.6,
              "code": "mg/dL",
              "system": "http://unitsofmeasure.org"
            }
          },
          {
            "high": {
              "value": 10.4,
              "code": "mg/dL",
              "system": "http://unitsofmeasure.org"
            }
          }
        ],
        "text": {
          "status": "generated",
          "div": "<div xmlns=\"http://www.w3.org/1999/xhtml\"><table class=\"hl7__eu__lab__report\"><tr><th>Test</th><th>15-Oct-2023</th><th>Reference&#xA0;Range</th><th>Unit</th></tr><tr><td>Calcium [Mass/volume] in Blood</td><td>9.8</td><td>8.6 - 10.4</td><td></td><td>mg/dL</td></tr></table></div>"
        },
        "status": "final",
        "subject": {
          "reference": "urn:uuid:6d988540-756a-4bc3-802f-139c7333d63d",
          "display": "Iva Kratochvílová"
        },
        "effectiveDateTime": "2023-10-15T16:10:29Z",
        "specimen": {
          "reference": "urn:uuid:b1e5fd57-0670-4a7f-8dde-259492c86731"
        }
      }
    },
    {
      "fullUrl": "urn:uuid:88cbd56a-ec9e-4d01-87e1-91ce760c555e",
      "resource": {
        "resourceType": "Observation",
        "id": "88cbd56a-ec9e-4d01-87e1-91ce760c555e",
        "meta": {
          "profile": [
            "http://hl7.eu/fhir/laboratory/StructureDefinition/Observation-resultslab-eu-lab"
          ]
        },
        "performer": [
          {
            "display": "The Central European Lab"
          }
        ],
        "category": [
          {
            "coding": [
              {
                "system": "http://terminology.hl7.org/CodeSystem/observation-category",
                "code": "laboratory"
              }
            ]
          }
        ],
        "code": {
          "coding": [
            {
              "code": "2947-0",
              "system": "http://loinc.org",
              "display": "Sodium [Moles/volume] in Blood"
            }
          ],
          "text": "Sodium [Moles/volume] in Blood"
        },
        "valueQuantity": {
          "system": "http://unitsofmeasure.org",
          "value": 139.4,
          "unit": "mmol/L",
          "code": "mmol/L"
        },
        "referenceRange": [
          {
            "low": {
              "value": 135,
              "code": "mmol/L",
              "system": "http://unitsofmeasure.org"
            }
          },
          {
            "high": {
              "value": 145,
              "code": "mmol/L",
              "system": "http://unitsofmeasure.org"
            }
          }
        ],
        "text": {
          "status": "generated",
          "div": "<div xmlns=\"http://www.w3.org/1999/xhtml\"><table class=\"hl7__eu__lab__report\"><tr><th>Test</th><th>15-Oct-2023</th><th>Reference&#xA0;Range</th><th>Unit</th></tr><tr><td>Sodium [Moles/volume] in Blood</td><td>139.4</td><td>135 - 145</td><td></td><td>mmol/L</td></tr></table></div>"
        },
        "status": "final",
        "subject": {
          "reference": "urn:uuid:6d988540-756a-4bc3-802f-139c7333d63d",
          "display": "Iva Kratochvílová"
        },
        "effectiveDateTime": "2023-10-15T16:10:29Z",
        "specimen": {
          "reference": "urn:uuid:b1e5fd57-0670-4a7f-8dde-259492c86731"
        }
      }
    },
    {
      "fullUrl": "urn:uuid:90d6955c-d1e0-4d21-be5e-02345c6a55dc",
      "resource": {
        "resourceType": "Observation",
        "id": "90d6955c-d1e0-4d21-be5e-02345c6a55dc",
        "meta": {
          "profile": [
            "http://hl7.eu/fhir/laboratory/StructureDefinition/Observation-resultslab-eu-lab"
          ]
        },
        "performer": [
          {
            "display": "The Central European Lab"
          }
        ],
        "category": [
          {
            "coding": [
              {
                "system": "http://terminology.hl7.org/CodeSystem/observation-category",
                "code": "laboratory"
              }
            ]
          }
        ],
        "code": {
          "coding": [
            {
              "code": "6298-4",
              "system": "http://loinc.org",
              "display": "Potassium [Moles/volume] in Blood"
            }
          ],
          "text": "Potassium [Moles/volume] in Blood"
        },
        "valueQuantity": {
          "system": "http://unitsofmeasure.org",
          "value": 4.8,
          "unit": "mmol/L",
          "code": "mmol/L"
        },
        "referenceRange": [
          {
            "low": {
              "value": 3.5,
              "code": "mmol/L",
              "system": "http://unitsofmeasure.org"
            }
          },
          {
            "high": {
              "value": 5.1,
              "code": "mmol/L",
              "system": "http://unitsofmeasure.org"
            }
          }
        ],
        "text": {
          "status": "generated",
          "div": "<div xmlns=\"http://www.w3.org/1999/xhtml\"><table class=\"hl7__eu__lab__report\"><tr><th>Test</th><th>15-Oct-2023</th><th>Reference&#xA0;Range</th><th>Unit</th></tr><tr><td>Potassium [Moles/volume] in Blood</td><td>4.8</td><td>3.5 - 5.1</td><td></td><td>mmol/L</td></tr></table></div>"
        },
        "status": "final",
        "subject": {
          "reference": "urn:uuid:6d988540-756a-4bc3-802f-139c7333d63d",
          "display": "Iva Kratochvílová"
        },
        "effectiveDateTime": "2023-10-15T16:10:29Z",
        "specimen": {
          "reference": "urn:uuid:b1e5fd57-0670-4a7f-8dde-259492c86731"
        }
      }
    },
    {
      "fullUrl": "urn:uuid:766aecdf-bee0-4f42-b815-a091b3f46704",
      "resource": {
        "resourceType": "Observation",
        "id": "766aecdf-bee0-4f42-b815-a091b3f46704",
        "meta": {
          "profile": [
            "http://hl7.eu/fhir/laboratory/StructureDefinition/Observation-resultslab-eu-lab"
          ]
        },
        "performer": [
          {
            "display": "The Central European Lab"
          }
        ],
        "category": [
          {
            "coding": [
              {
                "system": "http://terminology.hl7.org/CodeSystem/observation-category",
                "code": "laboratory"
              }
            ]
          }
        ],
        "code": {
          "coding": [
            {
              "code": "2069-3",
              "system": "http://loinc.org",
              "display": "Chloride [Moles/volume] in Blood"
            }
          ],
          "text": "Chloride [Moles/volume] in Blood"
        },
        "valueQuantity": {
          "system": "http://unitsofmeasure.org",
          "value": 104.4,
          "unit": "mmol/L",
          "code": "mmol/L"
        },
        "referenceRange": [
          {
            "low": {
              "value": 98,
              "code": "mmol/L",
              "system": "http://unitsofmeasure.org"
            }
          },
          {
            "high": {
              "value": 110,
              "code": "mmol/L",
              "system": "http://unitsofmeasure.org"
            }
          }
        ],
        "text": {
          "status": "generated",
          "div": "<div xmlns=\"http://www.w3.org/1999/xhtml\"><table class=\"hl7__eu__lab__report\"><tr><th>Test</th><th>15-Oct-2023</th><th>Reference&#xA0;Range</th><th>Unit</th></tr><tr><td>Chloride [Moles/volume] in Blood</td><td>104.4</td><td>98 - 110</td><td></td><td>mmol/L</td></tr></table></div>"
        },
        "status": "final",
        "subject": {
          "reference": "urn:uuid:6d988540-756a-4bc3-802f-139c7333d63d",
          "display": "Iva Kratochvílová"
        },
        "effectiveDateTime": "2023-10-15T16:10:29Z",
        "specimen": {
          "reference": "urn:uuid:b1e5fd57-0670-4a7f-8dde-259492c86731"
        }
      }
    },
    {
      "fullUrl": "urn:uuid:9faed0cf-6698-4b8b-b8e3-1e3eaa1664a3",
      "resource": {
        "resourceType": "Observation",
        "id": "9faed0cf-6698-4b8b-b8e3-1e3eaa1664a3",
        "meta": {
          "profile": [
            "http://hl7.eu/fhir/laboratory/StructureDefinition/Observation-resultslab-eu-lab"
          ]
        },
        "performer": [
          {
            "display": "The Central European Lab"
          }
        ],
        "category": [
          {
            "coding": [
              {
                "system": "http://terminology.hl7.org/CodeSystem/observation-category",
                "code": "laboratory"
              }
            ]
          }
        ],
        "code": {
          "coding": [
            {
              "code": "20565-8",
              "system": "http://loinc.org",
              "display": "Carbon dioxide, total [Moles/volume] in Blood"
            }
          ],
          "text": "Carbon dioxide, total [Moles/volume] in Blood"
        },
        "valueQuantity": {
          "system": "http://unitsofmeasure.org",
          "value": 27.5,
          "unit": "mmol/L",
          "code": "mmol/L"
        },
        "referenceRange": [
          {
            "low": {
              "value": 22,
              "code": "mmol/L",
              "system": "http://unitsofmeasure.org"
            }
          },
          {
            "high": {
              "value": 29,
              "code": "mmol/L",
              "system": "http://unitsofmeasure.org"
            }
          }
        ],
        "text": {
          "status": "generated",
          "div": "<div xmlns=\"http://www.w3.org/1999/xhtml\"><table class=\"hl7__eu__lab__report\"><tr><th>Test</th><th>15-Oct-2023</th><th>Reference&#xA0;Range</th><th>Unit</th></tr><tr><td>Carbon dioxide, total [Moles/volume] in Blood</td><td>27.5</td><td>22 - 29</td><td></td><td>mmol/L</td></tr></table></div>"
        },
        "status": "final",
        "subject": {
          "reference": "urn:uuid:6d988540-756a-4bc3-802f-139c7333d63d",
          "display": "Iva Kratochvílová"
        },
        "effectiveDateTime": "2023-10-15T16:10:29Z",
        "specimen": {
          "reference": "urn:uuid:b1e5fd57-0670-4a7f-8dde-259492c86731"
        }
      }
    },
    {
      "fullUrl": "urn:uuid:1a896186-1226-44b9-8373-3b7eec26c769",
      "resource": {
        "resourceType": "Device",
        "id": "1a896186-1226-44b9-8373-3b7eec26c769",
        "deviceName": [
          {
            "name": "SYNDERAI Synthetic Generator",
            "type": "manufacturer-name"
          }
        ],
        "version": [
          {
            "value": "5.0"
          }
        ],
        "text": {
          "status": "generated",
          "div": "<div xmlns=\"http://www.w3.org/1999/xhtml\">SYNDERAI Synthetic Generator v5.0</div>"
        },
        "status": "active\"",
        "distinctIdentifier": "synderai-generator-50",
        "manufacturer": "SYNDERAI Project"
      }
    },
    {
      "fullUrl": "urn:uuid:077e3a94-0f62-41ef-ae60-287a0603db86",
      "resource": {
        "resourceType": "Provenance",
        "id": "077e3a94-0f62-41ef-ae60-287a0603db86",
        "target": [
          {
            "reference": "Patient/6d988540-756a-4bc3-802f-139c7333d63d"
          },
          {
            "reference": "Bundle/0d376e93-e4e6-49bf-94db-25048b701a5a"
          },
          {
            "reference": "Composition/cd9dcfe0-399b-4410-8240-3f72b261d1d9"
          },
          {
            "reference": "PractitionerRole/c6b71fd4-e423-4134-95ee-5d8778cff6a2"
          },
          {
            "reference": "Practitioner/6c60be66-8fd6-4d89-bca9-9bc13f8b041f"
          },
          {
            "reference": "PractitionerRole/b63ee2e8-c230-4e13-a478-1fcb5756706c"
          },
          {
            "reference": "Organization/de06da33-9377-486f-957f-a7477a6d08b6"
          }
        ],
        "activity": {
          "text": "Synthetic Example Data Generation"
        },
        "policy": [
          "https://synderai.net/synderai-synthetic-data-policy"
        ],
        "agent": [
          {
            "type": {
              "text": "author"
            },
            "who": {
              "reference": "Device/1a896186-1226-44b9-8373-3b7eec26c769"
            }
          }
        ],
        "reason": [
          {
            "text": "Interoperability Testing and Training (non-clinical use)"
          }
        ],
        "text": {
          "status": "generated",
          "div": "<div xmlns=\"http://www.w3.org/1999/xhtml\">Provenance for SYNDERAI Synthetic Example Data Resource</div>"
        },
        "recorded": "2023-10-15T18:10:29Z"
      }
    },
    {
      "fullUrl": "urn:uuid:c6b71fd4-e423-4134-95ee-5d8778cff6a2",
      "resource": {
        "resourceType": "PractitionerRole",
        "id": "c6b71fd4-e423-4134-95ee-5d8778cff6a2",
        "meta": {
          "profile": [
            "http://hl7.eu/fhir/base/StructureDefinition/practitionerRole-eu"
          ]
        },
        "text": {
          "status": "generated",
          "div": "<div xmlns=\"http://www.w3.org/1999/xhtml\">Laboratory Role Id: c6b71fd4-e423-4134-95ee-5d8778cff6a2</div>"
        },
        "practitioner": {
          "reference": "urn:uuid:6c60be66-8fd6-4d89-bca9-9bc13f8b041f"
        }
      }
    },
    {
      "fullUrl": "urn:uuid:6c60be66-8fd6-4d89-bca9-9bc13f8b041f",
      "resource": {
        "resourceType": "Practitioner",
        "id": "6c60be66-8fd6-4d89-bca9-9bc13f8b041f",
        "meta": {
          "profile": [
            "http://hl7.eu/fhir/base/StructureDefinition/practitioner-eu"
          ]
        },
        "identifier": [
          {
            "assigner": {
              "display": "HL7 Europe"
            },
            "system": "urn:oid:2.16.840.1.113883.2.51.999",
            "value": "b3e85c43-b1f7-4793-9e88-ab4aa5da0535"
          }
        ],
        "name": [
          {
            "prefix": [
              "dr"
            ],
            "given": [
              "Ex"
            ],
            "family": "Ample"
          }
        ],
        "address": [
          {
            "line": [
              "Laboratoire Central Européenne",
              "Boulevard du Jardin Botanique 32"
            ],
            "postalCode": "1000",
            "city": "Brussels",
            "country": "Belgium"
          }
        ],
        "text": {
          "status": "generated",
          "div": "<div xmlns=\"http://www.w3.org/1999/xhtml\">Laboratory: Laboratoire Central Européenne, 1000 Brussels, Belgium</div>"
        }
      }
    }
  ],
  "type": "document",
  "timestamp": "2023-10-15T18:10:29Z"
}
