{
  "resourceType": "Bundle",
  "id": "cdbc794b-33f4-40ec-bdbd-c9ce62330370",
  "meta": {
    "profile": [
      "http://hl7.eu/fhir/laboratory/StructureDefinition/Bundle-eu-lab"
    ]
  },
  "identifier": {
    "assigner": {
      "display": "HL7 Europe"
    },
    "system": "urn:oid:2.16.840.1.113883.2.51.999",
    "value": "7f4ae50b-58eb-4b58-ad1d-dbfb01bb93a7"
  },
  "entry": [
    {
      "fullUrl": "urn:uuid:cacd384e-4b0c-4db5-893d-c58cd279c8b5",
      "resource": {
        "resourceType": "Composition",
        "id": "cacd384e-4b0c-4db5-893d-c58cd279c8b5",
        "meta": {
          "profile": [
            "http://hl7.eu/fhir/laboratory/StructureDefinition/Composition-eu-lab"
          ]
        },
        "identifier": {
          "assigner": {
            "display": "HL7 Europe"
          },
          "system": "urn:oid:2.16.840.1.113883.2.51.999",
          "value": "5d5fb5b3-568c-4c7e-b463-ccb6eef34787"
        },
        "author": [
          {
            "reference": "urn:uuid:0a2fb300-bd4f-4281-9d1c-76c652d4e215"
          }
        ],
        "category": [
          {
            "coding": [
              {
                "code": "26436-6",
                "system": "http://loinc.org",
                "display": "Laboratory studies (set)"
              }
            ]
          }
        ],
        "type": {
          "coding": [
            {
              "code": "11502-2",
              "system": "http://loinc.org",
              "display": "Laboratory report"
            }
          ],
          "text": "Laboratory Report"
        },
        "section": [
          {
            "code": {
              "coding": [
                {
                  "code": "26436-6",
                  "system": "http://loinc.org",
                  "display": "Laboratory studies (set)"
                }
              ],
              "text": "Laboratory studies"
            },
            "section": [
              {
                "code": {
                  "coding": [
                    {
                      "code": "$18719-5",
                      "system": "http://loinc.org",
                      "display": "Chemistry studies (set)"
                    }
                  ],
                  "text": "Chemistry"
                },
                "entry": [
                  {
                    "reference": "urn:uuid:4855a145-13ea-43aa-a60a-864c39c2721d"
                  },
                  {
                    "reference": "urn:uuid:795aacad-5d16-4d2c-9d1f-931e4301c30a"
                  },
                  {
                    "reference": "urn:uuid:f4a04fe2-8294-4667-b200-b034d4df6f82"
                  },
                  {
                    "reference": "urn:uuid:b9de6dbf-df53-43e4-9027-9f792b6d2cb7"
                  },
                  {
                    "reference": "urn:uuid:06f680aa-7ecc-4d16-ba15-1d905c660a1b"
                  },
                  {
                    "reference": "urn:uuid:887fae04-89bc-4406-b810-6db7d6677b03"
                  },
                  {
                    "reference": "urn:uuid:780d2381-dc76-4f99-90cc-448db3a7e06c"
                  },
                  {
                    "reference": "urn:uuid:c82e9410-8750-417f-b02b-4d6e4a3b56c4"
                  },
                  {
                    "reference": "urn:uuid:67f12363-d7e1-432d-94e2-e96082fba4ec"
                  },
                  {
                    "reference": "urn:uuid:a4567dbf-84d5-413c-8294-e8c8b18ce2da"
                  },
                  {
                    "reference": "urn:uuid:b1d5ddbd-b04b-4e59-addd-e296b002fd00"
                  },
                  {
                    "reference": "urn:uuid:6700e91d-ad8e-4f98-9f3c-706bea680af5"
                  },
                  {
                    "reference": "urn:uuid:06e499fc-8d1f-44b1-91e2-9a45898ba207"
                  },
                  {
                    "reference": "urn:uuid:feede5f2-6e2a-4f0a-88cb-ebe15f418c15"
                  },
                  {
                    "reference": "urn:uuid:32519d98-dfd3-41e6-8500-3569cb0adab0"
                  },
                  {
                    "reference": "urn:uuid:eaa0502d-d23c-47fc-b3a3-1dca26f19eaa"
                  },
                  {
                    "reference": "urn:uuid:c02039d2-7ce8-4fe4-860c-b3fde6016daf"
                  },
                  {
                    "reference": "urn:uuid:d3cbc3e8-d9fd-4aad-996f-419cd12f1b9a"
                  },
                  {
                    "reference": "urn:uuid:48e3dd36-587b-44cc-add8-181c92c6c871"
                  }
                ],
                "text": {
                  "status": "generated",
                  "div": "<div xmlns=\"http://www.w3.org/1999/xhtml\"><h3>Chemistry</h3><table class=\"hl7__eu__lab__report\"><thead><tr><th>Test</th><th>19-NOV-2023</th><th>Reference&#xA0;Range</th><th>Unit</th></tr></thead><tbody><tr><td>Glucose [Mass/volume] in Blood</td><td>94.0</td><td>70 - 140</td><td>mg/dL</td></tr><tr><td>Urea nitrogen [Mass/volume] in Blood</td><td>12.0</td><td>7 - 25</td><td>mg/dL</td></tr><tr><td>Creatinine [Mass/volume] in Blood</td><td><strong>3.1 H</strong></td><td>0.6 - 1.1</td><td>mg/dL</td></tr><tr><td>Calcium [Mass/volume] in Blood</td><td>9.0</td><td>8.6 - 10.4</td><td>mg/dL</td></tr><tr><td>Sodium [Moles/volume] in Blood</td><td>141.0</td><td>135 - 145</td><td>mmol/L</td></tr><tr><td>Potassium [Moles/volume] in Blood</td><td>3.9</td><td>3.5 - 5.3</td><td>mmol/L</td></tr><tr><td>Chloride [Moles/volume] in Blood</td><td>105.8</td><td>98 - 108</td><td>mmol/L</td></tr><tr><td>Carbon dioxide, total [Moles/volume] in Blood</td><td>25.0</td><td>22 - 32</td><td>mmol/L</td></tr><tr><td>Protein [Mass/volume] in Serum or Plasma</td><td>6.6</td><td>6.6 - 8.3</td><td>g/dL</td></tr><tr><td>Albumin [Mass/volume] in Serum or Plasma</td><td>4.8</td><td>3.5 - 5.5</td><td>g/dL</td></tr><tr><td>Globulin [Mass/volume] in Serum by calculation</td><td><strong>2.1 L</strong></td><td>2.2 - 3.7</td><td>g/L</td></tr><tr><td>Bilirubin.total [Mass/volume] in Serum or Plasma</td><td>0.5</td><td>0.3 - 1.2</td><td>mg/dL</td></tr><tr><td>Alkaline phosphatase [Enzymatic activity/volume] in Serum or Plasma</td><td>110.3</td><td>40 - 130</td><td>U/L</td></tr><tr><td>Alanine aminotransferase [Enzymatic activity/volume] in Serum or Plasma</td><td>54.3</td><td>7 - 55</td><td>U/L</td></tr><tr><td>Aspartate aminotransferase [Enzymatic activity/volume] in Serum or Plasma</td><td>24.4</td><td>10 - 40</td><td>U/L</td></tr><tr><td>Cholesterol [Mass/volume] in Serum or Plasma</td><td><strong>200.4 H</strong></td><td>125 - 200</td><td>mg/dL</td></tr><tr><td>Triglyceride [Mass/volume] in Serum or Plasma</td><td>170.9</td><td>10 - 175</td><td>mg/dL</td></tr><tr><td>Cholesterol in LDL [Mass/volume] in Serum or Plasma by Direct assay</td><td><strong>130.8 H</strong></td><td>0 - 130</td><td>mg/dL</td></tr><tr><td>Cholesterol in HDL [Mass/volume] in Serum or Plasma</td><td>61.8</td><td>50 - 100</td><td>mg/dL</td></tr></tbody></table></div>"
                },
                "title": "Chemistry"
              }
            ],
            "title": "Laboratory Report"
          },
          {
            "text": {
              "status": "generated",
              "div": "<div xmlns=\"http://www.w3.org/1999/xhtml\"><h3>Annotation</h3><table class=\"hl7__eu__lab__report\"><tr><th>Conclusion and Recommendations based on this report and previous findings known to us</th></tr><tr><td>The patient shows significantly elevated creatinine, suggesting impaired renal function, and mildly decreased globulin. Cholesterol and LDL are slightly above the reference range, indicating increased cardiovascular risk. Other parameters, including glucose, electrolytes, liver enzymes, and proteins, are within normal limits. Recommend clinical correlation for renal impairment and cardiovascular risk assessment.</td></tr></table></div>"
            },
            "code": {
              "coding": [
                {
                  "system": "http://loinc.org",
                  "code": "48767-8",
                  "display": "Annotation comment"
                }
              ]
            },
            "title": "Annotation comment"
          }
        ],
        "status": "final",
        "subject": {
          "reference": "urn:uuid:8ff58083-03c1-4f14-ac4a-926f3729a23b",
          "display": "Helene Andresen"
        },
        "date": "2023-11-19T23:53:36Z",
        "title": "Laboratory Report",
        "confidentiality": "N"
      }
    },
    {
      "fullUrl": "urn:uuid:ebbaac3e-59b5-451b-9e65-3de147c095fb",
      "resource": {
        "resourceType": "DiagnosticReport",
        "id": "ebbaac3e-59b5-451b-9e65-3de147c095fb",
        "meta": {
          "profile": [
            "http://hl7.eu/fhir/laboratory/StructureDefinition/DiagnosticReport-eu-lab"
          ]
        },
        "identifier": [
          {
            "assigner": {
              "display": "HL7 Europe"
            },
            "system": "urn:oid:2.16.840.1.113883.2.51.999",
            "value": "80cc2414-2532-4dac-8338-7b69f12f72c3"
          }
        ],
        "extension": [
          {
            "url": "http://hl7.org/fhir/5.0/StructureDefinition/extension-DiagnosticReport.composition",
            "valueReference": {
              "reference": "urn:uuid:5d5fb5b3-568c-4c7e-b463-ccb6eef34787"
            }
          }
        ],
        "category": [
          {
            "coding": [
              {
                "code": "26436-6",
                "system": "http://loinc.org",
                "display": "Laboratory studies (set)"
              }
            ]
          }
        ],
        "specimen": [
          {
            "reference": "urn:uuid:404078cc-79b8-4730-b4f9-ccffd5d8f93d"
          },
          {
            "reference": "urn:uuid:04a55bee-19ea-4ccb-9fdd-caa0268ffe57"
          },
          {
            "reference": "urn:uuid:671ef820-192b-418c-9d89-739529efc98c"
          }
        ],
        "result": [
          {
            "reference": "urn:uuid:4855a145-13ea-43aa-a60a-864c39c2721d"
          },
          {
            "reference": "urn:uuid:795aacad-5d16-4d2c-9d1f-931e4301c30a"
          },
          {
            "reference": "urn:uuid:f4a04fe2-8294-4667-b200-b034d4df6f82"
          },
          {
            "reference": "urn:uuid:b9de6dbf-df53-43e4-9027-9f792b6d2cb7"
          },
          {
            "reference": "urn:uuid:06f680aa-7ecc-4d16-ba15-1d905c660a1b"
          },
          {
            "reference": "urn:uuid:887fae04-89bc-4406-b810-6db7d6677b03"
          },
          {
            "reference": "urn:uuid:780d2381-dc76-4f99-90cc-448db3a7e06c"
          },
          {
            "reference": "urn:uuid:c82e9410-8750-417f-b02b-4d6e4a3b56c4"
          },
          {
            "reference": "urn:uuid:67f12363-d7e1-432d-94e2-e96082fba4ec"
          },
          {
            "reference": "urn:uuid:a4567dbf-84d5-413c-8294-e8c8b18ce2da"
          },
          {
            "reference": "urn:uuid:b1d5ddbd-b04b-4e59-addd-e296b002fd00"
          },
          {
            "reference": "urn:uuid:6700e91d-ad8e-4f98-9f3c-706bea680af5"
          },
          {
            "reference": "urn:uuid:06e499fc-8d1f-44b1-91e2-9a45898ba207"
          },
          {
            "reference": "urn:uuid:feede5f2-6e2a-4f0a-88cb-ebe15f418c15"
          },
          {
            "reference": "urn:uuid:32519d98-dfd3-41e6-8500-3569cb0adab0"
          },
          {
            "reference": "urn:uuid:eaa0502d-d23c-47fc-b3a3-1dca26f19eaa"
          },
          {
            "reference": "urn:uuid:c02039d2-7ce8-4fe4-860c-b3fde6016daf"
          },
          {
            "reference": "urn:uuid:d3cbc3e8-d9fd-4aad-996f-419cd12f1b9a"
          },
          {
            "reference": "urn:uuid:48e3dd36-587b-44cc-add8-181c92c6c871"
          }
        ],
        "status": "registered",
        "code": {
          "coding": [
            {
              "code": "11502-2",
              "system": "http://loinc.org",
              "display": "Laboratory report"
            }
          ]
        },
        "subject": {
          "reference": "urn:uuid:8ff58083-03c1-4f14-ac4a-926f3729a23b",
          "display": "Helene Andresen"
        }
      }
    },
    {
      "fullUrl": "urn:uuid:8ff58083-03c1-4f14-ac4a-926f3729a23b",
      "resource": {
        "resourceType": "Patient",
        "id": "8ff58083-03c1-4f14-ac4a-926f3729a23b",
        "meta": {
          "security": [
            {
              "system": "http://terminology.hl7.org/CodeSystem/v3-ActReason",
              "code": "HTEST"
            },
            {
              "system": "http://terminology.hl7.org/CodeSystem/v3-ActReason",
              "code": "TRAIN"
            }
          ],
          "tag": [
            {
              "system": "https://synderai.net/fhir/CodeSystem/tags",
              "code": "synthetic",
              "display": "SYNDERAI Synthetic data"
            }
          ],
          "profile": [
            "http://hl7.eu/fhir/base/StructureDefinition/patient-eu-core"
          ]
        },
        "identifier": [
          {
            "type": {
              "coding": [
                {
                  "code": "PT",
                  "system": "http://terminology.hl7.org/CodeSystem/v2-0203"
                }
              ]
            },
            "system": "http://ec.europa.eu/identifier/eci",
            "value": "3450-170343-2"
          },
          {
            "type": {
              "coding": [
                {
                  "code": "MR",
                  "system": "http://terminology.hl7.org/CodeSystem/v2-0203"
                }
              ]
            },
            "system": "http://local.setting.eu/identifier",
            "value": "72e91c9c-0b01-42b0-a6a0-6dcc70aeec49"
          }
        ],
        "name": [
          {
            "family": "Andresen"
          },
          {
            "given": [
              "Helene"
            ]
          },
          {
            "text": "Helene Andresen"
          }
        ],
        "address": [
          {
            "line": [
              "Kristiansenberget 2"
            ],
            "use": "home",
            "type": "physical",
            "postalCode": "0172",
            "city": "Sørensen",
            "country": "Norway"
          }
        ],
        "telecom": [
          {
            "system": "phone",
            "value": "53 98 86 24"
          }
        ],
        "extension": [
          {
            "url": "http://hl7.org/fhir/StructureDefinition/patient-nationality",
            "valueCodeableConcept": {
              "coding": [
                {
                  "code": "NO",
                  "system": "http://hl7.org/fhir/ValueSet/country"
                }
              ]
            }
          }
        ],
        "text": {
          "status": "generated",
          "div": "<div xmlns=\"http://www.w3.org/1999/xhtml\"><table class=\"hl7__ips\"><tr><td>Helene Andresen</td><td>female</td><td>17-Oct-1939</td></tr></table></div>"
        },
        "gender": "female",
        "birthDate": "1939-10-17"
      }
    },
    {
      "fullUrl": "urn:uuid:5f4f0241-2afc-4f76-b61b-2c0b84e6ceee",
      "resource": {
        "resourceType": "ServiceRequest",
        "id": "5f4f0241-2afc-4f76-b61b-2c0b84e6ceee",
        "meta": {
          "profile": [
            "http://hl7.eu/fhir/laboratory/StructureDefinition/ServiceRequest-eu-lab"
          ]
        },
        "identifier": [
          {
            "system": "http://example.org",
            "value": "cadb27e7-1331-48ac-a9bb-2f777adbaace"
          }
        ],
        "specimen": [
          {
            "reference": "urn:uuid:404078cc-79b8-4730-b4f9-ccffd5d8f93d"
          },
          {
            "reference": "urn:uuid:04a55bee-19ea-4ccb-9fdd-caa0268ffe57"
          },
          {
            "reference": "urn:uuid:671ef820-192b-418c-9d89-739529efc98c"
          }
        ],
        "reasonCode": [
          {
            "coding": [
              {
                "code": "64859006",
                "system": "http://snomed.info/sct",
                "display": "Osteoporosis"
              }
            ]
          },
          {
            "coding": [
              {
                "code": "40055000",
                "system": "http://snomed.info/sct",
                "display": "Chronic sinusitis"
              }
            ]
          },
          {
            "coding": [
              {
                "code": "55822004",
                "system": "http://snomed.info/sct",
                "display": "Hyperlipidemia"
              }
            ]
          },
          {
            "coding": [
              {
                "code": "271737000",
                "system": "http://snomed.info/sct",
                "display": "Anemia"
              }
            ]
          },
          {
            "coding": [
              {
                "code": "15777000",
                "system": "http://snomed.info/sct",
                "display": "Prediabetes"
              }
            ]
          },
          {
            "coding": [
              {
                "code": "128613002",
                "system": "http://snomed.info/sct",
                "display": "Seizure disorder"
              }
            ]
          }
        ],
        "status": "active",
        "intent": "order",
        "code": {
          "coding": [
            {
              "code": "108252007",
              "system": "http://snomed.info/sct",
              "display": "Laboratory procedure"
            }
          ]
        },
        "subject": {
          "reference": "urn:uuid:8ff58083-03c1-4f14-ac4a-926f3729a23b",
          "display": "Helene Andresen"
        },
        "requester": {
          "reference": "urn:uuid:67c73327-0880-4906-a43a-14748c7700a6"
        }
      }
    },
    {
      "fullUrl": "urn:uuid:67c73327-0880-4906-a43a-14748c7700a6",
      "resource": {
        "resourceType": "PractitionerRole",
        "id": "67c73327-0880-4906-a43a-14748c7700a6",
        "meta": {
          "profile": [
            "http://hl7.eu/fhir/base/StructureDefinition/practitionerRole-eu"
          ]
        },
        "text": {
          "status": "generated",
          "div": "<div xmlns=\"http://www.w3.org/1999/xhtml\">Provider Role Id: 67c73327-0880-4906-a43a-14748c7700a6</div>"
        },
        "organization": {
          "reference": "urn:uuid:0ecdd853-aaf3-485e-9a2f-0917b770e58d"
        }
      }
    },
    {
      "fullUrl": "urn:uuid:0ecdd853-aaf3-485e-9a2f-0917b770e58d",
      "resource": {
        "resourceType": "Organization",
        "id": "0ecdd853-aaf3-485e-9a2f-0917b770e58d",
        "meta": {
          "profile": [
            "http://hl7.eu/fhir/base/StructureDefinition/organization-eu"
          ]
        },
        "identifier": [
          {
            "assigner": {
              "display": "HL7 Europe"
            },
            "system": "urn:oid:2.16.840.1.113883.2.51.999",
            "value": "ea14c5aa-5637-43f8-b455-eb816346cf7a"
          }
        ],
        "address": [
          {
            "city": "Oslo",
            "postalCode": "0155",
            "country": "Norway"
          }
        ],
        "text": {
          "status": "generated",
          "div": "<div xmlns=\"http://www.w3.org/1999/xhtml\">Provider Organization: Oslo universitetssykehus (Ullevål)</div>"
        },
        "name": "Oslo universitetssykehus (Ullevål)"
      }
    },
    {
      "fullUrl": "urn:uuid:404078cc-79b8-4730-b4f9-ccffd5d8f93d",
      "resource": {
        "resourceType": "Specimen",
        "id": "404078cc-79b8-4730-b4f9-ccffd5d8f93d",
        "meta": {
          "profile": [
            "http://hl7.eu/fhir/laboratory/StructureDefinition/Specimen-eu-lab"
          ]
        },
        "collection": {
          "collectedDateTime": "2023-11-19"
        },
        "text": {
          "status": "generated",
          "div": "<div xmlns=\"http://www.w3.org/1999/xhtml\"><table class=\"hl7__eu__lab__report\"><tr><th>Specimen</th><th>Collection Date</th></tr><tr><td>Whole blood specimen (specimen)</td><td><span class=\"nb\">19-Nov-2023</span></td></tr></table></div>"
        },
        "type": {
          "coding": [
            {
              "code": "258580003",
              "system": "http://snomed.info/sct",
              "display": "Whole blood specimen (specimen)"
            }
          ]
        }
      }
    },
    {
      "fullUrl": "urn:uuid:04a55bee-19ea-4ccb-9fdd-caa0268ffe57",
      "resource": {
        "resourceType": "Specimen",
        "id": "04a55bee-19ea-4ccb-9fdd-caa0268ffe57",
        "meta": {
          "profile": [
            "http://hl7.eu/fhir/laboratory/StructureDefinition/Specimen-eu-lab"
          ]
        },
        "collection": {
          "collectedDateTime": "2023-11-19"
        },
        "text": {
          "status": "generated",
          "div": "<div xmlns=\"http://www.w3.org/1999/xhtml\"><table class=\"hl7__eu__lab__report\"><tr><th>Specimen</th><th>Collection Date</th></tr><tr><td>Acellular blood (serum or plasma) specimen</td><td><span class=\"nb\">19-Nov-2023</span></td></tr></table></div>"
        },
        "type": {
          "coding": [
            {
              "code": "122592007",
              "system": "http://snomed.info/sct",
              "display": "Acellular blood (serum or plasma) specimen"
            }
          ]
        }
      }
    },
    {
      "fullUrl": "urn:uuid:671ef820-192b-418c-9d89-739529efc98c",
      "resource": {
        "resourceType": "Specimen",
        "id": "671ef820-192b-418c-9d89-739529efc98c",
        "meta": {
          "profile": [
            "http://hl7.eu/fhir/laboratory/StructureDefinition/Specimen-eu-lab"
          ]
        },
        "collection": {
          "collectedDateTime": "2023-11-19"
        },
        "text": {
          "status": "generated",
          "div": "<div xmlns=\"http://www.w3.org/1999/xhtml\"><table class=\"hl7__eu__lab__report\"><tr><th>Specimen</th><th>Collection Date</th></tr><tr><td>Serum specimen</td><td><span class=\"nb\">19-Nov-2023</span></td></tr></table></div>"
        },
        "type": {
          "coding": [
            {
              "code": "119364003",
              "system": "http://snomed.info/sct",
              "display": "Serum specimen"
            }
          ]
        }
      }
    },
    {
      "fullUrl": "urn:uuid:4855a145-13ea-43aa-a60a-864c39c2721d",
      "resource": {
        "resourceType": "Observation",
        "id": "4855a145-13ea-43aa-a60a-864c39c2721d",
        "meta": {
          "profile": [
            "http://hl7.eu/fhir/laboratory/StructureDefinition/Observation-resultslab-eu-lab"
          ]
        },
        "performer": [
          {
            "display": "The Central European Lab"
          }
        ],
        "category": [
          {
            "coding": [
              {
                "system": "http://terminology.hl7.org/CodeSystem/observation-category",
                "code": "laboratory"
              }
            ]
          }
        ],
        "code": {
          "coding": [
            {
              "code": "2339-0",
              "system": "http://loinc.org",
              "display": "Glucose [Mass/volume] in Blood"
            }
          ],
          "text": "Glucose [Mass/volume] in Blood"
        },
        "valueQuantity": {
          "system": "http://unitsofmeasure.org",
          "value": 94,
          "unit": "mg/dL",
          "code": "mg/dL"
        },
        "referenceRange": [
          {
            "low": {
              "value": 70,
              "code": "mg/dL",
              "system": "http://unitsofmeasure.org"
            }
          },
          {
            "high": {
              "value": 140,
              "code": "mg/dL",
              "system": "http://unitsofmeasure.org"
            }
          }
        ],
        "text": {
          "status": "generated",
          "div": "<div xmlns=\"http://www.w3.org/1999/xhtml\"><table class=\"hl7__eu__lab__report\"><tr><th>Test</th><th>19-Nov-2023</th><th>Reference&#xA0;Range</th><th>Unit</th></tr><tr><td>Glucose [Mass/volume] in Blood</td><td>94.0</td><td>70 - 140</td><td></td><td>mg/dL</td></tr></table></div>"
        },
        "status": "final",
        "subject": {
          "reference": "urn:uuid:8ff58083-03c1-4f14-ac4a-926f3729a23b",
          "display": "Helene Andresen"
        },
        "effectiveDateTime": "2023-11-19T22:53:36Z",
        "specimen": {
          "reference": "urn:uuid:404078cc-79b8-4730-b4f9-ccffd5d8f93d"
        }
      }
    },
    {
      "fullUrl": "urn:uuid:795aacad-5d16-4d2c-9d1f-931e4301c30a",
      "resource": {
        "resourceType": "Observation",
        "id": "795aacad-5d16-4d2c-9d1f-931e4301c30a",
        "meta": {
          "profile": [
            "http://hl7.eu/fhir/laboratory/StructureDefinition/Observation-resultslab-eu-lab"
          ]
        },
        "performer": [
          {
            "display": "The Central European Lab"
          }
        ],
        "category": [
          {
            "coding": [
              {
                "system": "http://terminology.hl7.org/CodeSystem/observation-category",
                "code": "laboratory"
              }
            ]
          }
        ],
        "code": {
          "coding": [
            {
              "code": "6299-2",
              "system": "http://loinc.org",
              "display": "Urea nitrogen [Mass/volume] in Blood"
            }
          ],
          "text": "Urea nitrogen [Mass/volume] in Blood"
        },
        "valueQuantity": {
          "system": "http://unitsofmeasure.org",
          "value": 12,
          "unit": "mg/dL",
          "code": "mg/dL"
        },
        "referenceRange": [
          {
            "low": {
              "value": 7,
              "code": "mg/dL",
              "system": "http://unitsofmeasure.org"
            }
          },
          {
            "high": {
              "value": 25,
              "code": "mg/dL",
              "system": "http://unitsofmeasure.org"
            }
          }
        ],
        "text": {
          "status": "generated",
          "div": "<div xmlns=\"http://www.w3.org/1999/xhtml\"><table class=\"hl7__eu__lab__report\"><tr><th>Test</th><th>19-Nov-2023</th><th>Reference&#xA0;Range</th><th>Unit</th></tr><tr><td>Urea nitrogen [Mass/volume] in Blood</td><td>12.0</td><td>7 - 25</td><td></td><td>mg/dL</td></tr></table></div>"
        },
        "status": "final",
        "subject": {
          "reference": "urn:uuid:8ff58083-03c1-4f14-ac4a-926f3729a23b",
          "display": "Helene Andresen"
        },
        "effectiveDateTime": "2023-11-19T22:53:36Z",
        "specimen": {
          "reference": "urn:uuid:404078cc-79b8-4730-b4f9-ccffd5d8f93d"
        }
      }
    },
    {
      "fullUrl": "urn:uuid:f4a04fe2-8294-4667-b200-b034d4df6f82",
      "resource": {
        "resourceType": "Observation",
        "id": "f4a04fe2-8294-4667-b200-b034d4df6f82",
        "meta": {
          "profile": [
            "http://hl7.eu/fhir/laboratory/StructureDefinition/Observation-resultslab-eu-lab"
          ]
        },
        "performer": [
          {
            "display": "The Central European Lab"
          }
        ],
        "category": [
          {
            "coding": [
              {
                "system": "http://terminology.hl7.org/CodeSystem/observation-category",
                "code": "laboratory"
              }
            ]
          }
        ],
        "code": {
          "coding": [
            {
              "code": "38483-4",
              "system": "http://loinc.org",
              "display": "Creatinine [Mass/volume] in Blood"
            }
          ],
          "text": "Creatinine [Mass/volume] in Blood"
        },
        "valueQuantity": {
          "system": "http://unitsofmeasure.org",
          "value": 3.1,
          "unit": "mg/dL",
          "code": "mg/dL"
        },
        "referenceRange": [
          {
            "low": {
              "value": 0.6,
              "code": "mg/dL",
              "system": "http://unitsofmeasure.org"
            }
          },
          {
            "high": {
              "value": 1.1,
              "code": "mg/dL",
              "system": "http://unitsofmeasure.org"
            }
          }
        ],
        "interpretation": [
          {
            "coding": [
              {
                "code": "H",
                "system": "http://terminology.hl7.org/CodeSystem/v3-ObservationInterpretation",
                "display": "High"
              }
            ]
          }
        ],
        "text": {
          "status": "generated",
          "div": "<div xmlns=\"http://www.w3.org/1999/xhtml\"><table class=\"hl7__eu__lab__report\"><tr><th>Test</th><th>19-Nov-2023</th><th>Reference&#xA0;Range</th><th>Unit</th></tr><tr><td>Creatinine [Mass/volume] in Blood</td><td>3.1</td><td>0.6 - 1.1</td><td>H</td><td>mg/dL</td></tr></table></div>"
        },
        "status": "final",
        "subject": {
          "reference": "urn:uuid:8ff58083-03c1-4f14-ac4a-926f3729a23b",
          "display": "Helene Andresen"
        },
        "effectiveDateTime": "2023-11-19T22:53:36Z",
        "specimen": {
          "reference": "urn:uuid:404078cc-79b8-4730-b4f9-ccffd5d8f93d"
        }
      }
    },
    {
      "fullUrl": "urn:uuid:b9de6dbf-df53-43e4-9027-9f792b6d2cb7",
      "resource": {
        "resourceType": "Observation",
        "id": "b9de6dbf-df53-43e4-9027-9f792b6d2cb7",
        "meta": {
          "profile": [
            "http://hl7.eu/fhir/laboratory/StructureDefinition/Observation-resultslab-eu-lab"
          ]
        },
        "performer": [
          {
            "display": "The Central European Lab"
          }
        ],
        "category": [
          {
            "coding": [
              {
                "system": "http://terminology.hl7.org/CodeSystem/observation-category",
                "code": "laboratory"
              }
            ]
          }
        ],
        "code": {
          "coding": [
            {
              "code": "49765-1",
              "system": "http://loinc.org",
              "display": "Calcium [Mass/volume] in Blood"
            }
          ],
          "text": "Calcium [Mass/volume] in Blood"
        },
        "valueQuantity": {
          "system": "http://unitsofmeasure.org",
          "value": 9,
          "unit": "mg/dL",
          "code": "mg/dL"
        },
        "referenceRange": [
          {
            "low": {
              "value": 8.6,
              "code": "mg/dL",
              "system": "http://unitsofmeasure.org"
            }
          },
          {
            "high": {
              "value": 10.4,
              "code": "mg/dL",
              "system": "http://unitsofmeasure.org"
            }
          }
        ],
        "text": {
          "status": "generated",
          "div": "<div xmlns=\"http://www.w3.org/1999/xhtml\"><table class=\"hl7__eu__lab__report\"><tr><th>Test</th><th>19-Nov-2023</th><th>Reference&#xA0;Range</th><th>Unit</th></tr><tr><td>Calcium [Mass/volume] in Blood</td><td>9.0</td><td>8.6 - 10.4</td><td></td><td>mg/dL</td></tr></table></div>"
        },
        "status": "final",
        "subject": {
          "reference": "urn:uuid:8ff58083-03c1-4f14-ac4a-926f3729a23b",
          "display": "Helene Andresen"
        },
        "effectiveDateTime": "2023-11-19T22:53:36Z",
        "specimen": {
          "reference": "urn:uuid:404078cc-79b8-4730-b4f9-ccffd5d8f93d"
        }
      }
    },
    {
      "fullUrl": "urn:uuid:06f680aa-7ecc-4d16-ba15-1d905c660a1b",
      "resource": {
        "resourceType": "Observation",
        "id": "06f680aa-7ecc-4d16-ba15-1d905c660a1b",
        "meta": {
          "profile": [
            "http://hl7.eu/fhir/laboratory/StructureDefinition/Observation-resultslab-eu-lab"
          ]
        },
        "performer": [
          {
            "display": "The Central European Lab"
          }
        ],
        "category": [
          {
            "coding": [
              {
                "system": "http://terminology.hl7.org/CodeSystem/observation-category",
                "code": "laboratory"
              }
            ]
          }
        ],
        "code": {
          "coding": [
            {
              "code": "2947-0",
              "system": "http://loinc.org",
              "display": "Sodium [Moles/volume] in Blood"
            }
          ],
          "text": "Sodium [Moles/volume] in Blood"
        },
        "valueQuantity": {
          "system": "http://unitsofmeasure.org",
          "value": 141,
          "unit": "mmol/L",
          "code": "mmol/L"
        },
        "referenceRange": [
          {
            "low": {
              "value": 135,
              "code": "mmol/L",
              "system": "http://unitsofmeasure.org"
            }
          },
          {
            "high": {
              "value": 145,
              "code": "mmol/L",
              "system": "http://unitsofmeasure.org"
            }
          }
        ],
        "text": {
          "status": "generated",
          "div": "<div xmlns=\"http://www.w3.org/1999/xhtml\"><table class=\"hl7__eu__lab__report\"><tr><th>Test</th><th>19-Nov-2023</th><th>Reference&#xA0;Range</th><th>Unit</th></tr><tr><td>Sodium [Moles/volume] in Blood</td><td>141.0</td><td>135 - 145</td><td></td><td>mmol/L</td></tr></table></div>"
        },
        "status": "final",
        "subject": {
          "reference": "urn:uuid:8ff58083-03c1-4f14-ac4a-926f3729a23b",
          "display": "Helene Andresen"
        },
        "effectiveDateTime": "2023-11-19T22:53:36Z",
        "specimen": {
          "reference": "urn:uuid:404078cc-79b8-4730-b4f9-ccffd5d8f93d"
        }
      }
    },
    {
      "fullUrl": "urn:uuid:887fae04-89bc-4406-b810-6db7d6677b03",
      "resource": {
        "resourceType": "Observation",
        "id": "887fae04-89bc-4406-b810-6db7d6677b03",
        "meta": {
          "profile": [
            "http://hl7.eu/fhir/laboratory/StructureDefinition/Observation-resultslab-eu-lab"
          ]
        },
        "performer": [
          {
            "display": "The Central European Lab"
          }
        ],
        "category": [
          {
            "coding": [
              {
                "system": "http://terminology.hl7.org/CodeSystem/observation-category",
                "code": "laboratory"
              }
            ]
          }
        ],
        "code": {
          "coding": [
            {
              "code": "6298-4",
              "system": "http://loinc.org",
              "display": "Potassium [Moles/volume] in Blood"
            }
          ],
          "text": "Potassium [Moles/volume] in Blood"
        },
        "valueQuantity": {
          "system": "http://unitsofmeasure.org",
          "value": 3.9,
          "unit": "mmol/L",
          "code": "mmol/L"
        },
        "referenceRange": [
          {
            "low": {
              "value": 3.5,
              "code": "mmol/L",
              "system": "http://unitsofmeasure.org"
            }
          },
          {
            "high": {
              "value": 5.3,
              "code": "mmol/L",
              "system": "http://unitsofmeasure.org"
            }
          }
        ],
        "text": {
          "status": "generated",
          "div": "<div xmlns=\"http://www.w3.org/1999/xhtml\"><table class=\"hl7__eu__lab__report\"><tr><th>Test</th><th>19-Nov-2023</th><th>Reference&#xA0;Range</th><th>Unit</th></tr><tr><td>Potassium [Moles/volume] in Blood</td><td>3.9</td><td>3.5 - 5.3</td><td></td><td>mmol/L</td></tr></table></div>"
        },
        "status": "final",
        "subject": {
          "reference": "urn:uuid:8ff58083-03c1-4f14-ac4a-926f3729a23b",
          "display": "Helene Andresen"
        },
        "effectiveDateTime": "2023-11-19T22:53:36Z",
        "specimen": {
          "reference": "urn:uuid:404078cc-79b8-4730-b4f9-ccffd5d8f93d"
        }
      }
    },
    {
      "fullUrl": "urn:uuid:780d2381-dc76-4f99-90cc-448db3a7e06c",
      "resource": {
        "resourceType": "Observation",
        "id": "780d2381-dc76-4f99-90cc-448db3a7e06c",
        "meta": {
          "profile": [
            "http://hl7.eu/fhir/laboratory/StructureDefinition/Observation-resultslab-eu-lab"
          ]
        },
        "performer": [
          {
            "display": "The Central European Lab"
          }
        ],
        "category": [
          {
            "coding": [
              {
                "system": "http://terminology.hl7.org/CodeSystem/observation-category",
                "code": "laboratory"
              }
            ]
          }
        ],
        "code": {
          "coding": [
            {
              "code": "2069-3",
              "system": "http://loinc.org",
              "display": "Chloride [Moles/volume] in Blood"
            }
          ],
          "text": "Chloride [Moles/volume] in Blood"
        },
        "valueQuantity": {
          "system": "http://unitsofmeasure.org",
          "value": 105.8,
          "unit": "mmol/L",
          "code": "mmol/L"
        },
        "referenceRange": [
          {
            "low": {
              "value": 98,
              "code": "mmol/L",
              "system": "http://unitsofmeasure.org"
            }
          },
          {
            "high": {
              "value": 108,
              "code": "mmol/L",
              "system": "http://unitsofmeasure.org"
            }
          }
        ],
        "text": {
          "status": "generated",
          "div": "<div xmlns=\"http://www.w3.org/1999/xhtml\"><table class=\"hl7__eu__lab__report\"><tr><th>Test</th><th>19-Nov-2023</th><th>Reference&#xA0;Range</th><th>Unit</th></tr><tr><td>Chloride [Moles/volume] in Blood</td><td>105.8</td><td>98 - 108</td><td></td><td>mmol/L</td></tr></table></div>"
        },
        "status": "final",
        "subject": {
          "reference": "urn:uuid:8ff58083-03c1-4f14-ac4a-926f3729a23b",
          "display": "Helene Andresen"
        },
        "effectiveDateTime": "2023-11-19T22:53:36Z",
        "specimen": {
          "reference": "urn:uuid:404078cc-79b8-4730-b4f9-ccffd5d8f93d"
        }
      }
    },
    {
      "fullUrl": "urn:uuid:c82e9410-8750-417f-b02b-4d6e4a3b56c4",
      "resource": {
        "resourceType": "Observation",
        "id": "c82e9410-8750-417f-b02b-4d6e4a3b56c4",
        "meta": {
          "profile": [
            "http://hl7.eu/fhir/laboratory/StructureDefinition/Observation-resultslab-eu-lab"
          ]
        },
        "performer": [
          {
            "display": "The Central European Lab"
          }
        ],
        "category": [
          {
            "coding": [
              {
                "system": "http://terminology.hl7.org/CodeSystem/observation-category",
                "code": "laboratory"
              }
            ]
          }
        ],
        "code": {
          "coding": [
            {
              "code": "20565-8",
              "system": "http://loinc.org",
              "display": "Carbon dioxide, total [Moles/volume] in Blood"
            }
          ],
          "text": "Carbon dioxide, total [Moles/volume] in Blood"
        },
        "valueQuantity": {
          "system": "http://unitsofmeasure.org",
          "value": 25,
          "unit": "mmol/L",
          "code": "mmol/L"
        },
        "referenceRange": [
          {
            "low": {
              "value": 22,
              "code": "mmol/L",
              "system": "http://unitsofmeasure.org"
            }
          },
          {
            "high": {
              "value": 32,
              "code": "mmol/L",
              "system": "http://unitsofmeasure.org"
            }
          }
        ],
        "text": {
          "status": "generated",
          "div": "<div xmlns=\"http://www.w3.org/1999/xhtml\"><table class=\"hl7__eu__lab__report\"><tr><th>Test</th><th>19-Nov-2023</th><th>Reference&#xA0;Range</th><th>Unit</th></tr><tr><td>Carbon dioxide, total [Moles/volume] in Blood</td><td>25.0</td><td>22 - 32</td><td></td><td>mmol/L</td></tr></table></div>"
        },
        "status": "final",
        "subject": {
          "reference": "urn:uuid:8ff58083-03c1-4f14-ac4a-926f3729a23b",
          "display": "Helene Andresen"
        },
        "effectiveDateTime": "2023-11-19T22:53:36Z",
        "specimen": {
          "reference": "urn:uuid:404078cc-79b8-4730-b4f9-ccffd5d8f93d"
        }
      }
    },
    {
      "fullUrl": "urn:uuid:67f12363-d7e1-432d-94e2-e96082fba4ec",
      "resource": {
        "resourceType": "Observation",
        "id": "67f12363-d7e1-432d-94e2-e96082fba4ec",
        "meta": {
          "profile": [
            "http://hl7.eu/fhir/laboratory/StructureDefinition/Observation-resultslab-eu-lab"
          ]
        },
        "performer": [
          {
            "display": "The Central European Lab"
          }
        ],
        "category": [
          {
            "coding": [
              {
                "system": "http://terminology.hl7.org/CodeSystem/observation-category",
                "code": "laboratory"
              }
            ]
          }
        ],
        "code": {
          "coding": [
            {
              "code": "2885-2",
              "system": "http://loinc.org",
              "display": "Protein [Mass/volume] in Serum or Plasma"
            }
          ],
          "text": "Protein [Mass/volume] in Serum or Plasma"
        },
        "valueQuantity": {
          "system": "http://unitsofmeasure.org",
          "value": 6.6,
          "unit": "g/dL",
          "code": "g/dL"
        },
        "referenceRange": [
          {
            "low": {
              "value": 6.6,
              "code": "g/dL",
              "system": "http://unitsofmeasure.org"
            }
          },
          {
            "high": {
              "value": 8.3,
              "code": "g/dL",
              "system": "http://unitsofmeasure.org"
            }
          }
        ],
        "text": {
          "status": "generated",
          "div": "<div xmlns=\"http://www.w3.org/1999/xhtml\"><table class=\"hl7__eu__lab__report\"><tr><th>Test</th><th>19-Nov-2023</th><th>Reference&#xA0;Range</th><th>Unit</th></tr><tr><td>Protein [Mass/volume] in Serum or Plasma</td><td>6.6</td><td>6.6 - 8.3</td><td></td><td>g/dL</td></tr></table></div>"
        },
        "status": "final",
        "subject": {
          "reference": "urn:uuid:8ff58083-03c1-4f14-ac4a-926f3729a23b",
          "display": "Helene Andresen"
        },
        "effectiveDateTime": "2023-11-19T22:53:36Z",
        "specimen": {
          "reference": "urn:uuid:04a55bee-19ea-4ccb-9fdd-caa0268ffe57"
        }
      }
    },
    {
      "fullUrl": "urn:uuid:a4567dbf-84d5-413c-8294-e8c8b18ce2da",
      "resource": {
        "resourceType": "Observation",
        "id": "a4567dbf-84d5-413c-8294-e8c8b18ce2da",
        "meta": {
          "profile": [
            "http://hl7.eu/fhir/laboratory/StructureDefinition/Observation-resultslab-eu-lab"
          ]
        },
        "performer": [
          {
            "display": "The Central European Lab"
          }
        ],
        "category": [
          {
            "coding": [
              {
                "system": "http://terminology.hl7.org/CodeSystem/observation-category",
                "code": "laboratory"
              }
            ]
          }
        ],
        "code": {
          "coding": [
            {
              "code": "1751-7",
              "system": "http://loinc.org",
              "display": "Albumin [Mass/volume] in Serum or Plasma"
            }
          ],
          "text": "Albumin [Mass/volume] in Serum or Plasma"
        },
        "valueQuantity": {
          "system": "http://unitsofmeasure.org",
          "value": 4.8,
          "unit": "g/dL",
          "code": "g/dL"
        },
        "referenceRange": [
          {
            "low": {
              "value": 3.5,
              "code": "g/dL",
              "system": "http://unitsofmeasure.org"
            }
          },
          {
            "high": {
              "value": 5.5,
              "code": "g/dL",
              "system": "http://unitsofmeasure.org"
            }
          }
        ],
        "text": {
          "status": "generated",
          "div": "<div xmlns=\"http://www.w3.org/1999/xhtml\"><table class=\"hl7__eu__lab__report\"><tr><th>Test</th><th>19-Nov-2023</th><th>Reference&#xA0;Range</th><th>Unit</th></tr><tr><td>Albumin [Mass/volume] in Serum or Plasma</td><td>4.8</td><td>3.5 - 5.5</td><td></td><td>g/dL</td></tr></table></div>"
        },
        "status": "final",
        "subject": {
          "reference": "urn:uuid:8ff58083-03c1-4f14-ac4a-926f3729a23b",
          "display": "Helene Andresen"
        },
        "effectiveDateTime": "2023-11-19T22:53:36Z",
        "specimen": {
          "reference": "urn:uuid:04a55bee-19ea-4ccb-9fdd-caa0268ffe57"
        }
      }
    },
    {
      "fullUrl": "urn:uuid:b1d5ddbd-b04b-4e59-addd-e296b002fd00",
      "resource": {
        "resourceType": "Observation",
        "id": "b1d5ddbd-b04b-4e59-addd-e296b002fd00",
        "meta": {
          "profile": [
            "http://hl7.eu/fhir/laboratory/StructureDefinition/Observation-resultslab-eu-lab"
          ]
        },
        "performer": [
          {
            "display": "The Central European Lab"
          }
        ],
        "category": [
          {
            "coding": [
              {
                "system": "http://terminology.hl7.org/CodeSystem/observation-category",
                "code": "laboratory"
              }
            ]
          }
        ],
        "code": {
          "coding": [
            {
              "code": "10834-0",
              "system": "http://loinc.org",
              "display": "Globulin [Mass/volume] in Serum by calculation"
            }
          ],
          "text": "Globulin [Mass/volume] in Serum by calculation"
        },
        "valueQuantity": {
          "system": "http://unitsofmeasure.org",
          "value": 2.1,
          "unit": "g/L",
          "code": "g/L"
        },
        "referenceRange": [
          {
            "low": {
              "value": 2.2,
              "code": "g/L",
              "system": "http://unitsofmeasure.org"
            }
          },
          {
            "high": {
              "value": 3.7,
              "code": "g/L",
              "system": "http://unitsofmeasure.org"
            }
          }
        ],
        "interpretation": [
          {
            "coding": [
              {
                "code": "L",
                "system": "http://terminology.hl7.org/CodeSystem/v3-ObservationInterpretation",
                "display": "Low"
              }
            ]
          }
        ],
        "text": {
          "status": "generated",
          "div": "<div xmlns=\"http://www.w3.org/1999/xhtml\"><table class=\"hl7__eu__lab__report\"><tr><th>Test</th><th>19-Nov-2023</th><th>Reference&#xA0;Range</th><th>Unit</th></tr><tr><td>Globulin [Mass/volume] in Serum by calculation</td><td>2.1</td><td>2.2 - 3.7</td><td>L</td><td>g/L</td></tr></table></div>"
        },
        "status": "final",
        "subject": {
          "reference": "urn:uuid:8ff58083-03c1-4f14-ac4a-926f3729a23b",
          "display": "Helene Andresen"
        },
        "effectiveDateTime": "2023-11-19T22:53:36Z",
        "specimen": {
          "reference": "urn:uuid:671ef820-192b-418c-9d89-739529efc98c"
        }
      }
    },
    {
      "fullUrl": "urn:uuid:6700e91d-ad8e-4f98-9f3c-706bea680af5",
      "resource": {
        "resourceType": "Observation",
        "id": "6700e91d-ad8e-4f98-9f3c-706bea680af5",
        "meta": {
          "profile": [
            "http://hl7.eu/fhir/laboratory/StructureDefinition/Observation-resultslab-eu-lab"
          ]
        },
        "performer": [
          {
            "display": "The Central European Lab"
          }
        ],
        "category": [
          {
            "coding": [
              {
                "system": "http://terminology.hl7.org/CodeSystem/observation-category",
                "code": "laboratory"
              }
            ]
          }
        ],
        "code": {
          "coding": [
            {
              "code": "1975-2",
              "system": "http://loinc.org",
              "display": "Bilirubin.total [Mass/volume] in Serum or Plasma"
            }
          ],
          "text": "Bilirubin.total [Mass/volume] in Serum or Plasma"
        },
        "valueQuantity": {
          "system": "http://unitsofmeasure.org",
          "value": 0.5,
          "unit": "mg/dL",
          "code": "mg/dL"
        },
        "referenceRange": [
          {
            "low": {
              "value": 0.3,
              "code": "mg/dL",
              "system": "http://unitsofmeasure.org"
            }
          },
          {
            "high": {
              "value": 1.2,
              "code": "mg/dL",
              "system": "http://unitsofmeasure.org"
            }
          }
        ],
        "text": {
          "status": "generated",
          "div": "<div xmlns=\"http://www.w3.org/1999/xhtml\"><table class=\"hl7__eu__lab__report\"><tr><th>Test</th><th>19-Nov-2023</th><th>Reference&#xA0;Range</th><th>Unit</th></tr><tr><td>Bilirubin.total [Mass/volume] in Serum or Plasma</td><td>0.5</td><td>0.3 - 1.2</td><td></td><td>mg/dL</td></tr></table></div>"
        },
        "status": "final",
        "subject": {
          "reference": "urn:uuid:8ff58083-03c1-4f14-ac4a-926f3729a23b",
          "display": "Helene Andresen"
        },
        "effectiveDateTime": "2023-11-19T22:53:36Z",
        "specimen": {
          "reference": "urn:uuid:04a55bee-19ea-4ccb-9fdd-caa0268ffe57"
        }
      }
    },
    {
      "fullUrl": "urn:uuid:06e499fc-8d1f-44b1-91e2-9a45898ba207",
      "resource": {
        "resourceType": "Observation",
        "id": "06e499fc-8d1f-44b1-91e2-9a45898ba207",
        "meta": {
          "profile": [
            "http://hl7.eu/fhir/laboratory/StructureDefinition/Observation-resultslab-eu-lab"
          ]
        },
        "performer": [
          {
            "display": "The Central European Lab"
          }
        ],
        "category": [
          {
            "coding": [
              {
                "system": "http://terminology.hl7.org/CodeSystem/observation-category",
                "code": "laboratory"
              }
            ]
          }
        ],
        "code": {
          "coding": [
            {
              "code": "6768-6",
              "system": "http://loinc.org",
              "display": "Alkaline phosphatase [Enzymatic activity/volume] in Serum or Plasma"
            }
          ],
          "text": "Alkaline phosphatase [Enzymatic activity/volume] in Serum or Plasma"
        },
        "valueQuantity": {
          "system": "http://unitsofmeasure.org",
          "value": 110.3,
          "unit": "U/L",
          "code": "U/L"
        },
        "referenceRange": [
          {
            "low": {
              "value": 40,
              "code": "U/L",
              "system": "http://unitsofmeasure.org"
            }
          },
          {
            "high": {
              "value": 130,
              "code": "U/L",
              "system": "http://unitsofmeasure.org"
            }
          }
        ],
        "text": {
          "status": "generated",
          "div": "<div xmlns=\"http://www.w3.org/1999/xhtml\"><table class=\"hl7__eu__lab__report\"><tr><th>Test</th><th>19-Nov-2023</th><th>Reference&#xA0;Range</th><th>Unit</th></tr><tr><td>Alkaline phosphatase [Enzymatic activity/volume] in Serum or Plasma</td><td>110.3</td><td>40 - 130</td><td></td><td>U/L</td></tr></table></div>"
        },
        "status": "final",
        "subject": {
          "reference": "urn:uuid:8ff58083-03c1-4f14-ac4a-926f3729a23b",
          "display": "Helene Andresen"
        },
        "effectiveDateTime": "2023-11-19T22:53:36Z",
        "specimen": {
          "reference": "urn:uuid:04a55bee-19ea-4ccb-9fdd-caa0268ffe57"
        }
      }
    },
    {
      "fullUrl": "urn:uuid:feede5f2-6e2a-4f0a-88cb-ebe15f418c15",
      "resource": {
        "resourceType": "Observation",
        "id": "feede5f2-6e2a-4f0a-88cb-ebe15f418c15",
        "meta": {
          "profile": [
            "http://hl7.eu/fhir/laboratory/StructureDefinition/Observation-resultslab-eu-lab"
          ]
        },
        "performer": [
          {
            "display": "The Central European Lab"
          }
        ],
        "category": [
          {
            "coding": [
              {
                "system": "http://terminology.hl7.org/CodeSystem/observation-category",
                "code": "laboratory"
              }
            ]
          }
        ],
        "code": {
          "coding": [
            {
              "code": "1742-6",
              "system": "http://loinc.org",
              "display": "Alanine aminotransferase [Enzymatic activity/volume] in Serum or Plasma"
            }
          ],
          "text": "Alanine aminotransferase [Enzymatic activity/volume] in Serum or Plasma"
        },
        "valueQuantity": {
          "system": "http://unitsofmeasure.org",
          "value": 54.3,
          "unit": "U/L",
          "code": "U/L"
        },
        "referenceRange": [
          {
            "low": {
              "value": 7,
              "code": "U/L",
              "system": "http://unitsofmeasure.org"
            }
          },
          {
            "high": {
              "value": 55,
              "code": "U/L",
              "system": "http://unitsofmeasure.org"
            }
          }
        ],
        "text": {
          "status": "generated",
          "div": "<div xmlns=\"http://www.w3.org/1999/xhtml\"><table class=\"hl7__eu__lab__report\"><tr><th>Test</th><th>19-Nov-2023</th><th>Reference&#xA0;Range</th><th>Unit</th></tr><tr><td>Alanine aminotransferase [Enzymatic activity/volume] in Serum or Plasma</td><td>54.3</td><td>7 - 55</td><td></td><td>U/L</td></tr></table></div>"
        },
        "status": "final",
        "subject": {
          "reference": "urn:uuid:8ff58083-03c1-4f14-ac4a-926f3729a23b",
          "display": "Helene Andresen"
        },
        "effectiveDateTime": "2023-11-19T22:53:36Z",
        "specimen": {
          "reference": "urn:uuid:04a55bee-19ea-4ccb-9fdd-caa0268ffe57"
        }
      }
    },
    {
      "fullUrl": "urn:uuid:32519d98-dfd3-41e6-8500-3569cb0adab0",
      "resource": {
        "resourceType": "Observation",
        "id": "32519d98-dfd3-41e6-8500-3569cb0adab0",
        "meta": {
          "profile": [
            "http://hl7.eu/fhir/laboratory/StructureDefinition/Observation-resultslab-eu-lab"
          ]
        },
        "performer": [
          {
            "display": "The Central European Lab"
          }
        ],
        "category": [
          {
            "coding": [
              {
                "system": "http://terminology.hl7.org/CodeSystem/observation-category",
                "code": "laboratory"
              }
            ]
          }
        ],
        "code": {
          "coding": [
            {
              "code": "1920-8",
              "system": "http://loinc.org",
              "display": "Aspartate aminotransferase [Enzymatic activity/volume] in Serum or Plasma"
            }
          ],
          "text": "Aspartate aminotransferase [Enzymatic activity/volume] in Serum or Plasma"
        },
        "valueQuantity": {
          "system": "http://unitsofmeasure.org",
          "value": 24.4,
          "unit": "U/L",
          "code": "U/L"
        },
        "referenceRange": [
          {
            "low": {
              "value": 10,
              "code": "U/L",
              "system": "http://unitsofmeasure.org"
            }
          },
          {
            "high": {
              "value": 40,
              "code": "U/L",
              "system": "http://unitsofmeasure.org"
            }
          }
        ],
        "text": {
          "status": "generated",
          "div": "<div xmlns=\"http://www.w3.org/1999/xhtml\"><table class=\"hl7__eu__lab__report\"><tr><th>Test</th><th>19-Nov-2023</th><th>Reference&#xA0;Range</th><th>Unit</th></tr><tr><td>Aspartate aminotransferase [Enzymatic activity/volume] in Serum or Plasma</td><td>24.4</td><td>10 - 40</td><td></td><td>U/L</td></tr></table></div>"
        },
        "status": "final",
        "subject": {
          "reference": "urn:uuid:8ff58083-03c1-4f14-ac4a-926f3729a23b",
          "display": "Helene Andresen"
        },
        "effectiveDateTime": "2023-11-19T22:53:36Z",
        "specimen": {
          "reference": "urn:uuid:04a55bee-19ea-4ccb-9fdd-caa0268ffe57"
        }
      }
    },
    {
      "fullUrl": "urn:uuid:eaa0502d-d23c-47fc-b3a3-1dca26f19eaa",
      "resource": {
        "resourceType": "Observation",
        "id": "eaa0502d-d23c-47fc-b3a3-1dca26f19eaa",
        "meta": {
          "profile": [
            "http://hl7.eu/fhir/laboratory/StructureDefinition/Observation-resultslab-eu-lab"
          ]
        },
        "performer": [
          {
            "display": "The Central European Lab"
          }
        ],
        "category": [
          {
            "coding": [
              {
                "system": "http://terminology.hl7.org/CodeSystem/observation-category",
                "code": "laboratory"
              }
            ]
          }
        ],
        "code": {
          "coding": [
            {
              "code": "2093-3",
              "system": "http://loinc.org",
              "display": "Cholesterol [Mass/volume] in Serum or Plasma"
            }
          ],
          "text": "Cholesterol [Mass/volume] in Serum or Plasma"
        },
        "valueQuantity": {
          "system": "http://unitsofmeasure.org",
          "value": 200.4,
          "unit": "mg/dL",
          "code": "mg/dL"
        },
        "referenceRange": [
          {
            "low": {
              "value": 125,
              "code": "mg/dL",
              "system": "http://unitsofmeasure.org"
            }
          },
          {
            "high": {
              "value": 200,
              "code": "mg/dL",
              "system": "http://unitsofmeasure.org"
            }
          }
        ],
        "interpretation": [
          {
            "coding": [
              {
                "code": "H",
                "system": "http://terminology.hl7.org/CodeSystem/v3-ObservationInterpretation",
                "display": "High"
              }
            ]
          }
        ],
        "text": {
          "status": "generated",
          "div": "<div xmlns=\"http://www.w3.org/1999/xhtml\"><table class=\"hl7__eu__lab__report\"><tr><th>Test</th><th>19-Nov-2023</th><th>Reference&#xA0;Range</th><th>Unit</th></tr><tr><td>Cholesterol [Mass/volume] in Serum or Plasma</td><td>200.4</td><td>125 - 200</td><td>H</td><td>mg/dL</td></tr></table></div>"
        },
        "status": "final",
        "subject": {
          "reference": "urn:uuid:8ff58083-03c1-4f14-ac4a-926f3729a23b",
          "display": "Helene Andresen"
        },
        "effectiveDateTime": "2023-11-19T22:53:36Z",
        "specimen": {
          "reference": "urn:uuid:04a55bee-19ea-4ccb-9fdd-caa0268ffe57"
        }
      }
    },
    {
      "fullUrl": "urn:uuid:c02039d2-7ce8-4fe4-860c-b3fde6016daf",
      "resource": {
        "resourceType": "Observation",
        "id": "c02039d2-7ce8-4fe4-860c-b3fde6016daf",
        "meta": {
          "profile": [
            "http://hl7.eu/fhir/laboratory/StructureDefinition/Observation-resultslab-eu-lab"
          ]
        },
        "performer": [
          {
            "display": "The Central European Lab"
          }
        ],
        "category": [
          {
            "coding": [
              {
                "system": "http://terminology.hl7.org/CodeSystem/observation-category",
                "code": "laboratory"
              }
            ]
          }
        ],
        "code": {
          "coding": [
            {
              "code": "2571-8",
              "system": "http://loinc.org",
              "display": "Triglyceride [Mass/volume] in Serum or Plasma"
            }
          ],
          "text": "Triglyceride [Mass/volume] in Serum or Plasma"
        },
        "valueQuantity": {
          "system": "http://unitsofmeasure.org",
          "value": 170.9,
          "unit": "mg/dL",
          "code": "mg/dL"
        },
        "referenceRange": [
          {
            "low": {
              "value": 10,
              "code": "mg/dL",
              "system": "http://unitsofmeasure.org"
            }
          },
          {
            "high": {
              "value": 175,
              "code": "mg/dL",
              "system": "http://unitsofmeasure.org"
            }
          }
        ],
        "text": {
          "status": "generated",
          "div": "<div xmlns=\"http://www.w3.org/1999/xhtml\"><table class=\"hl7__eu__lab__report\"><tr><th>Test</th><th>19-Nov-2023</th><th>Reference&#xA0;Range</th><th>Unit</th></tr><tr><td>Triglyceride [Mass/volume] in Serum or Plasma</td><td>170.9</td><td>10 - 175</td><td></td><td>mg/dL</td></tr></table></div>"
        },
        "status": "final",
        "subject": {
          "reference": "urn:uuid:8ff58083-03c1-4f14-ac4a-926f3729a23b",
          "display": "Helene Andresen"
        },
        "effectiveDateTime": "2023-11-19T22:53:36Z",
        "specimen": {
          "reference": "urn:uuid:04a55bee-19ea-4ccb-9fdd-caa0268ffe57"
        }
      }
    },
    {
      "fullUrl": "urn:uuid:d3cbc3e8-d9fd-4aad-996f-419cd12f1b9a",
      "resource": {
        "resourceType": "Observation",
        "id": "d3cbc3e8-d9fd-4aad-996f-419cd12f1b9a",
        "meta": {
          "profile": [
            "http://hl7.eu/fhir/laboratory/StructureDefinition/Observation-resultslab-eu-lab"
          ]
        },
        "performer": [
          {
            "display": "The Central European Lab"
          }
        ],
        "category": [
          {
            "coding": [
              {
                "system": "http://terminology.hl7.org/CodeSystem/observation-category",
                "code": "laboratory"
              }
            ]
          }
        ],
        "code": {
          "coding": [
            {
              "code": "18262-6",
              "system": "http://loinc.org",
              "display": "Cholesterol in LDL [Mass/volume] in Serum or Plasma by Direct assay"
            }
          ],
          "text": "Cholesterol in LDL [Mass/volume] in Serum or Plasma by Direct assay"
        },
        "valueQuantity": {
          "system": "http://unitsofmeasure.org",
          "value": 130.8,
          "unit": "mg/dL",
          "code": "mg/dL"
        },
        "referenceRange": [
          {
            "low": {
              "value": 0,
              "code": "mg/dL",
              "system": "http://unitsofmeasure.org"
            }
          },
          {
            "high": {
              "value": 130,
              "code": "mg/dL",
              "system": "http://unitsofmeasure.org"
            }
          }
        ],
        "interpretation": [
          {
            "coding": [
              {
                "code": "H",
                "system": "http://terminology.hl7.org/CodeSystem/v3-ObservationInterpretation",
                "display": "High"
              }
            ]
          }
        ],
        "text": {
          "status": "generated",
          "div": "<div xmlns=\"http://www.w3.org/1999/xhtml\"><table class=\"hl7__eu__lab__report\"><tr><th>Test</th><th>19-Nov-2023</th><th>Reference&#xA0;Range</th><th>Unit</th></tr><tr><td>Cholesterol in LDL [Mass/volume] in Serum or Plasma by Direct assay</td><td>130.8</td><td>0 - 130</td><td>H</td><td>mg/dL</td></tr></table></div>"
        },
        "status": "final",
        "subject": {
          "reference": "urn:uuid:8ff58083-03c1-4f14-ac4a-926f3729a23b",
          "display": "Helene Andresen"
        },
        "effectiveDateTime": "2023-11-19T22:53:36Z",
        "specimen": {
          "reference": "urn:uuid:04a55bee-19ea-4ccb-9fdd-caa0268ffe57"
        }
      }
    },
    {
      "fullUrl": "urn:uuid:48e3dd36-587b-44cc-add8-181c92c6c871",
      "resource": {
        "resourceType": "Observation",
        "id": "48e3dd36-587b-44cc-add8-181c92c6c871",
        "meta": {
          "profile": [
            "http://hl7.eu/fhir/laboratory/StructureDefinition/Observation-resultslab-eu-lab"
          ]
        },
        "performer": [
          {
            "display": "The Central European Lab"
          }
        ],
        "category": [
          {
            "coding": [
              {
                "system": "http://terminology.hl7.org/CodeSystem/observation-category",
                "code": "laboratory"
              }
            ]
          }
        ],
        "code": {
          "coding": [
            {
              "code": "2085-9",
              "system": "http://loinc.org",
              "display": "Cholesterol in HDL [Mass/volume] in Serum or Plasma"
            }
          ],
          "text": "Cholesterol in HDL [Mass/volume] in Serum or Plasma"
        },
        "valueQuantity": {
          "system": "http://unitsofmeasure.org",
          "value": 61.8,
          "unit": "mg/dL",
          "code": "mg/dL"
        },
        "referenceRange": [
          {
            "low": {
              "value": 50,
              "code": "mg/dL",
              "system": "http://unitsofmeasure.org"
            }
          },
          {
            "high": {
              "value": 100,
              "code": "mg/dL",
              "system": "http://unitsofmeasure.org"
            }
          }
        ],
        "text": {
          "status": "generated",
          "div": "<div xmlns=\"http://www.w3.org/1999/xhtml\"><table class=\"hl7__eu__lab__report\"><tr><th>Test</th><th>19-Nov-2023</th><th>Reference&#xA0;Range</th><th>Unit</th></tr><tr><td>Cholesterol in HDL [Mass/volume] in Serum or Plasma</td><td>61.8</td><td>50 - 100</td><td></td><td>mg/dL</td></tr></table></div>"
        },
        "status": "final",
        "subject": {
          "reference": "urn:uuid:8ff58083-03c1-4f14-ac4a-926f3729a23b",
          "display": "Helene Andresen"
        },
        "effectiveDateTime": "2023-11-19T22:53:36Z",
        "specimen": {
          "reference": "urn:uuid:04a55bee-19ea-4ccb-9fdd-caa0268ffe57"
        }
      }
    },
    {
      "fullUrl": "urn:uuid:aefb192c-9b33-4a8b-a7cb-14b43289adf0",
      "resource": {
        "resourceType": "Device",
        "id": "aefb192c-9b33-4a8b-a7cb-14b43289adf0",
        "deviceName": [
          {
            "name": "SYNDERAI Synthetic Generator",
            "type": "manufacturer-name"
          }
        ],
        "version": [
          {
            "value": "5.0"
          }
        ],
        "text": {
          "status": "generated",
          "div": "<div xmlns=\"http://www.w3.org/1999/xhtml\">SYNDERAI Synthetic Generator v5.0</div>"
        },
        "status": "active\"",
        "distinctIdentifier": "synderai-generator-50",
        "manufacturer": "SYNDERAI Project"
      }
    },
    {
      "fullUrl": "urn:uuid:596a2ff9-1326-453d-86d9-cfcca664b82a",
      "resource": {
        "resourceType": "Provenance",
        "id": "596a2ff9-1326-453d-86d9-cfcca664b82a",
        "target": [
          {
            "reference": "Patient/8ff58083-03c1-4f14-ac4a-926f3729a23b"
          },
          {
            "reference": "Bundle/cdbc794b-33f4-40ec-bdbd-c9ce62330370"
          },
          {
            "reference": "Composition/cacd384e-4b0c-4db5-893d-c58cd279c8b5"
          },
          {
            "reference": "PractitionerRole/0a2fb300-bd4f-4281-9d1c-76c652d4e215"
          },
          {
            "reference": "Practitioner/a4166081-7fae-4762-81fa-927be142449f"
          },
          {
            "reference": "PractitionerRole/67c73327-0880-4906-a43a-14748c7700a6"
          },
          {
            "reference": "Organization/0ecdd853-aaf3-485e-9a2f-0917b770e58d"
          }
        ],
        "activity": {
          "text": "Synthetic Example Data Generation"
        },
        "policy": [
          "https://synderai.net/synderai-synthetic-data-policy"
        ],
        "agent": [
          {
            "type": {
              "text": "author"
            },
            "who": {
              "reference": "Device/aefb192c-9b33-4a8b-a7cb-14b43289adf0"
            }
          }
        ],
        "reason": [
          {
            "text": "Interoperability Testing and Training (non-clinical use)"
          }
        ],
        "text": {
          "status": "generated",
          "div": "<div xmlns=\"http://www.w3.org/1999/xhtml\">Provenance for SYNDERAI Synthetic Example Data Resource</div>"
        },
        "recorded": "2023-11-19T23:53:36Z"
      }
    },
    {
      "fullUrl": "urn:uuid:0a2fb300-bd4f-4281-9d1c-76c652d4e215",
      "resource": {
        "resourceType": "PractitionerRole",
        "id": "0a2fb300-bd4f-4281-9d1c-76c652d4e215",
        "meta": {
          "profile": [
            "http://hl7.eu/fhir/base/StructureDefinition/practitionerRole-eu"
          ]
        },
        "text": {
          "status": "generated",
          "div": "<div xmlns=\"http://www.w3.org/1999/xhtml\">Laboratory Role Id: 0a2fb300-bd4f-4281-9d1c-76c652d4e215</div>"
        },
        "practitioner": {
          "reference": "urn:uuid:a4166081-7fae-4762-81fa-927be142449f"
        }
      }
    },
    {
      "fullUrl": "urn:uuid:a4166081-7fae-4762-81fa-927be142449f",
      "resource": {
        "resourceType": "Practitioner",
        "id": "a4166081-7fae-4762-81fa-927be142449f",
        "meta": {
          "profile": [
            "http://hl7.eu/fhir/base/StructureDefinition/practitioner-eu"
          ]
        },
        "identifier": [
          {
            "assigner": {
              "display": "HL7 Europe"
            },
            "system": "urn:oid:2.16.840.1.113883.2.51.999",
            "value": "8012771b-f9ce-40f5-a1c6-89821e4b76b0"
          }
        ],
        "name": [
          {
            "prefix": [
              "dr"
            ],
            "given": [
              "Ex"
            ],
            "family": "Ample"
          }
        ],
        "address": [
          {
            "line": [
              "Laboratoire Central Européenne",
              "Boulevard du Jardin Botanique 32"
            ],
            "postalCode": "1000",
            "city": "Brussels",
            "country": "Belgium"
          }
        ],
        "text": {
          "status": "generated",
          "div": "<div xmlns=\"http://www.w3.org/1999/xhtml\">Laboratory: Laboratoire Central Européenne, 1000 Brussels, Belgium</div>"
        }
      }
    }
  ],
  "type": "document",
  "timestamp": "2023-11-19T23:53:36Z"
}
