{
  "resourceType": "Bundle",
  "id": "164884b3-f7dc-4654-9bcd-02f3523daa43",
  "meta": {
    "profile": [
      "http://hl7.eu/fhir/laboratory/StructureDefinition/Bundle-eu-lab"
    ]
  },
  "identifier": {
    "assigner": {
      "display": "HL7 Europe"
    },
    "system": "urn:oid:2.16.840.1.113883.2.51.999",
    "value": "ece70aef-e97f-4a78-9ecf-59ab1e83967d"
  },
  "entry": [
    {
      "fullUrl": "urn:uuid:047f02d0-68c2-491d-af9c-97904c95dda0",
      "resource": {
        "resourceType": "Composition",
        "id": "047f02d0-68c2-491d-af9c-97904c95dda0",
        "meta": {
          "profile": [
            "http://hl7.eu/fhir/laboratory/StructureDefinition/Composition-eu-lab"
          ]
        },
        "identifier": {
          "assigner": {
            "display": "HL7 Europe"
          },
          "system": "urn:oid:2.16.840.1.113883.2.51.999",
          "value": "32c48b2a-4597-4fd3-8183-8e82b8f19f43"
        },
        "author": [
          {
            "reference": "urn:uuid:4e6d525f-a514-4426-977a-1ca9eeba1029"
          }
        ],
        "category": [
          {
            "coding": [
              {
                "code": "26436-6",
                "system": "http://loinc.org",
                "display": "Laboratory studies (set)"
              }
            ]
          }
        ],
        "type": {
          "coding": [
            {
              "code": "11502-2",
              "system": "http://loinc.org",
              "display": "Laboratory report"
            }
          ],
          "text": "Laboratory Report"
        },
        "section": [
          {
            "code": {
              "coding": [
                {
                  "code": "26436-6",
                  "system": "http://loinc.org",
                  "display": "Laboratory studies (set)"
                }
              ],
              "text": "Laboratory studies"
            },
            "section": [
              {
                "code": {
                  "coding": [
                    {
                      "code": "$18719-5",
                      "system": "http://loinc.org",
                      "display": "Chemistry studies (set)"
                    }
                  ],
                  "text": "Chemistry"
                },
                "entry": [
                  {
                    "reference": "urn:uuid:684af4bd-4c31-44ce-9130-0d0b6d1cf641"
                  },
                  {
                    "reference": "urn:uuid:ec62b9f5-cb1e-4d89-95df-f50663dfe508"
                  },
                  {
                    "reference": "urn:uuid:c1a68099-2d7e-40c5-985b-4fe8b542f3b9"
                  },
                  {
                    "reference": "urn:uuid:bab3aae6-b977-4471-9519-b9c20ddfc2fa"
                  },
                  {
                    "reference": "urn:uuid:5d48e467-1c4f-41cf-b276-d3e17d09594d"
                  },
                  {
                    "reference": "urn:uuid:a5f0b4b8-0a9a-4e6a-8706-02a5cc7101d4"
                  },
                  {
                    "reference": "urn:uuid:853a96b1-3f01-4fed-80cf-c5e2619b1e7f"
                  },
                  {
                    "reference": "urn:uuid:02513e5e-9d45-4438-912f-3ed96b305f4c"
                  },
                  {
                    "reference": "urn:uuid:9a8e4582-6dc5-45de-867b-26bf5263398c"
                  },
                  {
                    "reference": "urn:uuid:15fd3c90-2821-47fb-8215-3ac370ae0e0e"
                  },
                  {
                    "reference": "urn:uuid:52b0c7d0-9fd4-4e8b-8683-a7a508d63486"
                  },
                  {
                    "reference": "urn:uuid:8d9d100e-82ae-4726-a320-b7474da1704c"
                  },
                  {
                    "reference": "urn:uuid:126149b2-cd97-4f8b-8df8-2f41ba7d1fce"
                  },
                  {
                    "reference": "urn:uuid:aeff163e-c6f3-4724-a765-fee1d0ad38d1"
                  },
                  {
                    "reference": "urn:uuid:a1a222b6-852b-431c-a256-abe7b4c4ac2d"
                  },
                  {
                    "reference": "urn:uuid:67c1cef2-ad4b-4e69-ba12-ad622b8c6075"
                  },
                  {
                    "reference": "urn:uuid:59fbcce3-e98b-478b-8dce-b8f470c3fae2"
                  },
                  {
                    "reference": "urn:uuid:d67b2524-0329-46dd-9ddc-c3e3e94cba7b"
                  }
                ],
                "text": {
                  "status": "generated",
                  "div": "<div xmlns=\"http://www.w3.org/1999/xhtml\"><h3>Chemistry</h3><table class=\"hl7__eu__lab__report\"><thead><tr><th>Test</th><th>14-MAR-2025</th><th>Reference&#xA0;Range</th><th>Unit</th></tr></thead><tbody><tr><td>Glucose [Mass/volume] in Serum or Plasma</td><td>81.1</td><td>70 - 140</td><td>mg/dL</td></tr><tr><td>Urea nitrogen [Mass/volume] in Serum or Plasma</td><td>19.9</td><td>7 - 20</td><td>mg/dL</td></tr><tr><td>Creatinine [Mass/volume] in Serum or Plasma</td><td><strong>1.9 H</strong></td><td>0.9 - 1.3</td><td>mg/dL</td></tr><tr><td>Calcium [Mass/volume] in Serum or Plasma</td><td>9.6</td><td>8.5 - 10.5</td><td>mg/dL</td></tr><tr><td>Sodium [Moles/volume] in Serum or Plasma</td><td>137.2</td><td>135 - 145</td><td>mmol/L</td></tr><tr><td>Potassium [Moles/volume] in Serum or Plasma</td><td>4.0</td><td>3.5 - 5.3</td><td>mmol/L</td></tr><tr><td>Chloride [Moles/volume] in Serum or Plasma</td><td>105.0</td><td>98 - 107</td><td>mmol/L</td></tr><tr><td>Carbon dioxide, total [Moles/volume] in Serum or Plasma</td><td>28.8</td><td>22 - 33</td><td>mmol/L</td></tr><tr><td>Ketones [Presence] in Urine by Test strip</td><td>Urine ketone test = ++</td><td></td><td></td></tr><tr><td>Hemoglobin A1c/Hemoglobin.total in Blood</td><td><strong>3.4 L</strong></td><td>4.3 - 6</td><td>%</td></tr><tr><td>Glucose [Mass/volume] in Blood</td><td>81.1</td><td>70 - 140</td><td>mg/dL</td></tr><tr><td>Urea nitrogen [Mass/volume] in Blood</td><td>19.9</td><td>7 - 20</td><td>mg/dL</td></tr><tr><td>Creatinine [Mass/volume] in Blood</td><td><strong>3.5 H</strong></td><td>0.9 - 1.3</td><td>mg/dL</td></tr><tr><td>Calcium [Mass/volume] in Blood</td><td>9.6</td><td>8.5 - 10.5</td><td>mg/dL</td></tr><tr><td>Sodium [Moles/volume] in Blood</td><td>137.2</td><td>135 - 145</td><td>mmol/L</td></tr><tr><td>Potassium [Moles/volume] in Blood</td><td>4.0</td><td>3.5 - 5.1</td><td>mmol/L</td></tr><tr><td>Chloride [Moles/volume] in Blood</td><td>105.0</td><td>98 - 108</td><td>mmol/L</td></tr><tr><td>Carbon dioxide, total [Moles/volume] in Blood</td><td>28.8</td><td>22 - 29</td><td>mmol/L</td></tr></tbody></table></div>"
                },
                "title": "Chemistry"
              },
              {
                "code": {
                  "coding": [
                    {
                      "code": "$18729-4",
                      "system": "http://loinc.org",
                      "display": "Urinalysis studies (set)"
                    }
                  ],
                  "text": "Urinalysis"
                },
                "entry": [
                  {
                    "reference": "urn:uuid:461f1d11-8ec6-4990-9828-7d95400582ba"
                  },
                  {
                    "reference": "urn:uuid:2271f6fd-a149-430a-b29b-2172394ffbba"
                  },
                  {
                    "reference": "urn:uuid:efa9e8f5-ce52-4bde-9737-a37e49903af7"
                  },
                  {
                    "reference": "urn:uuid:96e99dbe-1d0d-4f85-be00-7563dde6c07b"
                  },
                  {
                    "reference": "urn:uuid:2a473079-d179-456c-b895-69da76f8c022"
                  },
                  {
                    "reference": "urn:uuid:3a6f0015-20c9-4373-966e-141e855db0a9"
                  },
                  {
                    "reference": "urn:uuid:4807e6db-753a-48b1-b0bc-e654e896db83"
                  },
                  {
                    "reference": "urn:uuid:d4789f20-5b4d-4467-93c5-a0ee9140009a"
                  },
                  {
                    "reference": "urn:uuid:3376943e-7f9b-454b-8f5d-f38e37694c51"
                  },
                  {
                    "reference": "urn:uuid:833427df-e85b-4012-97c0-3a75e54bb895"
                  },
                  {
                    "reference": "urn:uuid:204716f6-974c-472f-b92a-71ddef1f627b"
                  },
                  {
                    "reference": "urn:uuid:ba796440-cae4-46b2-886a-4e7502a95e00"
                  }
                ],
                "text": {
                  "status": "generated",
                  "div": "<div xmlns=\"http://www.w3.org/1999/xhtml\"><h3>Urinalysis</h3><table class=\"hl7__eu__lab__report\"><thead><tr><th>Test</th><th>14-MAR-2025</th><th>Reference&#xA0;Range</th><th>Unit</th></tr></thead><tbody><tr><td>Glucose [Mass/volume] in Urine by Test strip</td><td>0.7</td><td>0 - 0.8</td><td>mg/dL</td></tr><tr><td>Glucose [Presence] in Urine by Test strip</td><td>++</td><td></td><td></td></tr><tr><td>Bilirubin.total [Mass/volume] in Urine by Test strip</td><td>0.9</td><td>0 - 1.9</td><td>mg/dL</td></tr><tr><td>Bilirubin.total [Presence] in Urine by Test strip</td><td>Finding of bilirubin in urine</td><td></td><td></td></tr><tr><td>Ketones [Mass/volume] in Urine by Test strip</td><td><strong>12.5 H</strong></td><td>0 - 3</td><td>mg/dL</td></tr><tr><td>Specific gravity of Urine by Test strip</td><td><strong>1.0 L</strong></td><td>1.01 - 1.03</td><td>{nominal}</td></tr><tr><td>pH of Urine by Test strip</td><td>5.6</td><td>4.5 - 7.5</td><td>pH</td></tr><tr><td>Protein [Mass/volume] in Urine by Test strip</td><td><strong>382.6 H</strong></td><td>0 - 149</td><td>mg/dL</td></tr><tr><td>Protein [Presence] in Urine by Test strip</td><td>Urine protein test = ++</td><td></td><td></td></tr><tr><td>Nitrite [Presence] in Urine by Test strip</td><td>Urine nitrite negative</td><td></td><td></td></tr><tr><td>Hemoglobin [Presence] in Urine by Test strip</td><td>Urine blood test = negative</td><td></td><td></td></tr><tr><td>Leukocyte esterase [Presence] in Urine by Test strip</td><td>Urine leukocyte test negative</td><td></td><td></td></tr></tbody></table></div>"
                },
                "title": "Urinalysis"
              },
              {
                "code": {
                  "coding": [
                    {
                      "code": "$LP7846-1",
                      "system": "http://loinc.org",
                      "display": "Specimen information"
                    }
                  ],
                  "text": "Specimen information"
                },
                "entry": [
                  {
                    "reference": "urn:uuid:a1de3792-39ed-4d5b-bd72-96e332c60fc7"
                  },
                  {
                    "reference": "urn:uuid:876c5d06-5a37-45f1-bf28-2e8bf1970891"
                  },
                  {
                    "reference": "urn:uuid:2ba3bf72-9aca-4558-b62d-412e82c9deca"
                  },
                  {
                    "reference": "urn:uuid:540a65bf-5364-4081-9be2-c5f31a9b31d7"
                  }
                ],
                "text": {
                  "status": "generated",
                  "div": "<div xmlns=\"http://www.w3.org/1999/xhtml\"><h3>Specimen information</h3><table class=\"hl7__eu__lab__report\"><thead><tr><th>Test</th><th>14-MAR-2025</th><th>Specimen</th><th></th></tr></thead><tbody><tr><td>Appearance of Urine</td><td>Cloudy urine</td><td>Urine</td><td></td></tr><tr><td>Odor of Urine</td><td>Urine smell ammoniacal</td><td>Urine</td><td></td></tr><tr><td>Clarity of Urine</td><td>Translucent</td><td>Urine</td><td></td></tr><tr><td>Color of Urine</td><td>Brown color</td><td>Urine</td><td></td></tr></tbody></table></div>"
                },
                "title": "Specimen information"
              }
            ],
            "title": "Laboratory Report"
          },
          {
            "text": {
              "status": "generated",
              "div": "<div xmlns=\"http://www.w3.org/1999/xhtml\"><h3>Annotation</h3><table class=\"hl7__eu__lab__report\"><tr><th>Conclusion and Recommendations based on this report and previous findings known to us</th></tr><tr><td>The patient shows elevated creatinine, indicating impaired renal function, and significant proteinuria, ketonuria, and glucosuria, suggesting possible nephropathy and metabolic derangement. Urine is dilute (low specific gravity), brown, and cloudy, but without evidence of infection. HbA1c is low, ruling out chronic hyperglycemia. Findings are consistent with acute or chronic kidney injury with metabolic stress; clinical correlation and further nephrological evaluation are recommended.</td></tr></table></div>"
            },
            "code": {
              "coding": [
                {
                  "system": "http://loinc.org",
                  "code": "48767-8",
                  "display": "Annotation comment"
                }
              ]
            },
            "title": "Annotation comment"
          }
        ],
        "status": "final",
        "subject": {
          "reference": "urn:uuid:310dbf6f-b51c-4304-8024-8c0b077d8936",
          "display": "Victor Lagarde"
        },
        "date": "2025-03-14T05:48:18Z",
        "title": "Laboratory Report",
        "confidentiality": "N"
      }
    },
    {
      "fullUrl": "urn:uuid:862a1b4e-f7b7-467c-a197-b6cf20439e53",
      "resource": {
        "resourceType": "DiagnosticReport",
        "id": "862a1b4e-f7b7-467c-a197-b6cf20439e53",
        "meta": {
          "profile": [
            "http://hl7.eu/fhir/laboratory/StructureDefinition/DiagnosticReport-eu-lab"
          ]
        },
        "identifier": [
          {
            "assigner": {
              "display": "HL7 Europe"
            },
            "system": "urn:oid:2.16.840.1.113883.2.51.999",
            "value": "e237d44e-e0ae-4128-93fa-82b78cadab8b"
          }
        ],
        "extension": [
          {
            "url": "http://hl7.org/fhir/5.0/StructureDefinition/extension-DiagnosticReport.composition",
            "valueReference": {
              "reference": "urn:uuid:32c48b2a-4597-4fd3-8183-8e82b8f19f43"
            }
          }
        ],
        "category": [
          {
            "coding": [
              {
                "code": "26436-6",
                "system": "http://loinc.org",
                "display": "Laboratory studies (set)"
              }
            ]
          }
        ],
        "specimen": [
          {
            "reference": "urn:uuid:960ffbbe-f936-4964-9bc5-1a2791937bbe"
          },
          {
            "reference": "urn:uuid:4a46eecc-7d69-4475-a882-471fb91fbbf7"
          },
          {
            "reference": "urn:uuid:cb835f30-b3d3-4821-9fdd-8e0b89104923"
          }
        ],
        "result": [
          {
            "reference": "urn:uuid:684af4bd-4c31-44ce-9130-0d0b6d1cf641"
          },
          {
            "reference": "urn:uuid:ec62b9f5-cb1e-4d89-95df-f50663dfe508"
          },
          {
            "reference": "urn:uuid:c1a68099-2d7e-40c5-985b-4fe8b542f3b9"
          },
          {
            "reference": "urn:uuid:bab3aae6-b977-4471-9519-b9c20ddfc2fa"
          },
          {
            "reference": "urn:uuid:5d48e467-1c4f-41cf-b276-d3e17d09594d"
          },
          {
            "reference": "urn:uuid:a5f0b4b8-0a9a-4e6a-8706-02a5cc7101d4"
          },
          {
            "reference": "urn:uuid:853a96b1-3f01-4fed-80cf-c5e2619b1e7f"
          },
          {
            "reference": "urn:uuid:02513e5e-9d45-4438-912f-3ed96b305f4c"
          },
          {
            "reference": "urn:uuid:a1de3792-39ed-4d5b-bd72-96e332c60fc7"
          },
          {
            "reference": "urn:uuid:876c5d06-5a37-45f1-bf28-2e8bf1970891"
          },
          {
            "reference": "urn:uuid:2ba3bf72-9aca-4558-b62d-412e82c9deca"
          },
          {
            "reference": "urn:uuid:540a65bf-5364-4081-9be2-c5f31a9b31d7"
          },
          {
            "reference": "urn:uuid:461f1d11-8ec6-4990-9828-7d95400582ba"
          },
          {
            "reference": "urn:uuid:2271f6fd-a149-430a-b29b-2172394ffbba"
          },
          {
            "reference": "urn:uuid:efa9e8f5-ce52-4bde-9737-a37e49903af7"
          },
          {
            "reference": "urn:uuid:96e99dbe-1d0d-4f85-be00-7563dde6c07b"
          },
          {
            "reference": "urn:uuid:2a473079-d179-456c-b895-69da76f8c022"
          },
          {
            "reference": "urn:uuid:9a8e4582-6dc5-45de-867b-26bf5263398c"
          },
          {
            "reference": "urn:uuid:3a6f0015-20c9-4373-966e-141e855db0a9"
          },
          {
            "reference": "urn:uuid:4807e6db-753a-48b1-b0bc-e654e896db83"
          },
          {
            "reference": "urn:uuid:d4789f20-5b4d-4467-93c5-a0ee9140009a"
          },
          {
            "reference": "urn:uuid:3376943e-7f9b-454b-8f5d-f38e37694c51"
          },
          {
            "reference": "urn:uuid:833427df-e85b-4012-97c0-3a75e54bb895"
          },
          {
            "reference": "urn:uuid:204716f6-974c-472f-b92a-71ddef1f627b"
          },
          {
            "reference": "urn:uuid:ba796440-cae4-46b2-886a-4e7502a95e00"
          },
          {
            "reference": "urn:uuid:15fd3c90-2821-47fb-8215-3ac370ae0e0e"
          },
          {
            "reference": "urn:uuid:52b0c7d0-9fd4-4e8b-8683-a7a508d63486"
          },
          {
            "reference": "urn:uuid:8d9d100e-82ae-4726-a320-b7474da1704c"
          },
          {
            "reference": "urn:uuid:126149b2-cd97-4f8b-8df8-2f41ba7d1fce"
          },
          {
            "reference": "urn:uuid:aeff163e-c6f3-4724-a765-fee1d0ad38d1"
          },
          {
            "reference": "urn:uuid:a1a222b6-852b-431c-a256-abe7b4c4ac2d"
          },
          {
            "reference": "urn:uuid:67c1cef2-ad4b-4e69-ba12-ad622b8c6075"
          },
          {
            "reference": "urn:uuid:59fbcce3-e98b-478b-8dce-b8f470c3fae2"
          },
          {
            "reference": "urn:uuid:d67b2524-0329-46dd-9ddc-c3e3e94cba7b"
          }
        ],
        "status": "registered",
        "code": {
          "coding": [
            {
              "code": "11502-2",
              "system": "http://loinc.org",
              "display": "Laboratory report"
            }
          ]
        },
        "subject": {
          "reference": "urn:uuid:310dbf6f-b51c-4304-8024-8c0b077d8936",
          "display": "Victor Lagarde"
        }
      }
    },
    {
      "fullUrl": "urn:uuid:310dbf6f-b51c-4304-8024-8c0b077d8936",
      "resource": {
        "resourceType": "Patient",
        "id": "310dbf6f-b51c-4304-8024-8c0b077d8936",
        "meta": {
          "security": [
            {
              "system": "http://terminology.hl7.org/CodeSystem/v3-ActReason",
              "code": "HTEST"
            },
            {
              "system": "http://terminology.hl7.org/CodeSystem/v3-ActReason",
              "code": "TRAIN"
            }
          ],
          "tag": [
            {
              "system": "https://synderai.net/fhir/CodeSystem/tags",
              "code": "synthetic",
              "display": "SYNDERAI Synthetic data"
            }
          ],
          "profile": [
            "http://hl7.eu/fhir/base/StructureDefinition/patient-eu-core"
          ]
        },
        "identifier": [
          {
            "type": {
              "coding": [
                {
                  "code": "PT",
                  "system": "http://terminology.hl7.org/CodeSystem/v2-0203"
                }
              ]
            },
            "system": "http://ec.europa.eu/identifier/eci",
            "value": "9925-001801-9"
          },
          {
            "type": {
              "coding": [
                {
                  "code": "MR",
                  "system": "http://terminology.hl7.org/CodeSystem/v2-0203"
                }
              ]
            },
            "system": "http://local.setting.eu/identifier",
            "value": "22c2dfd0-ac57-8833-2532-848f180896a4"
          }
        ],
        "name": [
          {
            "family": "Lagarde"
          },
          {
            "given": [
              "Victor"
            ]
          },
          {
            "text": "Victor Lagarde"
          }
        ],
        "address": [
          {
            "line": [
              "avenue Robert"
            ],
            "use": "home",
            "type": "physical",
            "postalCode": "80300",
            "city": "Albert",
            "country": "France"
          }
        ],
        "telecom": [
          {
            "system": "phone",
            "value": "0177941801"
          }
        ],
        "extension": [
          {
            "url": "http://hl7.org/fhir/StructureDefinition/patient-nationality",
            "valueCodeableConcept": {
              "coding": [
                {
                  "code": "FR",
                  "system": "http://hl7.org/fhir/ValueSet/country"
                }
              ]
            }
          }
        ],
        "text": {
          "status": "generated",
          "div": "<div xmlns=\"http://www.w3.org/1999/xhtml\"><table class=\"hl7__ips\"><tr><td>Victor Lagarde</td><td>male</td><td>31-Aug-1939</td></tr></table></div>"
        },
        "gender": "male",
        "birthDate": "1939-08-31"
      }
    },
    {
      "fullUrl": "urn:uuid:e4a7f075-36fc-4744-af3a-a21d71f4c773",
      "resource": {
        "resourceType": "ServiceRequest",
        "id": "e4a7f075-36fc-4744-af3a-a21d71f4c773",
        "meta": {
          "profile": [
            "http://hl7.eu/fhir/laboratory/StructureDefinition/ServiceRequest-eu-lab"
          ]
        },
        "identifier": [
          {
            "system": "http://example.org",
            "value": "29a33a93-c5af-4de6-84c0-005bbdc9ce0a"
          }
        ],
        "specimen": [
          {
            "reference": "urn:uuid:960ffbbe-f936-4964-9bc5-1a2791937bbe"
          },
          {
            "reference": "urn:uuid:4a46eecc-7d69-4475-a882-471fb91fbbf7"
          },
          {
            "reference": "urn:uuid:cb835f30-b3d3-4821-9fdd-8e0b89104923"
          }
        ],
        "reasonCode": [
          {
            "coding": [
              {
                "code": "433144002",
                "system": "http://snomed.info/sct",
                "display": "Chronic kidney disease stage 3"
              }
            ]
          },
          {
            "coding": [
              {
                "code": "157141000119108",
                "system": "http://snomed.info/sct",
                "display": "Proteinuria due to type 2 diabetes mellitus"
              }
            ]
          },
          {
            "coding": [
              {
                "code": "431856006",
                "system": "http://snomed.info/sct",
                "display": "Chronic kidney disease stage 2"
              }
            ]
          },
          {
            "coding": [
              {
                "code": "90781000119102",
                "system": "http://snomed.info/sct",
                "display": "Microalbuminuria due to type 2 diabetes mellitus"
              }
            ]
          },
          {
            "coding": [
              {
                "code": "127013003",
                "system": "http://snomed.info/sct",
                "display": "Disorder of kidney due to diabetes mellitus"
              }
            ]
          },
          {
            "coding": [
              {
                "code": "431855005",
                "system": "http://snomed.info/sct",
                "display": "Chronic kidney disease stage 1"
              }
            ]
          },
          {
            "coding": [
              {
                "code": "55822004",
                "system": "http://snomed.info/sct",
                "display": "Hyperlipidemia"
              }
            ]
          },
          {
            "coding": [
              {
                "code": "59621000",
                "system": "http://snomed.info/sct",
                "display": "Essential hypertension"
              }
            ]
          },
          {
            "coding": [
              {
                "code": "237602007",
                "system": "http://snomed.info/sct",
                "display": "Metabolic syndrome X"
              }
            ]
          },
          {
            "coding": [
              {
                "code": "414545008",
                "system": "http://snomed.info/sct",
                "display": "Ischemic heart disease"
              }
            ]
          },
          {
            "coding": [
              {
                "code": "40055000",
                "system": "http://snomed.info/sct",
                "display": "Chronic sinusitis"
              }
            ]
          },
          {
            "coding": [
              {
                "code": "15777000",
                "system": "http://snomed.info/sct",
                "display": "Prediabetes"
              }
            ]
          },
          {
            "coding": [
              {
                "code": "271737000",
                "system": "http://snomed.info/sct",
                "display": "Anemia"
              }
            ]
          }
        ],
        "status": "active",
        "intent": "order",
        "code": {
          "coding": [
            {
              "code": "108252007",
              "system": "http://snomed.info/sct",
              "display": "Laboratory procedure"
            }
          ]
        },
        "subject": {
          "reference": "urn:uuid:310dbf6f-b51c-4304-8024-8c0b077d8936",
          "display": "Victor Lagarde"
        },
        "requester": {
          "reference": "urn:uuid:95be0db2-db48-4e1c-8328-59ff453d9939"
        }
      }
    },
    {
      "fullUrl": "urn:uuid:95be0db2-db48-4e1c-8328-59ff453d9939",
      "resource": {
        "resourceType": "PractitionerRole",
        "id": "95be0db2-db48-4e1c-8328-59ff453d9939",
        "meta": {
          "profile": [
            "http://hl7.eu/fhir/base/StructureDefinition/practitionerRole-eu"
          ]
        },
        "text": {
          "status": "generated",
          "div": "<div xmlns=\"http://www.w3.org/1999/xhtml\">Provider Role Id: 95be0db2-db48-4e1c-8328-59ff453d9939</div>"
        },
        "organization": {
          "reference": "urn:uuid:e79c8241-6606-42ca-980b-450897865a8b"
        }
      }
    },
    {
      "fullUrl": "urn:uuid:e79c8241-6606-42ca-980b-450897865a8b",
      "resource": {
        "resourceType": "Organization",
        "id": "e79c8241-6606-42ca-980b-450897865a8b",
        "meta": {
          "profile": [
            "http://hl7.eu/fhir/base/StructureDefinition/organization-eu"
          ]
        },
        "identifier": [
          {
            "assigner": {
              "display": "HL7 Europe"
            },
            "system": "urn:oid:2.16.840.1.113883.2.51.999",
            "value": "23f10f93-8a94-414b-915c-788f3feea4cb"
          }
        ],
        "address": [
          {
            "city": "Auxerre",
            "postalCode": "89000",
            "country": "France"
          }
        ],
        "text": {
          "status": "generated",
          "div": "<div xmlns=\"http://www.w3.org/1999/xhtml\">Provider Organization: Thiriot Didier (Cardiologie)</div>"
        },
        "name": "Thiriot Didier (Cardiologie)"
      }
    },
    {
      "fullUrl": "urn:uuid:960ffbbe-f936-4964-9bc5-1a2791937bbe",
      "resource": {
        "resourceType": "Specimen",
        "id": "960ffbbe-f936-4964-9bc5-1a2791937bbe",
        "meta": {
          "profile": [
            "http://hl7.eu/fhir/laboratory/StructureDefinition/Specimen-eu-lab"
          ]
        },
        "collection": {
          "collectedDateTime": "2025-03-14"
        },
        "text": {
          "status": "generated",
          "div": "<div xmlns=\"http://www.w3.org/1999/xhtml\"><table class=\"hl7__eu__lab__report\"><tr><th>Specimen</th><th>Collection Date</th></tr><tr><td>Acellular blood (serum or plasma) specimen</td><td><span class=\"nb\">14-Mar-2025</span></td></tr></table></div>"
        },
        "type": {
          "coding": [
            {
              "code": "122592007",
              "system": "http://snomed.info/sct",
              "display": "Acellular blood (serum or plasma) specimen"
            }
          ]
        }
      }
    },
    {
      "fullUrl": "urn:uuid:4a46eecc-7d69-4475-a882-471fb91fbbf7",
      "resource": {
        "resourceType": "Specimen",
        "id": "4a46eecc-7d69-4475-a882-471fb91fbbf7",
        "meta": {
          "profile": [
            "http://hl7.eu/fhir/laboratory/StructureDefinition/Specimen-eu-lab"
          ]
        },
        "collection": {
          "collectedDateTime": "2025-03-14"
        },
        "text": {
          "status": "generated",
          "div": "<div xmlns=\"http://www.w3.org/1999/xhtml\"><table class=\"hl7__eu__lab__report\"><tr><th>Specimen</th><th>Collection Date</th></tr><tr><td>Urine specimen</td><td><span class=\"nb\">14-Mar-2025</span></td></tr></table></div>"
        },
        "type": {
          "coding": [
            {
              "code": "122575003",
              "system": "http://snomed.info/sct",
              "display": "Urine specimen"
            }
          ]
        }
      }
    },
    {
      "fullUrl": "urn:uuid:cb835f30-b3d3-4821-9fdd-8e0b89104923",
      "resource": {
        "resourceType": "Specimen",
        "id": "cb835f30-b3d3-4821-9fdd-8e0b89104923",
        "meta": {
          "profile": [
            "http://hl7.eu/fhir/laboratory/StructureDefinition/Specimen-eu-lab"
          ]
        },
        "collection": {
          "collectedDateTime": "2025-03-14"
        },
        "text": {
          "status": "generated",
          "div": "<div xmlns=\"http://www.w3.org/1999/xhtml\"><table class=\"hl7__eu__lab__report\"><tr><th>Specimen</th><th>Collection Date</th></tr><tr><td>Whole blood specimen (specimen)</td><td><span class=\"nb\">14-Mar-2025</span></td></tr></table></div>"
        },
        "type": {
          "coding": [
            {
              "code": "258580003",
              "system": "http://snomed.info/sct",
              "display": "Whole blood specimen (specimen)"
            }
          ]
        }
      }
    },
    {
      "fullUrl": "urn:uuid:684af4bd-4c31-44ce-9130-0d0b6d1cf641",
      "resource": {
        "resourceType": "Observation",
        "id": "684af4bd-4c31-44ce-9130-0d0b6d1cf641",
        "meta": {
          "profile": [
            "http://hl7.eu/fhir/laboratory/StructureDefinition/Observation-resultslab-eu-lab"
          ]
        },
        "performer": [
          {
            "display": "The Central European Lab"
          }
        ],
        "category": [
          {
            "coding": [
              {
                "system": "http://terminology.hl7.org/CodeSystem/observation-category",
                "code": "laboratory"
              }
            ]
          }
        ],
        "code": {
          "coding": [
            {
              "code": "2345-7",
              "system": "http://loinc.org",
              "display": "Glucose [Mass/volume] in Serum or Plasma"
            }
          ],
          "text": "Glucose [Mass/volume] in Serum or Plasma"
        },
        "valueQuantity": {
          "system": "http://unitsofmeasure.org",
          "value": 81.1,
          "unit": "mg/dL",
          "code": "mg/dL"
        },
        "referenceRange": [
          {
            "low": {
              "value": 70,
              "code": "mg/dL",
              "system": "http://unitsofmeasure.org"
            }
          },
          {
            "high": {
              "value": 140,
              "code": "mg/dL",
              "system": "http://unitsofmeasure.org"
            }
          }
        ],
        "text": {
          "status": "generated",
          "div": "<div xmlns=\"http://www.w3.org/1999/xhtml\"><table class=\"hl7__eu__lab__report\"><tr><th>Test</th><th>14-Mar-2025</th><th>Reference&#xA0;Range</th><th>Unit</th></tr><tr><td>Glucose [Mass/volume] in Serum or Plasma</td><td>81.1</td><td>70 - 140</td><td></td><td>mg/dL</td></tr></table></div>"
        },
        "status": "final",
        "subject": {
          "reference": "urn:uuid:310dbf6f-b51c-4304-8024-8c0b077d8936",
          "display": "Victor Lagarde"
        },
        "effectiveDateTime": "2025-03-14T04:48:18Z",
        "specimen": {
          "reference": "urn:uuid:960ffbbe-f936-4964-9bc5-1a2791937bbe"
        }
      }
    },
    {
      "fullUrl": "urn:uuid:ec62b9f5-cb1e-4d89-95df-f50663dfe508",
      "resource": {
        "resourceType": "Observation",
        "id": "ec62b9f5-cb1e-4d89-95df-f50663dfe508",
        "meta": {
          "profile": [
            "http://hl7.eu/fhir/laboratory/StructureDefinition/Observation-resultslab-eu-lab"
          ]
        },
        "performer": [
          {
            "display": "The Central European Lab"
          }
        ],
        "category": [
          {
            "coding": [
              {
                "system": "http://terminology.hl7.org/CodeSystem/observation-category",
                "code": "laboratory"
              }
            ]
          }
        ],
        "code": {
          "coding": [
            {
              "code": "3094-0",
              "system": "http://loinc.org",
              "display": "Urea nitrogen [Mass/volume] in Serum or Plasma"
            }
          ],
          "text": "Urea nitrogen [Mass/volume] in Serum or Plasma"
        },
        "valueQuantity": {
          "system": "http://unitsofmeasure.org",
          "value": 19.9,
          "unit": "mg/dL",
          "code": "mg/dL"
        },
        "referenceRange": [
          {
            "low": {
              "value": 7,
              "code": "mg/dL",
              "system": "http://unitsofmeasure.org"
            }
          },
          {
            "high": {
              "value": 20,
              "code": "mg/dL",
              "system": "http://unitsofmeasure.org"
            }
          }
        ],
        "text": {
          "status": "generated",
          "div": "<div xmlns=\"http://www.w3.org/1999/xhtml\"><table class=\"hl7__eu__lab__report\"><tr><th>Test</th><th>14-Mar-2025</th><th>Reference&#xA0;Range</th><th>Unit</th></tr><tr><td>Urea nitrogen [Mass/volume] in Serum or Plasma</td><td>19.9</td><td>7 - 20</td><td></td><td>mg/dL</td></tr></table></div>"
        },
        "status": "final",
        "subject": {
          "reference": "urn:uuid:310dbf6f-b51c-4304-8024-8c0b077d8936",
          "display": "Victor Lagarde"
        },
        "effectiveDateTime": "2025-03-14T04:48:18Z",
        "specimen": {
          "reference": "urn:uuid:960ffbbe-f936-4964-9bc5-1a2791937bbe"
        }
      }
    },
    {
      "fullUrl": "urn:uuid:c1a68099-2d7e-40c5-985b-4fe8b542f3b9",
      "resource": {
        "resourceType": "Observation",
        "id": "c1a68099-2d7e-40c5-985b-4fe8b542f3b9",
        "meta": {
          "profile": [
            "http://hl7.eu/fhir/laboratory/StructureDefinition/Observation-resultslab-eu-lab"
          ]
        },
        "performer": [
          {
            "display": "The Central European Lab"
          }
        ],
        "category": [
          {
            "coding": [
              {
                "system": "http://terminology.hl7.org/CodeSystem/observation-category",
                "code": "laboratory"
              }
            ]
          }
        ],
        "code": {
          "coding": [
            {
              "code": "2160-0",
              "system": "http://loinc.org",
              "display": "Creatinine [Mass/volume] in Serum or Plasma"
            }
          ],
          "text": "Creatinine [Mass/volume] in Serum or Plasma"
        },
        "valueQuantity": {
          "system": "http://unitsofmeasure.org",
          "value": 1.9,
          "unit": "mg/dL",
          "code": "mg/dL"
        },
        "referenceRange": [
          {
            "low": {
              "value": 0.9,
              "code": "mg/dL",
              "system": "http://unitsofmeasure.org"
            }
          },
          {
            "high": {
              "value": 1.3,
              "code": "mg/dL",
              "system": "http://unitsofmeasure.org"
            }
          }
        ],
        "interpretation": [
          {
            "coding": [
              {
                "code": "H",
                "system": "http://terminology.hl7.org/CodeSystem/v3-ObservationInterpretation",
                "display": "High"
              }
            ]
          }
        ],
        "text": {
          "status": "generated",
          "div": "<div xmlns=\"http://www.w3.org/1999/xhtml\"><table class=\"hl7__eu__lab__report\"><tr><th>Test</th><th>14-Mar-2025</th><th>Reference&#xA0;Range</th><th>Unit</th></tr><tr><td>Creatinine [Mass/volume] in Serum or Plasma</td><td>1.9</td><td>0.9 - 1.3</td><td>H</td><td>mg/dL</td></tr></table></div>"
        },
        "status": "final",
        "subject": {
          "reference": "urn:uuid:310dbf6f-b51c-4304-8024-8c0b077d8936",
          "display": "Victor Lagarde"
        },
        "effectiveDateTime": "2025-03-14T04:48:18Z",
        "specimen": {
          "reference": "urn:uuid:960ffbbe-f936-4964-9bc5-1a2791937bbe"
        }
      }
    },
    {
      "fullUrl": "urn:uuid:bab3aae6-b977-4471-9519-b9c20ddfc2fa",
      "resource": {
        "resourceType": "Observation",
        "id": "bab3aae6-b977-4471-9519-b9c20ddfc2fa",
        "meta": {
          "profile": [
            "http://hl7.eu/fhir/laboratory/StructureDefinition/Observation-resultslab-eu-lab"
          ]
        },
        "performer": [
          {
            "display": "The Central European Lab"
          }
        ],
        "category": [
          {
            "coding": [
              {
                "system": "http://terminology.hl7.org/CodeSystem/observation-category",
                "code": "laboratory"
              }
            ]
          }
        ],
        "code": {
          "coding": [
            {
              "code": "17861-6",
              "system": "http://loinc.org",
              "display": "Calcium [Mass/volume] in Serum or Plasma"
            }
          ],
          "text": "Calcium [Mass/volume] in Serum or Plasma"
        },
        "valueQuantity": {
          "system": "http://unitsofmeasure.org",
          "value": 9.6,
          "unit": "mg/dL",
          "code": "mg/dL"
        },
        "referenceRange": [
          {
            "low": {
              "value": 8.5,
              "code": "mg/dL",
              "system": "http://unitsofmeasure.org"
            }
          },
          {
            "high": {
              "value": 10.5,
              "code": "mg/dL",
              "system": "http://unitsofmeasure.org"
            }
          }
        ],
        "text": {
          "status": "generated",
          "div": "<div xmlns=\"http://www.w3.org/1999/xhtml\"><table class=\"hl7__eu__lab__report\"><tr><th>Test</th><th>14-Mar-2025</th><th>Reference&#xA0;Range</th><th>Unit</th></tr><tr><td>Calcium [Mass/volume] in Serum or Plasma</td><td>9.6</td><td>8.5 - 10.5</td><td></td><td>mg/dL</td></tr></table></div>"
        },
        "status": "final",
        "subject": {
          "reference": "urn:uuid:310dbf6f-b51c-4304-8024-8c0b077d8936",
          "display": "Victor Lagarde"
        },
        "effectiveDateTime": "2025-03-14T04:48:18Z",
        "specimen": {
          "reference": "urn:uuid:960ffbbe-f936-4964-9bc5-1a2791937bbe"
        }
      }
    },
    {
      "fullUrl": "urn:uuid:5d48e467-1c4f-41cf-b276-d3e17d09594d",
      "resource": {
        "resourceType": "Observation",
        "id": "5d48e467-1c4f-41cf-b276-d3e17d09594d",
        "meta": {
          "profile": [
            "http://hl7.eu/fhir/laboratory/StructureDefinition/Observation-resultslab-eu-lab"
          ]
        },
        "performer": [
          {
            "display": "The Central European Lab"
          }
        ],
        "category": [
          {
            "coding": [
              {
                "system": "http://terminology.hl7.org/CodeSystem/observation-category",
                "code": "laboratory"
              }
            ]
          }
        ],
        "code": {
          "coding": [
            {
              "code": "2951-2",
              "system": "http://loinc.org",
              "display": "Sodium [Moles/volume] in Serum or Plasma"
            }
          ],
          "text": "Sodium [Moles/volume] in Serum or Plasma"
        },
        "valueQuantity": {
          "system": "http://unitsofmeasure.org",
          "value": 137.2,
          "unit": "mmol/L",
          "code": "mmol/L"
        },
        "referenceRange": [
          {
            "low": {
              "value": 135,
              "code": "mmol/L",
              "system": "http://unitsofmeasure.org"
            }
          },
          {
            "high": {
              "value": 145,
              "code": "mmol/L",
              "system": "http://unitsofmeasure.org"
            }
          }
        ],
        "text": {
          "status": "generated",
          "div": "<div xmlns=\"http://www.w3.org/1999/xhtml\"><table class=\"hl7__eu__lab__report\"><tr><th>Test</th><th>14-Mar-2025</th><th>Reference&#xA0;Range</th><th>Unit</th></tr><tr><td>Sodium [Moles/volume] in Serum or Plasma</td><td>137.2</td><td>135 - 145</td><td></td><td>mmol/L</td></tr></table></div>"
        },
        "status": "final",
        "subject": {
          "reference": "urn:uuid:310dbf6f-b51c-4304-8024-8c0b077d8936",
          "display": "Victor Lagarde"
        },
        "effectiveDateTime": "2025-03-14T04:48:18Z",
        "specimen": {
          "reference": "urn:uuid:960ffbbe-f936-4964-9bc5-1a2791937bbe"
        }
      }
    },
    {
      "fullUrl": "urn:uuid:a5f0b4b8-0a9a-4e6a-8706-02a5cc7101d4",
      "resource": {
        "resourceType": "Observation",
        "id": "a5f0b4b8-0a9a-4e6a-8706-02a5cc7101d4",
        "meta": {
          "profile": [
            "http://hl7.eu/fhir/laboratory/StructureDefinition/Observation-resultslab-eu-lab"
          ]
        },
        "performer": [
          {
            "display": "The Central European Lab"
          }
        ],
        "category": [
          {
            "coding": [
              {
                "system": "http://terminology.hl7.org/CodeSystem/observation-category",
                "code": "laboratory"
              }
            ]
          }
        ],
        "code": {
          "coding": [
            {
              "code": "2823-3",
              "system": "http://loinc.org",
              "display": "Potassium [Moles/volume] in Serum or Plasma"
            }
          ],
          "text": "Potassium [Moles/volume] in Serum or Plasma"
        },
        "valueQuantity": {
          "system": "http://unitsofmeasure.org",
          "value": 4,
          "unit": "mmol/L",
          "code": "mmol/L"
        },
        "referenceRange": [
          {
            "low": {
              "value": 3.5,
              "code": "mmol/L",
              "system": "http://unitsofmeasure.org"
            }
          },
          {
            "high": {
              "value": 5.3,
              "code": "mmol/L",
              "system": "http://unitsofmeasure.org"
            }
          }
        ],
        "text": {
          "status": "generated",
          "div": "<div xmlns=\"http://www.w3.org/1999/xhtml\"><table class=\"hl7__eu__lab__report\"><tr><th>Test</th><th>14-Mar-2025</th><th>Reference&#xA0;Range</th><th>Unit</th></tr><tr><td>Potassium [Moles/volume] in Serum or Plasma</td><td>4.0</td><td>3.5 - 5.3</td><td></td><td>mmol/L</td></tr></table></div>"
        },
        "status": "final",
        "subject": {
          "reference": "urn:uuid:310dbf6f-b51c-4304-8024-8c0b077d8936",
          "display": "Victor Lagarde"
        },
        "effectiveDateTime": "2025-03-14T04:48:18Z",
        "specimen": {
          "reference": "urn:uuid:960ffbbe-f936-4964-9bc5-1a2791937bbe"
        }
      }
    },
    {
      "fullUrl": "urn:uuid:853a96b1-3f01-4fed-80cf-c5e2619b1e7f",
      "resource": {
        "resourceType": "Observation",
        "id": "853a96b1-3f01-4fed-80cf-c5e2619b1e7f",
        "meta": {
          "profile": [
            "http://hl7.eu/fhir/laboratory/StructureDefinition/Observation-resultslab-eu-lab"
          ]
        },
        "performer": [
          {
            "display": "The Central European Lab"
          }
        ],
        "category": [
          {
            "coding": [
              {
                "system": "http://terminology.hl7.org/CodeSystem/observation-category",
                "code": "laboratory"
              }
            ]
          }
        ],
        "code": {
          "coding": [
            {
              "code": "2075-0",
              "system": "http://loinc.org",
              "display": "Chloride [Moles/volume] in Serum or Plasma"
            }
          ],
          "text": "Chloride [Moles/volume] in Serum or Plasma"
        },
        "valueQuantity": {
          "system": "http://unitsofmeasure.org",
          "value": 105,
          "unit": "mmol/L",
          "code": "mmol/L"
        },
        "referenceRange": [
          {
            "low": {
              "value": 98,
              "code": "mmol/L",
              "system": "http://unitsofmeasure.org"
            }
          },
          {
            "high": {
              "value": 107,
              "code": "mmol/L",
              "system": "http://unitsofmeasure.org"
            }
          }
        ],
        "text": {
          "status": "generated",
          "div": "<div xmlns=\"http://www.w3.org/1999/xhtml\"><table class=\"hl7__eu__lab__report\"><tr><th>Test</th><th>14-Mar-2025</th><th>Reference&#xA0;Range</th><th>Unit</th></tr><tr><td>Chloride [Moles/volume] in Serum or Plasma</td><td>105.0</td><td>98 - 107</td><td></td><td>mmol/L</td></tr></table></div>"
        },
        "status": "final",
        "subject": {
          "reference": "urn:uuid:310dbf6f-b51c-4304-8024-8c0b077d8936",
          "display": "Victor Lagarde"
        },
        "effectiveDateTime": "2025-03-14T04:48:18Z",
        "specimen": {
          "reference": "urn:uuid:960ffbbe-f936-4964-9bc5-1a2791937bbe"
        }
      }
    },
    {
      "fullUrl": "urn:uuid:02513e5e-9d45-4438-912f-3ed96b305f4c",
      "resource": {
        "resourceType": "Observation",
        "id": "02513e5e-9d45-4438-912f-3ed96b305f4c",
        "meta": {
          "profile": [
            "http://hl7.eu/fhir/laboratory/StructureDefinition/Observation-resultslab-eu-lab"
          ]
        },
        "performer": [
          {
            "display": "The Central European Lab"
          }
        ],
        "category": [
          {
            "coding": [
              {
                "system": "http://terminology.hl7.org/CodeSystem/observation-category",
                "code": "laboratory"
              }
            ]
          }
        ],
        "code": {
          "coding": [
            {
              "code": "2028-9",
              "system": "http://loinc.org",
              "display": "Carbon dioxide, total [Moles/volume] in Serum or Plasma"
            }
          ],
          "text": "Carbon dioxide, total [Moles/volume] in Serum or Plasma"
        },
        "valueQuantity": {
          "system": "http://unitsofmeasure.org",
          "value": 28.8,
          "unit": "mmol/L",
          "code": "mmol/L"
        },
        "referenceRange": [
          {
            "low": {
              "value": 22,
              "code": "mmol/L",
              "system": "http://unitsofmeasure.org"
            }
          },
          {
            "high": {
              "value": 33,
              "code": "mmol/L",
              "system": "http://unitsofmeasure.org"
            }
          }
        ],
        "text": {
          "status": "generated",
          "div": "<div xmlns=\"http://www.w3.org/1999/xhtml\"><table class=\"hl7__eu__lab__report\"><tr><th>Test</th><th>14-Mar-2025</th><th>Reference&#xA0;Range</th><th>Unit</th></tr><tr><td>Carbon dioxide, total [Moles/volume] in Serum or Plasma</td><td>28.8</td><td>22 - 33</td><td></td><td>mmol/L</td></tr></table></div>"
        },
        "status": "final",
        "subject": {
          "reference": "urn:uuid:310dbf6f-b51c-4304-8024-8c0b077d8936",
          "display": "Victor Lagarde"
        },
        "effectiveDateTime": "2025-03-14T04:48:18Z",
        "specimen": {
          "reference": "urn:uuid:960ffbbe-f936-4964-9bc5-1a2791937bbe"
        }
      }
    },
    {
      "fullUrl": "urn:uuid:a1de3792-39ed-4d5b-bd72-96e332c60fc7",
      "resource": {
        "resourceType": "Observation",
        "id": "a1de3792-39ed-4d5b-bd72-96e332c60fc7",
        "meta": {
          "profile": [
            "http://hl7.eu/fhir/laboratory/StructureDefinition/Observation-resultslab-eu-lab"
          ]
        },
        "performer": [
          {
            "display": "The Central European Lab"
          }
        ],
        "category": [
          {
            "coding": [
              {
                "system": "http://terminology.hl7.org/CodeSystem/observation-category",
                "code": "laboratory"
              }
            ]
          }
        ],
        "code": {
          "coding": [
            {
              "code": "5767-9",
              "system": "http://loinc.org",
              "display": "Appearance of Urine"
            }
          ],
          "text": "Appearance of Urine"
        },
        "text": {
          "status": "generated",
          "div": "<div xmlns=\"http://www.w3.org/1999/xhtml\"><table class=\"hl7__eu__lab__report\"><tr><th>Test</th><th>14-Mar-2025</th><th>Reference&#xA0;Range</th><th>Unit</th></tr><tr><td>Appearance of Urine</td></tr></table></div>"
        },
        "status": "final",
        "subject": {
          "reference": "urn:uuid:310dbf6f-b51c-4304-8024-8c0b077d8936",
          "display": "Victor Lagarde"
        },
        "effectiveDateTime": "2025-03-14T04:48:18Z",
        "specimen": {
          "reference": "urn:uuid:4a46eecc-7d69-4475-a882-471fb91fbbf7"
        }
      }
    },
    {
      "fullUrl": "urn:uuid:876c5d06-5a37-45f1-bf28-2e8bf1970891",
      "resource": {
        "resourceType": "Observation",
        "id": "876c5d06-5a37-45f1-bf28-2e8bf1970891",
        "meta": {
          "profile": [
            "http://hl7.eu/fhir/laboratory/StructureDefinition/Observation-resultslab-eu-lab"
          ]
        },
        "performer": [
          {
            "display": "The Central European Lab"
          }
        ],
        "category": [
          {
            "coding": [
              {
                "system": "http://terminology.hl7.org/CodeSystem/observation-category",
                "code": "laboratory"
              }
            ]
          }
        ],
        "code": {
          "coding": [
            {
              "code": "34533-0",
              "system": "http://loinc.org",
              "display": "Odor of Urine"
            }
          ],
          "text": "Odor of Urine"
        },
        "text": {
          "status": "generated",
          "div": "<div xmlns=\"http://www.w3.org/1999/xhtml\"><table class=\"hl7__eu__lab__report\"><tr><th>Test</th><th>14-Mar-2025</th><th>Reference&#xA0;Range</th><th>Unit</th></tr><tr><td>Odor of Urine</td></tr></table></div>"
        },
        "status": "final",
        "subject": {
          "reference": "urn:uuid:310dbf6f-b51c-4304-8024-8c0b077d8936",
          "display": "Victor Lagarde"
        },
        "effectiveDateTime": "2025-03-14T04:48:18Z",
        "specimen": {
          "reference": "urn:uuid:4a46eecc-7d69-4475-a882-471fb91fbbf7"
        }
      }
    },
    {
      "fullUrl": "urn:uuid:2ba3bf72-9aca-4558-b62d-412e82c9deca",
      "resource": {
        "resourceType": "Observation",
        "id": "2ba3bf72-9aca-4558-b62d-412e82c9deca",
        "meta": {
          "profile": [
            "http://hl7.eu/fhir/laboratory/StructureDefinition/Observation-resultslab-eu-lab"
          ]
        },
        "performer": [
          {
            "display": "The Central European Lab"
          }
        ],
        "category": [
          {
            "coding": [
              {
                "system": "http://terminology.hl7.org/CodeSystem/observation-category",
                "code": "laboratory"
              }
            ]
          }
        ],
        "code": {
          "coding": [
            {
              "code": "32167-9",
              "system": "http://loinc.org",
              "display": "Clarity of Urine"
            }
          ],
          "text": "Clarity of Urine"
        },
        "text": {
          "status": "generated",
          "div": "<div xmlns=\"http://www.w3.org/1999/xhtml\"><table class=\"hl7__eu__lab__report\"><tr><th>Test</th><th>14-Mar-2025</th><th>Reference&#xA0;Range</th><th>Unit</th></tr><tr><td>Clarity of Urine</td></tr></table></div>"
        },
        "status": "final",
        "subject": {
          "reference": "urn:uuid:310dbf6f-b51c-4304-8024-8c0b077d8936",
          "display": "Victor Lagarde"
        },
        "effectiveDateTime": "2025-03-14T04:48:18Z",
        "specimen": {
          "reference": "urn:uuid:4a46eecc-7d69-4475-a882-471fb91fbbf7"
        }
      }
    },
    {
      "fullUrl": "urn:uuid:540a65bf-5364-4081-9be2-c5f31a9b31d7",
      "resource": {
        "resourceType": "Observation",
        "id": "540a65bf-5364-4081-9be2-c5f31a9b31d7",
        "meta": {
          "profile": [
            "http://hl7.eu/fhir/laboratory/StructureDefinition/Observation-resultslab-eu-lab"
          ]
        },
        "performer": [
          {
            "display": "The Central European Lab"
          }
        ],
        "category": [
          {
            "coding": [
              {
                "system": "http://terminology.hl7.org/CodeSystem/observation-category",
                "code": "laboratory"
              }
            ]
          }
        ],
        "code": {
          "coding": [
            {
              "code": "5778-6",
              "system": "http://loinc.org",
              "display": "Color of Urine"
            }
          ],
          "text": "Color of Urine"
        },
        "text": {
          "status": "generated",
          "div": "<div xmlns=\"http://www.w3.org/1999/xhtml\"><table class=\"hl7__eu__lab__report\"><tr><th>Test</th><th>14-Mar-2025</th><th>Reference&#xA0;Range</th><th>Unit</th></tr><tr><td>Color of Urine</td></tr></table></div>"
        },
        "status": "final",
        "subject": {
          "reference": "urn:uuid:310dbf6f-b51c-4304-8024-8c0b077d8936",
          "display": "Victor Lagarde"
        },
        "effectiveDateTime": "2025-03-14T04:48:18Z",
        "specimen": {
          "reference": "urn:uuid:4a46eecc-7d69-4475-a882-471fb91fbbf7"
        }
      }
    },
    {
      "fullUrl": "urn:uuid:461f1d11-8ec6-4990-9828-7d95400582ba",
      "resource": {
        "resourceType": "Observation",
        "id": "461f1d11-8ec6-4990-9828-7d95400582ba",
        "meta": {
          "profile": [
            "http://hl7.eu/fhir/laboratory/StructureDefinition/Observation-resultslab-eu-lab"
          ]
        },
        "performer": [
          {
            "display": "The Central European Lab"
          }
        ],
        "category": [
          {
            "coding": [
              {
                "system": "http://terminology.hl7.org/CodeSystem/observation-category",
                "code": "laboratory"
              }
            ]
          }
        ],
        "code": {
          "coding": [
            {
              "code": "5792-7",
              "system": "http://loinc.org",
              "display": "Glucose [Mass/volume] in Urine by Test strip"
            }
          ],
          "text": "Glucose [Mass/volume] in Urine by Test strip"
        },
        "valueQuantity": {
          "system": "http://unitsofmeasure.org",
          "value": 0.7,
          "unit": "mg/dL",
          "code": "mg/dL"
        },
        "referenceRange": [
          {
            "low": {
              "value": 0,
              "code": "mg/dL",
              "system": "http://unitsofmeasure.org"
            }
          },
          {
            "high": {
              "value": 0.8,
              "code": "mg/dL",
              "system": "http://unitsofmeasure.org"
            }
          }
        ],
        "text": {
          "status": "generated",
          "div": "<div xmlns=\"http://www.w3.org/1999/xhtml\"><table class=\"hl7__eu__lab__report\"><tr><th>Test</th><th>14-Mar-2025</th><th>Reference&#xA0;Range</th><th>Unit</th></tr><tr><td>Glucose [Mass/volume] in Urine by Test strip</td><td>0.7</td><td>0 - 0.8</td><td></td><td>mg/dL</td></tr></table></div>"
        },
        "status": "final",
        "subject": {
          "reference": "urn:uuid:310dbf6f-b51c-4304-8024-8c0b077d8936",
          "display": "Victor Lagarde"
        },
        "effectiveDateTime": "2025-03-14T04:48:18Z",
        "specimen": {
          "reference": "urn:uuid:4a46eecc-7d69-4475-a882-471fb91fbbf7"
        }
      }
    },
    {
      "fullUrl": "urn:uuid:2271f6fd-a149-430a-b29b-2172394ffbba",
      "resource": {
        "resourceType": "Observation",
        "id": "2271f6fd-a149-430a-b29b-2172394ffbba",
        "meta": {
          "profile": [
            "http://hl7.eu/fhir/laboratory/StructureDefinition/Observation-resultslab-eu-lab"
          ]
        },
        "performer": [
          {
            "display": "The Central European Lab"
          }
        ],
        "category": [
          {
            "coding": [
              {
                "system": "http://terminology.hl7.org/CodeSystem/observation-category",
                "code": "laboratory"
              }
            ]
          }
        ],
        "code": {
          "coding": [
            {
              "code": "25428-4",
              "system": "http://loinc.org",
              "display": "Glucose [Presence] in Urine by Test strip"
            }
          ],
          "text": "Glucose [Presence] in Urine by Test strip"
        },
        "text": {
          "status": "generated",
          "div": "<div xmlns=\"http://www.w3.org/1999/xhtml\"><table class=\"hl7__eu__lab__report\"><tr><th>Test</th><th>14-Mar-2025</th><th>Reference&#xA0;Range</th><th>Unit</th></tr><tr><td>Glucose [Presence] in Urine by Test strip</td></tr></table></div>"
        },
        "status": "final",
        "subject": {
          "reference": "urn:uuid:310dbf6f-b51c-4304-8024-8c0b077d8936",
          "display": "Victor Lagarde"
        },
        "effectiveDateTime": "2025-03-14T04:48:18Z",
        "specimen": {
          "reference": "urn:uuid:4a46eecc-7d69-4475-a882-471fb91fbbf7"
        }
      }
    },
    {
      "fullUrl": "urn:uuid:efa9e8f5-ce52-4bde-9737-a37e49903af7",
      "resource": {
        "resourceType": "Observation",
        "id": "efa9e8f5-ce52-4bde-9737-a37e49903af7",
        "meta": {
          "profile": [
            "http://hl7.eu/fhir/laboratory/StructureDefinition/Observation-resultslab-eu-lab"
          ]
        },
        "performer": [
          {
            "display": "The Central European Lab"
          }
        ],
        "category": [
          {
            "coding": [
              {
                "system": "http://terminology.hl7.org/CodeSystem/observation-category",
                "code": "laboratory"
              }
            ]
          }
        ],
        "code": {
          "coding": [
            {
              "code": "20505-4",
              "system": "http://loinc.org",
              "display": "Bilirubin.total [Mass/volume] in Urine by Test strip"
            }
          ],
          "text": "Bilirubin.total [Mass/volume] in Urine by Test strip"
        },
        "valueQuantity": {
          "system": "http://unitsofmeasure.org",
          "value": 0.9,
          "unit": "mg/dL",
          "code": "mg/dL"
        },
        "referenceRange": [
          {
            "low": {
              "value": 0,
              "code": "mg/dL",
              "system": "http://unitsofmeasure.org"
            }
          },
          {
            "high": {
              "value": 1.9,
              "code": "mg/dL",
              "system": "http://unitsofmeasure.org"
            }
          }
        ],
        "text": {
          "status": "generated",
          "div": "<div xmlns=\"http://www.w3.org/1999/xhtml\"><table class=\"hl7__eu__lab__report\"><tr><th>Test</th><th>14-Mar-2025</th><th>Reference&#xA0;Range</th><th>Unit</th></tr><tr><td>Bilirubin.total [Mass/volume] in Urine by Test strip</td><td>0.9</td><td>0 - 1.9</td><td></td><td>mg/dL</td></tr></table></div>"
        },
        "status": "final",
        "subject": {
          "reference": "urn:uuid:310dbf6f-b51c-4304-8024-8c0b077d8936",
          "display": "Victor Lagarde"
        },
        "effectiveDateTime": "2025-03-14T04:48:18Z",
        "specimen": {
          "reference": "urn:uuid:4a46eecc-7d69-4475-a882-471fb91fbbf7"
        }
      }
    },
    {
      "fullUrl": "urn:uuid:96e99dbe-1d0d-4f85-be00-7563dde6c07b",
      "resource": {
        "resourceType": "Observation",
        "id": "96e99dbe-1d0d-4f85-be00-7563dde6c07b",
        "meta": {
          "profile": [
            "http://hl7.eu/fhir/laboratory/StructureDefinition/Observation-resultslab-eu-lab"
          ]
        },
        "performer": [
          {
            "display": "The Central European Lab"
          }
        ],
        "category": [
          {
            "coding": [
              {
                "system": "http://terminology.hl7.org/CodeSystem/observation-category",
                "code": "laboratory"
              }
            ]
          }
        ],
        "code": {
          "coding": [
            {
              "code": "5770-3",
              "system": "http://loinc.org",
              "display": "Bilirubin.total [Presence] in Urine by Test strip"
            }
          ],
          "text": "Bilirubin.total [Presence] in Urine by Test strip"
        },
        "text": {
          "status": "generated",
          "div": "<div xmlns=\"http://www.w3.org/1999/xhtml\"><table class=\"hl7__eu__lab__report\"><tr><th>Test</th><th>14-Mar-2025</th><th>Reference&#xA0;Range</th><th>Unit</th></tr><tr><td>Bilirubin.total [Presence] in Urine by Test strip</td></tr></table></div>"
        },
        "status": "final",
        "subject": {
          "reference": "urn:uuid:310dbf6f-b51c-4304-8024-8c0b077d8936",
          "display": "Victor Lagarde"
        },
        "effectiveDateTime": "2025-03-14T04:48:18Z",
        "specimen": {
          "reference": "urn:uuid:4a46eecc-7d69-4475-a882-471fb91fbbf7"
        }
      }
    },
    {
      "fullUrl": "urn:uuid:2a473079-d179-456c-b895-69da76f8c022",
      "resource": {
        "resourceType": "Observation",
        "id": "2a473079-d179-456c-b895-69da76f8c022",
        "meta": {
          "profile": [
            "http://hl7.eu/fhir/laboratory/StructureDefinition/Observation-resultslab-eu-lab"
          ]
        },
        "performer": [
          {
            "display": "The Central European Lab"
          }
        ],
        "category": [
          {
            "coding": [
              {
                "system": "http://terminology.hl7.org/CodeSystem/observation-category",
                "code": "laboratory"
              }
            ]
          }
        ],
        "code": {
          "coding": [
            {
              "code": "5797-6",
              "system": "http://loinc.org",
              "display": "Ketones [Mass/volume] in Urine by Test strip"
            }
          ],
          "text": "Ketones [Mass/volume] in Urine by Test strip"
        },
        "valueQuantity": {
          "system": "http://unitsofmeasure.org",
          "value": 12.5,
          "unit": "mg/dL",
          "code": "mg/dL"
        },
        "referenceRange": [
          {
            "low": {
              "value": 0,
              "code": "mg/dL",
              "system": "http://unitsofmeasure.org"
            }
          },
          {
            "high": {
              "value": 3,
              "code": "mg/dL",
              "system": "http://unitsofmeasure.org"
            }
          }
        ],
        "interpretation": [
          {
            "coding": [
              {
                "code": "H",
                "system": "http://terminology.hl7.org/CodeSystem/v3-ObservationInterpretation",
                "display": "High"
              }
            ]
          }
        ],
        "text": {
          "status": "generated",
          "div": "<div xmlns=\"http://www.w3.org/1999/xhtml\"><table class=\"hl7__eu__lab__report\"><tr><th>Test</th><th>14-Mar-2025</th><th>Reference&#xA0;Range</th><th>Unit</th></tr><tr><td>Ketones [Mass/volume] in Urine by Test strip</td><td>12.5</td><td>0 - 3</td><td>H</td><td>mg/dL</td></tr></table></div>"
        },
        "status": "final",
        "subject": {
          "reference": "urn:uuid:310dbf6f-b51c-4304-8024-8c0b077d8936",
          "display": "Victor Lagarde"
        },
        "effectiveDateTime": "2025-03-14T04:48:18Z",
        "specimen": {
          "reference": "urn:uuid:4a46eecc-7d69-4475-a882-471fb91fbbf7"
        }
      }
    },
    {
      "fullUrl": "urn:uuid:9a8e4582-6dc5-45de-867b-26bf5263398c",
      "resource": {
        "resourceType": "Observation",
        "id": "9a8e4582-6dc5-45de-867b-26bf5263398c",
        "meta": {
          "profile": [
            "http://hl7.eu/fhir/laboratory/StructureDefinition/Observation-resultslab-eu-lab"
          ]
        },
        "performer": [
          {
            "display": "The Central European Lab"
          }
        ],
        "category": [
          {
            "coding": [
              {
                "system": "http://terminology.hl7.org/CodeSystem/observation-category",
                "code": "laboratory"
              }
            ]
          }
        ],
        "code": {
          "coding": [
            {
              "code": "2514-8",
              "system": "http://loinc.org",
              "display": "Ketones [Presence] in Urine by Test strip"
            }
          ],
          "text": "Ketones [Presence] in Urine by Test strip"
        },
        "text": {
          "status": "generated",
          "div": "<div xmlns=\"http://www.w3.org/1999/xhtml\"><table class=\"hl7__eu__lab__report\"><tr><th>Test</th><th>14-Mar-2025</th><th>Reference&#xA0;Range</th><th>Unit</th></tr><tr><td>Ketones [Presence] in Urine by Test strip</td></tr></table></div>"
        },
        "status": "final",
        "subject": {
          "reference": "urn:uuid:310dbf6f-b51c-4304-8024-8c0b077d8936",
          "display": "Victor Lagarde"
        },
        "effectiveDateTime": "2025-03-14T04:48:18Z",
        "specimen": {
          "reference": "urn:uuid:4a46eecc-7d69-4475-a882-471fb91fbbf7"
        }
      }
    },
    {
      "fullUrl": "urn:uuid:3a6f0015-20c9-4373-966e-141e855db0a9",
      "resource": {
        "resourceType": "Observation",
        "id": "3a6f0015-20c9-4373-966e-141e855db0a9",
        "meta": {
          "profile": [
            "http://hl7.eu/fhir/laboratory/StructureDefinition/Observation-resultslab-eu-lab"
          ]
        },
        "performer": [
          {
            "display": "The Central European Lab"
          }
        ],
        "category": [
          {
            "coding": [
              {
                "system": "http://terminology.hl7.org/CodeSystem/observation-category",
                "code": "laboratory"
              }
            ]
          }
        ],
        "code": {
          "coding": [
            {
              "code": "5811-5",
              "system": "http://loinc.org",
              "display": "Specific gravity of Urine by Test strip"
            }
          ],
          "text": "Specific gravity of Urine by Test strip"
        },
        "valueQuantity": {
          "system": "http://unitsofmeasure.org",
          "value": 1,
          "unit": "{nominal}",
          "code": "{nominal}"
        },
        "referenceRange": [
          {
            "low": {
              "value": 1.01,
              "code": "g/mL",
              "system": "http://unitsofmeasure.org"
            }
          },
          {
            "high": {
              "value": 1.03,
              "code": "g/mL",
              "system": "http://unitsofmeasure.org"
            }
          }
        ],
        "interpretation": [
          {
            "coding": [
              {
                "code": "L",
                "system": "http://terminology.hl7.org/CodeSystem/v3-ObservationInterpretation",
                "display": "Low"
              }
            ]
          }
        ],
        "text": {
          "status": "generated",
          "div": "<div xmlns=\"http://www.w3.org/1999/xhtml\"><table class=\"hl7__eu__lab__report\"><tr><th>Test</th><th>14-Mar-2025</th><th>Reference&#xA0;Range</th><th>Unit</th></tr><tr><td>Specific gravity of Urine by Test strip</td><td>1.0</td><td>1.01 - 1.03</td><td>L</td><td>{nominal}</td></tr></table></div>"
        },
        "status": "final",
        "subject": {
          "reference": "urn:uuid:310dbf6f-b51c-4304-8024-8c0b077d8936",
          "display": "Victor Lagarde"
        },
        "effectiveDateTime": "2025-03-14T04:48:18Z",
        "specimen": {
          "reference": "urn:uuid:4a46eecc-7d69-4475-a882-471fb91fbbf7"
        }
      }
    },
    {
      "fullUrl": "urn:uuid:4807e6db-753a-48b1-b0bc-e654e896db83",
      "resource": {
        "resourceType": "Observation",
        "id": "4807e6db-753a-48b1-b0bc-e654e896db83",
        "meta": {
          "profile": [
            "http://hl7.eu/fhir/laboratory/StructureDefinition/Observation-resultslab-eu-lab"
          ]
        },
        "performer": [
          {
            "display": "The Central European Lab"
          }
        ],
        "category": [
          {
            "coding": [
              {
                "system": "http://terminology.hl7.org/CodeSystem/observation-category",
                "code": "laboratory"
              }
            ]
          }
        ],
        "code": {
          "coding": [
            {
              "code": "5803-2",
              "system": "http://loinc.org",
              "display": "pH of Urine by Test strip"
            }
          ],
          "text": "pH of Urine by Test strip"
        },
        "valueQuantity": {
          "system": "http://unitsofmeasure.org",
          "value": 5.6,
          "unit": "pH",
          "code": "pH"
        },
        "referenceRange": [
          {
            "low": {
              "value": 4.5,
              "code": "pH",
              "system": "http://unitsofmeasure.org"
            }
          },
          {
            "high": {
              "value": 7.5,
              "code": "pH",
              "system": "http://unitsofmeasure.org"
            }
          }
        ],
        "text": {
          "status": "generated",
          "div": "<div xmlns=\"http://www.w3.org/1999/xhtml\"><table class=\"hl7__eu__lab__report\"><tr><th>Test</th><th>14-Mar-2025</th><th>Reference&#xA0;Range</th><th>Unit</th></tr><tr><td>pH of Urine by Test strip</td><td>5.6</td><td>4.5 - 7.5</td><td></td><td>pH</td></tr></table></div>"
        },
        "status": "final",
        "subject": {
          "reference": "urn:uuid:310dbf6f-b51c-4304-8024-8c0b077d8936",
          "display": "Victor Lagarde"
        },
        "effectiveDateTime": "2025-03-14T04:48:18Z",
        "specimen": {
          "reference": "urn:uuid:4a46eecc-7d69-4475-a882-471fb91fbbf7"
        }
      }
    },
    {
      "fullUrl": "urn:uuid:d4789f20-5b4d-4467-93c5-a0ee9140009a",
      "resource": {
        "resourceType": "Observation",
        "id": "d4789f20-5b4d-4467-93c5-a0ee9140009a",
        "meta": {
          "profile": [
            "http://hl7.eu/fhir/laboratory/StructureDefinition/Observation-resultslab-eu-lab"
          ]
        },
        "performer": [
          {
            "display": "The Central European Lab"
          }
        ],
        "category": [
          {
            "coding": [
              {
                "system": "http://terminology.hl7.org/CodeSystem/observation-category",
                "code": "laboratory"
              }
            ]
          }
        ],
        "code": {
          "coding": [
            {
              "code": "5804-0",
              "system": "http://loinc.org",
              "display": "Protein [Mass/volume] in Urine by Test strip"
            }
          ],
          "text": "Protein [Mass/volume] in Urine by Test strip"
        },
        "valueQuantity": {
          "system": "http://unitsofmeasure.org",
          "value": 382.6,
          "unit": "mg/dL",
          "code": "mg/dL"
        },
        "referenceRange": [
          {
            "low": {
              "value": 0,
              "code": "mg/dL",
              "system": "http://unitsofmeasure.org"
            }
          },
          {
            "high": {
              "value": 149,
              "code": "mg/dL",
              "system": "http://unitsofmeasure.org"
            }
          }
        ],
        "interpretation": [
          {
            "coding": [
              {
                "code": "H",
                "system": "http://terminology.hl7.org/CodeSystem/v3-ObservationInterpretation",
                "display": "High"
              }
            ]
          }
        ],
        "text": {
          "status": "generated",
          "div": "<div xmlns=\"http://www.w3.org/1999/xhtml\"><table class=\"hl7__eu__lab__report\"><tr><th>Test</th><th>14-Mar-2025</th><th>Reference&#xA0;Range</th><th>Unit</th></tr><tr><td>Protein [Mass/volume] in Urine by Test strip</td><td>382.6</td><td>0 - 149</td><td>H</td><td>mg/dL</td></tr></table></div>"
        },
        "status": "final",
        "subject": {
          "reference": "urn:uuid:310dbf6f-b51c-4304-8024-8c0b077d8936",
          "display": "Victor Lagarde"
        },
        "effectiveDateTime": "2025-03-14T04:48:18Z",
        "specimen": {
          "reference": "urn:uuid:4a46eecc-7d69-4475-a882-471fb91fbbf7"
        }
      }
    },
    {
      "fullUrl": "urn:uuid:3376943e-7f9b-454b-8f5d-f38e37694c51",
      "resource": {
        "resourceType": "Observation",
        "id": "3376943e-7f9b-454b-8f5d-f38e37694c51",
        "meta": {
          "profile": [
            "http://hl7.eu/fhir/laboratory/StructureDefinition/Observation-resultslab-eu-lab"
          ]
        },
        "performer": [
          {
            "display": "The Central European Lab"
          }
        ],
        "category": [
          {
            "coding": [
              {
                "system": "http://terminology.hl7.org/CodeSystem/observation-category",
                "code": "laboratory"
              }
            ]
          }
        ],
        "code": {
          "coding": [
            {
              "code": "20454-5",
              "system": "http://loinc.org",
              "display": "Protein [Presence] in Urine by Test strip"
            }
          ],
          "text": "Protein [Presence] in Urine by Test strip"
        },
        "text": {
          "status": "generated",
          "div": "<div xmlns=\"http://www.w3.org/1999/xhtml\"><table class=\"hl7__eu__lab__report\"><tr><th>Test</th><th>14-Mar-2025</th><th>Reference&#xA0;Range</th><th>Unit</th></tr><tr><td>Protein [Presence] in Urine by Test strip</td></tr></table></div>"
        },
        "status": "final",
        "subject": {
          "reference": "urn:uuid:310dbf6f-b51c-4304-8024-8c0b077d8936",
          "display": "Victor Lagarde"
        },
        "effectiveDateTime": "2025-03-14T04:48:18Z",
        "specimen": {
          "reference": "urn:uuid:4a46eecc-7d69-4475-a882-471fb91fbbf7"
        }
      }
    },
    {
      "fullUrl": "urn:uuid:833427df-e85b-4012-97c0-3a75e54bb895",
      "resource": {
        "resourceType": "Observation",
        "id": "833427df-e85b-4012-97c0-3a75e54bb895",
        "meta": {
          "profile": [
            "http://hl7.eu/fhir/laboratory/StructureDefinition/Observation-resultslab-eu-lab"
          ]
        },
        "performer": [
          {
            "display": "The Central European Lab"
          }
        ],
        "category": [
          {
            "coding": [
              {
                "system": "http://terminology.hl7.org/CodeSystem/observation-category",
                "code": "laboratory"
              }
            ]
          }
        ],
        "code": {
          "coding": [
            {
              "code": "5802-4",
              "system": "http://loinc.org",
              "display": "Nitrite [Presence] in Urine by Test strip"
            }
          ],
          "text": "Nitrite [Presence] in Urine by Test strip"
        },
        "text": {
          "status": "generated",
          "div": "<div xmlns=\"http://www.w3.org/1999/xhtml\"><table class=\"hl7__eu__lab__report\"><tr><th>Test</th><th>14-Mar-2025</th><th>Reference&#xA0;Range</th><th>Unit</th></tr><tr><td>Nitrite [Presence] in Urine by Test strip</td></tr></table></div>"
        },
        "status": "final",
        "subject": {
          "reference": "urn:uuid:310dbf6f-b51c-4304-8024-8c0b077d8936",
          "display": "Victor Lagarde"
        },
        "effectiveDateTime": "2025-03-14T04:48:18Z",
        "specimen": {
          "reference": "urn:uuid:4a46eecc-7d69-4475-a882-471fb91fbbf7"
        }
      }
    },
    {
      "fullUrl": "urn:uuid:204716f6-974c-472f-b92a-71ddef1f627b",
      "resource": {
        "resourceType": "Observation",
        "id": "204716f6-974c-472f-b92a-71ddef1f627b",
        "meta": {
          "profile": [
            "http://hl7.eu/fhir/laboratory/StructureDefinition/Observation-resultslab-eu-lab"
          ]
        },
        "performer": [
          {
            "display": "The Central European Lab"
          }
        ],
        "category": [
          {
            "coding": [
              {
                "system": "http://terminology.hl7.org/CodeSystem/observation-category",
                "code": "laboratory"
              }
            ]
          }
        ],
        "code": {
          "coding": [
            {
              "code": "5794-3",
              "system": "http://loinc.org",
              "display": "Hemoglobin [Presence] in Urine by Test strip"
            }
          ],
          "text": "Hemoglobin [Presence] in Urine by Test strip"
        },
        "text": {
          "status": "generated",
          "div": "<div xmlns=\"http://www.w3.org/1999/xhtml\"><table class=\"hl7__eu__lab__report\"><tr><th>Test</th><th>14-Mar-2025</th><th>Reference&#xA0;Range</th><th>Unit</th></tr><tr><td>Hemoglobin [Presence] in Urine by Test strip</td></tr></table></div>"
        },
        "status": "final",
        "subject": {
          "reference": "urn:uuid:310dbf6f-b51c-4304-8024-8c0b077d8936",
          "display": "Victor Lagarde"
        },
        "effectiveDateTime": "2025-03-14T04:48:18Z",
        "specimen": {
          "reference": "urn:uuid:4a46eecc-7d69-4475-a882-471fb91fbbf7"
        }
      }
    },
    {
      "fullUrl": "urn:uuid:ba796440-cae4-46b2-886a-4e7502a95e00",
      "resource": {
        "resourceType": "Observation",
        "id": "ba796440-cae4-46b2-886a-4e7502a95e00",
        "meta": {
          "profile": [
            "http://hl7.eu/fhir/laboratory/StructureDefinition/Observation-resultslab-eu-lab"
          ]
        },
        "performer": [
          {
            "display": "The Central European Lab"
          }
        ],
        "category": [
          {
            "coding": [
              {
                "system": "http://terminology.hl7.org/CodeSystem/observation-category",
                "code": "laboratory"
              }
            ]
          }
        ],
        "code": {
          "coding": [
            {
              "code": "5799-2",
              "system": "http://loinc.org",
              "display": "Leukocyte esterase [Presence] in Urine by Test strip"
            }
          ],
          "text": "Leukocyte esterase [Presence] in Urine by Test strip"
        },
        "text": {
          "status": "generated",
          "div": "<div xmlns=\"http://www.w3.org/1999/xhtml\"><table class=\"hl7__eu__lab__report\"><tr><th>Test</th><th>14-Mar-2025</th><th>Reference&#xA0;Range</th><th>Unit</th></tr><tr><td>Leukocyte esterase [Presence] in Urine by Test strip</td></tr></table></div>"
        },
        "status": "final",
        "subject": {
          "reference": "urn:uuid:310dbf6f-b51c-4304-8024-8c0b077d8936",
          "display": "Victor Lagarde"
        },
        "effectiveDateTime": "2025-03-14T04:48:18Z",
        "specimen": {
          "reference": "urn:uuid:4a46eecc-7d69-4475-a882-471fb91fbbf7"
        }
      }
    },
    {
      "fullUrl": "urn:uuid:15fd3c90-2821-47fb-8215-3ac370ae0e0e",
      "resource": {
        "resourceType": "Observation",
        "id": "15fd3c90-2821-47fb-8215-3ac370ae0e0e",
        "meta": {
          "profile": [
            "http://hl7.eu/fhir/laboratory/StructureDefinition/Observation-resultslab-eu-lab"
          ]
        },
        "performer": [
          {
            "display": "The Central European Lab"
          }
        ],
        "category": [
          {
            "coding": [
              {
                "system": "http://terminology.hl7.org/CodeSystem/observation-category",
                "code": "laboratory"
              }
            ]
          }
        ],
        "code": {
          "coding": [
            {
              "code": "4548-4",
              "system": "http://loinc.org",
              "display": "Hemoglobin A1c/Hemoglobin.total in Blood"
            }
          ],
          "text": "Hemoglobin A1c/Hemoglobin.total in Blood"
        },
        "valueQuantity": {
          "system": "http://unitsofmeasure.org",
          "value": 3.4,
          "unit": "%",
          "code": "%"
        },
        "referenceRange": [
          {
            "low": {
              "value": 4.3,
              "code": "%",
              "system": "http://unitsofmeasure.org"
            }
          },
          {
            "high": {
              "value": 6,
              "code": "%",
              "system": "http://unitsofmeasure.org"
            }
          }
        ],
        "interpretation": [
          {
            "coding": [
              {
                "code": "L",
                "system": "http://terminology.hl7.org/CodeSystem/v3-ObservationInterpretation",
                "display": "Low"
              }
            ]
          }
        ],
        "text": {
          "status": "generated",
          "div": "<div xmlns=\"http://www.w3.org/1999/xhtml\"><table class=\"hl7__eu__lab__report\"><tr><th>Test</th><th>14-Mar-2025</th><th>Reference&#xA0;Range</th><th>Unit</th></tr><tr><td>Hemoglobin A1c/Hemoglobin.total in Blood</td><td>3.4</td><td>4.3 - 6</td><td>L</td><td>%</td></tr></table></div>"
        },
        "status": "final",
        "subject": {
          "reference": "urn:uuid:310dbf6f-b51c-4304-8024-8c0b077d8936",
          "display": "Victor Lagarde"
        },
        "effectiveDateTime": "2025-03-14T04:48:18Z",
        "specimen": {
          "reference": "urn:uuid:cb835f30-b3d3-4821-9fdd-8e0b89104923"
        }
      }
    },
    {
      "fullUrl": "urn:uuid:52b0c7d0-9fd4-4e8b-8683-a7a508d63486",
      "resource": {
        "resourceType": "Observation",
        "id": "52b0c7d0-9fd4-4e8b-8683-a7a508d63486",
        "meta": {
          "profile": [
            "http://hl7.eu/fhir/laboratory/StructureDefinition/Observation-resultslab-eu-lab"
          ]
        },
        "performer": [
          {
            "display": "The Central European Lab"
          }
        ],
        "category": [
          {
            "coding": [
              {
                "system": "http://terminology.hl7.org/CodeSystem/observation-category",
                "code": "laboratory"
              }
            ]
          }
        ],
        "code": {
          "coding": [
            {
              "code": "2339-0",
              "system": "http://loinc.org",
              "display": "Glucose [Mass/volume] in Blood"
            }
          ],
          "text": "Glucose [Mass/volume] in Blood"
        },
        "valueQuantity": {
          "system": "http://unitsofmeasure.org",
          "value": 81.1,
          "unit": "mg/dL",
          "code": "mg/dL"
        },
        "referenceRange": [
          {
            "low": {
              "value": 70,
              "code": "mg/dL",
              "system": "http://unitsofmeasure.org"
            }
          },
          {
            "high": {
              "value": 140,
              "code": "mg/dL",
              "system": "http://unitsofmeasure.org"
            }
          }
        ],
        "text": {
          "status": "generated",
          "div": "<div xmlns=\"http://www.w3.org/1999/xhtml\"><table class=\"hl7__eu__lab__report\"><tr><th>Test</th><th>14-Mar-2025</th><th>Reference&#xA0;Range</th><th>Unit</th></tr><tr><td>Glucose [Mass/volume] in Blood</td><td>81.1</td><td>70 - 140</td><td></td><td>mg/dL</td></tr></table></div>"
        },
        "status": "final",
        "subject": {
          "reference": "urn:uuid:310dbf6f-b51c-4304-8024-8c0b077d8936",
          "display": "Victor Lagarde"
        },
        "effectiveDateTime": "2025-03-14T04:48:18Z",
        "specimen": {
          "reference": "urn:uuid:cb835f30-b3d3-4821-9fdd-8e0b89104923"
        }
      }
    },
    {
      "fullUrl": "urn:uuid:8d9d100e-82ae-4726-a320-b7474da1704c",
      "resource": {
        "resourceType": "Observation",
        "id": "8d9d100e-82ae-4726-a320-b7474da1704c",
        "meta": {
          "profile": [
            "http://hl7.eu/fhir/laboratory/StructureDefinition/Observation-resultslab-eu-lab"
          ]
        },
        "performer": [
          {
            "display": "The Central European Lab"
          }
        ],
        "category": [
          {
            "coding": [
              {
                "system": "http://terminology.hl7.org/CodeSystem/observation-category",
                "code": "laboratory"
              }
            ]
          }
        ],
        "code": {
          "coding": [
            {
              "code": "6299-2",
              "system": "http://loinc.org",
              "display": "Urea nitrogen [Mass/volume] in Blood"
            }
          ],
          "text": "Urea nitrogen [Mass/volume] in Blood"
        },
        "valueQuantity": {
          "system": "http://unitsofmeasure.org",
          "value": 19.9,
          "unit": "mg/dL",
          "code": "mg/dL"
        },
        "referenceRange": [
          {
            "low": {
              "value": 7,
              "code": "mg/dL",
              "system": "http://unitsofmeasure.org"
            }
          },
          {
            "high": {
              "value": 20,
              "code": "mg/dL",
              "system": "http://unitsofmeasure.org"
            }
          }
        ],
        "text": {
          "status": "generated",
          "div": "<div xmlns=\"http://www.w3.org/1999/xhtml\"><table class=\"hl7__eu__lab__report\"><tr><th>Test</th><th>14-Mar-2025</th><th>Reference&#xA0;Range</th><th>Unit</th></tr><tr><td>Urea nitrogen [Mass/volume] in Blood</td><td>19.9</td><td>7 - 20</td><td></td><td>mg/dL</td></tr></table></div>"
        },
        "status": "final",
        "subject": {
          "reference": "urn:uuid:310dbf6f-b51c-4304-8024-8c0b077d8936",
          "display": "Victor Lagarde"
        },
        "effectiveDateTime": "2025-03-14T04:48:18Z",
        "specimen": {
          "reference": "urn:uuid:cb835f30-b3d3-4821-9fdd-8e0b89104923"
        }
      }
    },
    {
      "fullUrl": "urn:uuid:126149b2-cd97-4f8b-8df8-2f41ba7d1fce",
      "resource": {
        "resourceType": "Observation",
        "id": "126149b2-cd97-4f8b-8df8-2f41ba7d1fce",
        "meta": {
          "profile": [
            "http://hl7.eu/fhir/laboratory/StructureDefinition/Observation-resultslab-eu-lab"
          ]
        },
        "performer": [
          {
            "display": "The Central European Lab"
          }
        ],
        "category": [
          {
            "coding": [
              {
                "system": "http://terminology.hl7.org/CodeSystem/observation-category",
                "code": "laboratory"
              }
            ]
          }
        ],
        "code": {
          "coding": [
            {
              "code": "38483-4",
              "system": "http://loinc.org",
              "display": "Creatinine [Mass/volume] in Blood"
            }
          ],
          "text": "Creatinine [Mass/volume] in Blood"
        },
        "valueQuantity": {
          "system": "http://unitsofmeasure.org",
          "value": 3.5,
          "unit": "mg/dL",
          "code": "mg/dL"
        },
        "referenceRange": [
          {
            "low": {
              "value": 0.9,
              "code": "mg/dL",
              "system": "http://unitsofmeasure.org"
            }
          },
          {
            "high": {
              "value": 1.3,
              "code": "mg/dL",
              "system": "http://unitsofmeasure.org"
            }
          }
        ],
        "interpretation": [
          {
            "coding": [
              {
                "code": "H",
                "system": "http://terminology.hl7.org/CodeSystem/v3-ObservationInterpretation",
                "display": "High"
              }
            ]
          }
        ],
        "text": {
          "status": "generated",
          "div": "<div xmlns=\"http://www.w3.org/1999/xhtml\"><table class=\"hl7__eu__lab__report\"><tr><th>Test</th><th>14-Mar-2025</th><th>Reference&#xA0;Range</th><th>Unit</th></tr><tr><td>Creatinine [Mass/volume] in Blood</td><td>3.5</td><td>0.9 - 1.3</td><td>H</td><td>mg/dL</td></tr></table></div>"
        },
        "status": "final",
        "subject": {
          "reference": "urn:uuid:310dbf6f-b51c-4304-8024-8c0b077d8936",
          "display": "Victor Lagarde"
        },
        "effectiveDateTime": "2025-03-14T04:48:18Z",
        "specimen": {
          "reference": "urn:uuid:cb835f30-b3d3-4821-9fdd-8e0b89104923"
        }
      }
    },
    {
      "fullUrl": "urn:uuid:aeff163e-c6f3-4724-a765-fee1d0ad38d1",
      "resource": {
        "resourceType": "Observation",
        "id": "aeff163e-c6f3-4724-a765-fee1d0ad38d1",
        "meta": {
          "profile": [
            "http://hl7.eu/fhir/laboratory/StructureDefinition/Observation-resultslab-eu-lab"
          ]
        },
        "performer": [
          {
            "display": "The Central European Lab"
          }
        ],
        "category": [
          {
            "coding": [
              {
                "system": "http://terminology.hl7.org/CodeSystem/observation-category",
                "code": "laboratory"
              }
            ]
          }
        ],
        "code": {
          "coding": [
            {
              "code": "49765-1",
              "system": "http://loinc.org",
              "display": "Calcium [Mass/volume] in Blood"
            }
          ],
          "text": "Calcium [Mass/volume] in Blood"
        },
        "valueQuantity": {
          "system": "http://unitsofmeasure.org",
          "value": 9.6,
          "unit": "mg/dL",
          "code": "mg/dL"
        },
        "referenceRange": [
          {
            "low": {
              "value": 8.5,
              "code": "mg/dL",
              "system": "http://unitsofmeasure.org"
            }
          },
          {
            "high": {
              "value": 10.5,
              "code": "mg/dL",
              "system": "http://unitsofmeasure.org"
            }
          }
        ],
        "text": {
          "status": "generated",
          "div": "<div xmlns=\"http://www.w3.org/1999/xhtml\"><table class=\"hl7__eu__lab__report\"><tr><th>Test</th><th>14-Mar-2025</th><th>Reference&#xA0;Range</th><th>Unit</th></tr><tr><td>Calcium [Mass/volume] in Blood</td><td>9.6</td><td>8.5 - 10.5</td><td></td><td>mg/dL</td></tr></table></div>"
        },
        "status": "final",
        "subject": {
          "reference": "urn:uuid:310dbf6f-b51c-4304-8024-8c0b077d8936",
          "display": "Victor Lagarde"
        },
        "effectiveDateTime": "2025-03-14T04:48:18Z",
        "specimen": {
          "reference": "urn:uuid:cb835f30-b3d3-4821-9fdd-8e0b89104923"
        }
      }
    },
    {
      "fullUrl": "urn:uuid:a1a222b6-852b-431c-a256-abe7b4c4ac2d",
      "resource": {
        "resourceType": "Observation",
        "id": "a1a222b6-852b-431c-a256-abe7b4c4ac2d",
        "meta": {
          "profile": [
            "http://hl7.eu/fhir/laboratory/StructureDefinition/Observation-resultslab-eu-lab"
          ]
        },
        "performer": [
          {
            "display": "The Central European Lab"
          }
        ],
        "category": [
          {
            "coding": [
              {
                "system": "http://terminology.hl7.org/CodeSystem/observation-category",
                "code": "laboratory"
              }
            ]
          }
        ],
        "code": {
          "coding": [
            {
              "code": "2947-0",
              "system": "http://loinc.org",
              "display": "Sodium [Moles/volume] in Blood"
            }
          ],
          "text": "Sodium [Moles/volume] in Blood"
        },
        "valueQuantity": {
          "system": "http://unitsofmeasure.org",
          "value": 137.2,
          "unit": "mmol/L",
          "code": "mmol/L"
        },
        "referenceRange": [
          {
            "low": {
              "value": 135,
              "code": "mmol/L",
              "system": "http://unitsofmeasure.org"
            }
          },
          {
            "high": {
              "value": 145,
              "code": "mmol/L",
              "system": "http://unitsofmeasure.org"
            }
          }
        ],
        "text": {
          "status": "generated",
          "div": "<div xmlns=\"http://www.w3.org/1999/xhtml\"><table class=\"hl7__eu__lab__report\"><tr><th>Test</th><th>14-Mar-2025</th><th>Reference&#xA0;Range</th><th>Unit</th></tr><tr><td>Sodium [Moles/volume] in Blood</td><td>137.2</td><td>135 - 145</td><td></td><td>mmol/L</td></tr></table></div>"
        },
        "status": "final",
        "subject": {
          "reference": "urn:uuid:310dbf6f-b51c-4304-8024-8c0b077d8936",
          "display": "Victor Lagarde"
        },
        "effectiveDateTime": "2025-03-14T04:48:18Z",
        "specimen": {
          "reference": "urn:uuid:cb835f30-b3d3-4821-9fdd-8e0b89104923"
        }
      }
    },
    {
      "fullUrl": "urn:uuid:67c1cef2-ad4b-4e69-ba12-ad622b8c6075",
      "resource": {
        "resourceType": "Observation",
        "id": "67c1cef2-ad4b-4e69-ba12-ad622b8c6075",
        "meta": {
          "profile": [
            "http://hl7.eu/fhir/laboratory/StructureDefinition/Observation-resultslab-eu-lab"
          ]
        },
        "performer": [
          {
            "display": "The Central European Lab"
          }
        ],
        "category": [
          {
            "coding": [
              {
                "system": "http://terminology.hl7.org/CodeSystem/observation-category",
                "code": "laboratory"
              }
            ]
          }
        ],
        "code": {
          "coding": [
            {
              "code": "6298-4",
              "system": "http://loinc.org",
              "display": "Potassium [Moles/volume] in Blood"
            }
          ],
          "text": "Potassium [Moles/volume] in Blood"
        },
        "valueQuantity": {
          "system": "http://unitsofmeasure.org",
          "value": 4,
          "unit": "mmol/L",
          "code": "mmol/L"
        },
        "referenceRange": [
          {
            "low": {
              "value": 3.5,
              "code": "mmol/L",
              "system": "http://unitsofmeasure.org"
            }
          },
          {
            "high": {
              "value": 5.1,
              "code": "mmol/L",
              "system": "http://unitsofmeasure.org"
            }
          }
        ],
        "text": {
          "status": "generated",
          "div": "<div xmlns=\"http://www.w3.org/1999/xhtml\"><table class=\"hl7__eu__lab__report\"><tr><th>Test</th><th>14-Mar-2025</th><th>Reference&#xA0;Range</th><th>Unit</th></tr><tr><td>Potassium [Moles/volume] in Blood</td><td>4.0</td><td>3.5 - 5.1</td><td></td><td>mmol/L</td></tr></table></div>"
        },
        "status": "final",
        "subject": {
          "reference": "urn:uuid:310dbf6f-b51c-4304-8024-8c0b077d8936",
          "display": "Victor Lagarde"
        },
        "effectiveDateTime": "2025-03-14T04:48:18Z",
        "specimen": {
          "reference": "urn:uuid:cb835f30-b3d3-4821-9fdd-8e0b89104923"
        }
      }
    },
    {
      "fullUrl": "urn:uuid:59fbcce3-e98b-478b-8dce-b8f470c3fae2",
      "resource": {
        "resourceType": "Observation",
        "id": "59fbcce3-e98b-478b-8dce-b8f470c3fae2",
        "meta": {
          "profile": [
            "http://hl7.eu/fhir/laboratory/StructureDefinition/Observation-resultslab-eu-lab"
          ]
        },
        "performer": [
          {
            "display": "The Central European Lab"
          }
        ],
        "category": [
          {
            "coding": [
              {
                "system": "http://terminology.hl7.org/CodeSystem/observation-category",
                "code": "laboratory"
              }
            ]
          }
        ],
        "code": {
          "coding": [
            {
              "code": "2069-3",
              "system": "http://loinc.org",
              "display": "Chloride [Moles/volume] in Blood"
            }
          ],
          "text": "Chloride [Moles/volume] in Blood"
        },
        "valueQuantity": {
          "system": "http://unitsofmeasure.org",
          "value": 105,
          "unit": "mmol/L",
          "code": "mmol/L"
        },
        "referenceRange": [
          {
            "low": {
              "value": 98,
              "code": "mmol/L",
              "system": "http://unitsofmeasure.org"
            }
          },
          {
            "high": {
              "value": 108,
              "code": "mmol/L",
              "system": "http://unitsofmeasure.org"
            }
          }
        ],
        "text": {
          "status": "generated",
          "div": "<div xmlns=\"http://www.w3.org/1999/xhtml\"><table class=\"hl7__eu__lab__report\"><tr><th>Test</th><th>14-Mar-2025</th><th>Reference&#xA0;Range</th><th>Unit</th></tr><tr><td>Chloride [Moles/volume] in Blood</td><td>105.0</td><td>98 - 108</td><td></td><td>mmol/L</td></tr></table></div>"
        },
        "status": "final",
        "subject": {
          "reference": "urn:uuid:310dbf6f-b51c-4304-8024-8c0b077d8936",
          "display": "Victor Lagarde"
        },
        "effectiveDateTime": "2025-03-14T04:48:18Z",
        "specimen": {
          "reference": "urn:uuid:cb835f30-b3d3-4821-9fdd-8e0b89104923"
        }
      }
    },
    {
      "fullUrl": "urn:uuid:d67b2524-0329-46dd-9ddc-c3e3e94cba7b",
      "resource": {
        "resourceType": "Observation",
        "id": "d67b2524-0329-46dd-9ddc-c3e3e94cba7b",
        "meta": {
          "profile": [
            "http://hl7.eu/fhir/laboratory/StructureDefinition/Observation-resultslab-eu-lab"
          ]
        },
        "performer": [
          {
            "display": "The Central European Lab"
          }
        ],
        "category": [
          {
            "coding": [
              {
                "system": "http://terminology.hl7.org/CodeSystem/observation-category",
                "code": "laboratory"
              }
            ]
          }
        ],
        "code": {
          "coding": [
            {
              "code": "20565-8",
              "system": "http://loinc.org",
              "display": "Carbon dioxide, total [Moles/volume] in Blood"
            }
          ],
          "text": "Carbon dioxide, total [Moles/volume] in Blood"
        },
        "valueQuantity": {
          "system": "http://unitsofmeasure.org",
          "value": 28.8,
          "unit": "mmol/L",
          "code": "mmol/L"
        },
        "referenceRange": [
          {
            "low": {
              "value": 22,
              "code": "mmol/L",
              "system": "http://unitsofmeasure.org"
            }
          },
          {
            "high": {
              "value": 29,
              "code": "mmol/L",
              "system": "http://unitsofmeasure.org"
            }
          }
        ],
        "text": {
          "status": "generated",
          "div": "<div xmlns=\"http://www.w3.org/1999/xhtml\"><table class=\"hl7__eu__lab__report\"><tr><th>Test</th><th>14-Mar-2025</th><th>Reference&#xA0;Range</th><th>Unit</th></tr><tr><td>Carbon dioxide, total [Moles/volume] in Blood</td><td>28.8</td><td>22 - 29</td><td></td><td>mmol/L</td></tr></table></div>"
        },
        "status": "final",
        "subject": {
          "reference": "urn:uuid:310dbf6f-b51c-4304-8024-8c0b077d8936",
          "display": "Victor Lagarde"
        },
        "effectiveDateTime": "2025-03-14T04:48:18Z",
        "specimen": {
          "reference": "urn:uuid:cb835f30-b3d3-4821-9fdd-8e0b89104923"
        }
      }
    },
    {
      "fullUrl": "urn:uuid:559a398c-f357-4d92-a88a-3bdaf6f35486",
      "resource": {
        "resourceType": "Device",
        "id": "559a398c-f357-4d92-a88a-3bdaf6f35486",
        "deviceName": [
          {
            "name": "SYNDERAI Synthetic Generator",
            "type": "manufacturer-name"
          }
        ],
        "version": [
          {
            "value": "5.0"
          }
        ],
        "text": {
          "status": "generated",
          "div": "<div xmlns=\"http://www.w3.org/1999/xhtml\">SYNDERAI Synthetic Generator v5.0</div>"
        },
        "status": "active\"",
        "distinctIdentifier": "synderai-generator-50",
        "manufacturer": "SYNDERAI Project"
      }
    },
    {
      "fullUrl": "urn:uuid:bd7159a6-febc-409a-9083-c423863c251e",
      "resource": {
        "resourceType": "Provenance",
        "id": "bd7159a6-febc-409a-9083-c423863c251e",
        "target": [
          {
            "reference": "Patient/310dbf6f-b51c-4304-8024-8c0b077d8936"
          },
          {
            "reference": "Bundle/164884b3-f7dc-4654-9bcd-02f3523daa43"
          },
          {
            "reference": "Composition/047f02d0-68c2-491d-af9c-97904c95dda0"
          },
          {
            "reference": "PractitionerRole/4e6d525f-a514-4426-977a-1ca9eeba1029"
          },
          {
            "reference": "Practitioner/ebfa36f6-8777-4fb2-a224-db6cba66e50e"
          },
          {
            "reference": "PractitionerRole/95be0db2-db48-4e1c-8328-59ff453d9939"
          },
          {
            "reference": "Organization/e79c8241-6606-42ca-980b-450897865a8b"
          }
        ],
        "activity": {
          "text": "Synthetic Example Data Generation"
        },
        "policy": [
          "https://synderai.net/synderai-synthetic-data-policy"
        ],
        "agent": [
          {
            "type": {
              "text": "author"
            },
            "who": {
              "reference": "Device/559a398c-f357-4d92-a88a-3bdaf6f35486"
            }
          }
        ],
        "reason": [
          {
            "text": "Interoperability Testing and Training (non-clinical use)"
          }
        ],
        "text": {
          "status": "generated",
          "div": "<div xmlns=\"http://www.w3.org/1999/xhtml\">Provenance for SYNDERAI Synthetic Example Data Resource</div>"
        },
        "recorded": "2025-03-14T05:48:18Z"
      }
    },
    {
      "fullUrl": "urn:uuid:4e6d525f-a514-4426-977a-1ca9eeba1029",
      "resource": {
        "resourceType": "PractitionerRole",
        "id": "4e6d525f-a514-4426-977a-1ca9eeba1029",
        "meta": {
          "profile": [
            "http://hl7.eu/fhir/base/StructureDefinition/practitionerRole-eu"
          ]
        },
        "text": {
          "status": "generated",
          "div": "<div xmlns=\"http://www.w3.org/1999/xhtml\">Laboratory Role Id: 4e6d525f-a514-4426-977a-1ca9eeba1029</div>"
        },
        "practitioner": {
          "reference": "urn:uuid:ebfa36f6-8777-4fb2-a224-db6cba66e50e"
        }
      }
    },
    {
      "fullUrl": "urn:uuid:ebfa36f6-8777-4fb2-a224-db6cba66e50e",
      "resource": {
        "resourceType": "Practitioner",
        "id": "ebfa36f6-8777-4fb2-a224-db6cba66e50e",
        "meta": {
          "profile": [
            "http://hl7.eu/fhir/base/StructureDefinition/practitioner-eu"
          ]
        },
        "identifier": [
          {
            "assigner": {
              "display": "HL7 Europe"
            },
            "system": "urn:oid:2.16.840.1.113883.2.51.999",
            "value": "cbe1d552-b867-4f97-b254-91809c51e7a6"
          }
        ],
        "name": [
          {
            "prefix": [
              "dr"
            ],
            "given": [
              "Ex"
            ],
            "family": "Ample"
          }
        ],
        "address": [
          {
            "line": [
              "Laboratoire Central Europenne",
              "Boulevard du Jardin Botanique 32"
            ],
            "postalCode": "1000",
            "city": "Brussels",
            "country": "Belgium"
          }
        ],
        "text": {
          "status": "generated",
          "div": "<div xmlns=\"http://www.w3.org/1999/xhtml\">Laboratory: Laboratoire Central Europenne, 1000 Brussels, Belgium</div>"
        }
      }
    }
  ],
  "type": "document",
  "timestamp": "2025-03-14T05:48:18Z"
}
