{
  "resourceType": "Bundle",
  "id": "9b7b3cac-99a3-44c5-9359-42154d476854",
  "meta": {
    "profile": [
      "http://hl7.eu/fhir/laboratory/StructureDefinition/Bundle-eu-lab"
    ]
  },
  "identifier": {
    "assigner": {
      "display": "HL7 Europe"
    },
    "system": "urn:oid:2.16.840.1.113883.2.51.999",
    "value": "69e983e1-53d6-4822-af95-80f748c712e1"
  },
  "entry": [
    {
      "fullUrl": "urn:uuid:83493848-22e0-4286-a0bf-c86940013bf5",
      "resource": {
        "resourceType": "Composition",
        "id": "83493848-22e0-4286-a0bf-c86940013bf5",
        "meta": {
          "profile": [
            "http://hl7.eu/fhir/laboratory/StructureDefinition/Composition-eu-lab"
          ]
        },
        "identifier": {
          "assigner": {
            "display": "HL7 Europe"
          },
          "system": "urn:oid:2.16.840.1.113883.2.51.999",
          "value": "a0e60dd3-c311-4492-b386-ebda2fab9619"
        },
        "author": [
          {
            "reference": "urn:uuid:085c9ea7-af10-4087-b048-a01780ac3c9d"
          }
        ],
        "category": [
          {
            "coding": [
              {
                "code": "26436-6",
                "system": "http://loinc.org",
                "display": "Laboratory studies (set)"
              }
            ]
          }
        ],
        "type": {
          "coding": [
            {
              "code": "11502-2",
              "system": "http://loinc.org",
              "display": "Laboratory report"
            }
          ],
          "text": "Laboratory Report"
        },
        "section": [
          {
            "code": {
              "coding": [
                {
                  "code": "26436-6",
                  "system": "http://loinc.org",
                  "display": "Laboratory studies (set)"
                }
              ],
              "text": "Laboratory studies"
            },
            "section": [
              {
                "code": {
                  "coding": [
                    {
                      "code": "$18719-5",
                      "system": "http://loinc.org",
                      "display": "Chemistry studies (set)"
                    }
                  ],
                  "text": "Chemistry"
                },
                "entry": [
                  {
                    "reference": "urn:uuid:4b04cd98-ca3d-4116-ad72-91fe00d91045"
                  },
                  {
                    "reference": "urn:uuid:e396fbad-4f21-4fdc-97d7-84564992c5bf"
                  },
                  {
                    "reference": "urn:uuid:392af801-f687-42fd-8d41-173b864eb4e8"
                  },
                  {
                    "reference": "urn:uuid:447101df-a572-40f7-903e-2211abfcee0d"
                  },
                  {
                    "reference": "urn:uuid:3eea84a2-296a-4f47-8d82-04a4b4c70bdf"
                  },
                  {
                    "reference": "urn:uuid:a23e7d29-f464-47ab-a963-f8991c9a5d91"
                  },
                  {
                    "reference": "urn:uuid:888f8a2b-12d7-4aa9-81bf-e4629a1e3e15"
                  },
                  {
                    "reference": "urn:uuid:83b95e03-1f4f-45ab-889c-c8487de0892d"
                  },
                  {
                    "reference": "urn:uuid:cd4e74dc-e75b-4df3-84a8-9f9f78cc930c"
                  },
                  {
                    "reference": "urn:uuid:ce079896-1c31-4753-b971-3556730915e5"
                  },
                  {
                    "reference": "urn:uuid:6fa981aa-4c10-4602-b1b1-47a9fb2749fc"
                  },
                  {
                    "reference": "urn:uuid:f9679fcd-1c8d-415d-b2ab-744dedbebb5b"
                  },
                  {
                    "reference": "urn:uuid:b45445c2-c2c0-49fd-b100-003031dd48b4"
                  },
                  {
                    "reference": "urn:uuid:528ef66d-54e1-4a88-8beb-0f71da507b39"
                  },
                  {
                    "reference": "urn:uuid:0e3e5b86-ffd9-433a-8df8-eb0e99d836d0"
                  },
                  {
                    "reference": "urn:uuid:c681cd44-32b8-436b-b164-c13d90998042"
                  },
                  {
                    "reference": "urn:uuid:65efc9ec-9db1-4819-911a-d894e5389df3"
                  },
                  {
                    "reference": "urn:uuid:5b77cb2c-c7b1-4590-98c0-2bd11f4cc1e6"
                  },
                  {
                    "reference": "urn:uuid:2d15ca36-5175-47b3-940d-ed3975333b84"
                  },
                  {
                    "reference": "urn:uuid:a4dc21f5-db9f-43f3-852a-4bee0e733673"
                  },
                  {
                    "reference": "urn:uuid:6d481309-6039-4370-b932-0ff58ad7b7fe"
                  },
                  {
                    "reference": "urn:uuid:82e7c4fe-a2ff-4c9f-93b6-1ef91de8c3a8"
                  }
                ],
                "text": {
                  "status": "generated",
                  "div": "<div xmlns=\"http://www.w3.org/1999/xhtml\"><h3>Chemistry</h3><table class=\"hl7__eu__lab__report\"><thead><tr><th>Test</th><th>27-NOV-2024</th><th>Reference&#xA0;Range</th><th>Unit</th></tr></thead><tbody><tr><td>Glucose [Mass/volume] in Serum or Plasma</td><td>79.6</td><td>70 - 140</td><td>mg/dL</td></tr><tr><td>Urea nitrogen [Mass/volume] in Serum or Plasma</td><td>15.4</td><td>7 - 20</td><td>mg/dL</td></tr><tr><td>Creatinine [Mass/volume] in Serum or Plasma</td><td><strong>2.0 H</strong></td><td>0.9 - 1.3</td><td>mg/dL</td></tr><tr><td>Calcium [Mass/volume] in Serum or Plasma</td><td>10.1</td><td>8.5 - 10.5</td><td>mg/dL</td></tr><tr><td>Sodium [Moles/volume] in Serum or Plasma</td><td>140.5</td><td>135 - 145</td><td>mmol/L</td></tr><tr><td>Potassium [Moles/volume] in Serum or Plasma</td><td>3.8</td><td>3.5 - 5</td><td>mmol/L</td></tr><tr><td>Chloride [Moles/volume] in Serum or Plasma</td><td>104.7</td><td>98 - 108</td><td>mmol/L</td></tr><tr><td>Carbon dioxide, total [Moles/volume] in Serum or Plasma</td><td>24.0</td><td>22 - 29</td><td>mmol/L</td></tr><tr><td>Ketones [Presence] in Urine by Test strip</td><td>Urine ketone test = ++</td><td></td><td></td></tr><tr><td>Hemoglobin A1c/Hemoglobin.total in Blood</td><td><strong>3.2 L</strong></td><td>4.3 - 6.4</td><td>%</td></tr><tr><td>Glucose [Mass/volume] in Blood</td><td>79.6</td><td>70 - 140</td><td>mg/dL</td></tr><tr><td>Urea nitrogen [Mass/volume] in Blood</td><td>15.4</td><td>7 - 20</td><td>mg/dL</td></tr><tr><td>Creatinine [Mass/volume] in Blood</td><td><strong>6.8 H</strong></td><td>0.6 - 1.3</td><td>mg/dL</td></tr><tr><td>Calcium [Mass/volume] in Blood</td><td>10.1</td><td>8.5 - 10.5</td><td>mg/dL</td></tr><tr><td>Sodium [Moles/volume] in Blood</td><td>140.5</td><td>135 - 145</td><td>mmol/L</td></tr><tr><td>Potassium [Moles/volume] in Blood</td><td>3.8</td><td>3.5 - 5.3</td><td>mmol/L</td></tr><tr><td>Chloride [Moles/volume] in Blood</td><td>104.7</td><td>98 - 110</td><td>mmol/L</td></tr><tr><td>Carbon dioxide, total [Moles/volume] in Blood</td><td>24.0</td><td>22 - 29</td><td>mmol/L</td></tr><tr><td>Cholesterol [Mass/volume] in Serum or Plasma</td><td>192.9</td><td>125 - 200</td><td>mg/dL</td></tr><tr><td>Triglyceride [Mass/volume] in Serum or Plasma</td><td>122.0</td><td>0 - 150</td><td>mg/dL</td></tr><tr><td>Cholesterol in LDL [Mass/volume] in Serum or Plasma by Direct assay</td><td><strong>144.9 H</strong></td><td>0 - 130</td><td>mg/dL</td></tr><tr><td>Cholesterol in HDL [Mass/volume] in Serum or Plasma</td><td><strong>23.6 L</strong></td><td>40 - 60</td><td>mg/dL</td></tr></tbody></table></div>"
                },
                "title": "Chemistry"
              },
              {
                "code": {
                  "coding": [
                    {
                      "code": "$18729-4",
                      "system": "http://loinc.org",
                      "display": "Urinalysis studies (set)"
                    }
                  ],
                  "text": "Urinalysis"
                },
                "entry": [
                  {
                    "reference": "urn:uuid:cde7c730-18d6-4091-99df-c585d72e478e"
                  },
                  {
                    "reference": "urn:uuid:e88467cc-95af-48c7-9a66-dc60cfe5fda6"
                  },
                  {
                    "reference": "urn:uuid:0ce5bb2f-8307-47c9-9e3a-16e9401c5928"
                  },
                  {
                    "reference": "urn:uuid:b01232d9-3cff-4f7b-b284-ff7ceb2adc0d"
                  },
                  {
                    "reference": "urn:uuid:f676ccc3-ec4b-4d67-80fc-12f0b7a527ff"
                  },
                  {
                    "reference": "urn:uuid:dfb4e1ff-ac0d-4e60-a260-9ddfb1dc5610"
                  },
                  {
                    "reference": "urn:uuid:f1570d13-bb1c-490a-bb15-8085b3c172ff"
                  },
                  {
                    "reference": "urn:uuid:8df9a76a-2c5c-4275-b4cd-55ab9549e161"
                  },
                  {
                    "reference": "urn:uuid:7728e75d-7db7-44ee-955e-ffc60f32004f"
                  },
                  {
                    "reference": "urn:uuid:22070b06-c626-443e-a9b8-e1db9d6e3dda"
                  },
                  {
                    "reference": "urn:uuid:b27ad7e5-9aa3-40c8-86fb-907ca72a4bff"
                  },
                  {
                    "reference": "urn:uuid:6d6ef792-5e72-43a7-9772-c326fd1ae488"
                  }
                ],
                "text": {
                  "status": "generated",
                  "div": "<div xmlns=\"http://www.w3.org/1999/xhtml\"><h3>Urinalysis</h3><table class=\"hl7__eu__lab__report\"><thead><tr><th>Test</th><th>27-NOV-2024</th><th>Reference&#xA0;Range</th><th>Unit</th></tr></thead><tbody><tr><td>Glucose [Mass/volume] in Urine by Test strip</td><td><strong>1.4 H</strong></td><td>0 - 0.8</td><td>mg/dL</td></tr><tr><td>Glucose [Presence] in Urine by Test strip</td><td>++</td><td></td><td></td></tr><tr><td>Bilirubin.total [Mass/volume] in Urine by Test strip</td><td><strong>1.3 H</strong></td><td>0.2 - 1</td><td>mg/dL</td></tr><tr><td>Bilirubin.total [Presence] in Urine by Test strip</td><td>Finding of bilirubin in urine</td><td></td><td></td></tr><tr><td>Ketones [Mass/volume] in Urine by Test strip</td><td>2.0</td><td>0 - 5</td><td>mg/dL</td></tr><tr><td>Specific gravity of Urine by Test strip</td><td><strong>1.0 L</strong></td><td>1.005 - 1.03</td><td>{nominal}</td></tr><tr><td>pH of Urine by Test strip</td><td>5.2</td><td>4.6 - 7</td><td>pH</td></tr><tr><td>Protein [Mass/volume] in Urine by Test strip</td><td><strong>292.6 H</strong></td><td>0 - 150</td><td>mg/dL</td></tr><tr><td>Protein [Presence] in Urine by Test strip</td><td>Urine protein test = ++</td><td></td><td></td></tr><tr><td>Nitrite [Presence] in Urine by Test strip</td><td>Urine nitrite negative</td><td></td><td></td></tr><tr><td>Hemoglobin [Presence] in Urine by Test strip</td><td>Urine blood test = negative</td><td></td><td></td></tr><tr><td>Leukocyte esterase [Presence] in Urine by Test strip</td><td>Urine leukocyte test negative</td><td></td><td></td></tr></tbody></table></div>"
                },
                "title": "Urinalysis"
              },
              {
                "code": {
                  "coding": [
                    {
                      "code": "$LP7846-1",
                      "system": "http://loinc.org",
                      "display": "Specimen information"
                    }
                  ],
                  "text": "Specimen information"
                },
                "entry": [
                  {
                    "reference": "urn:uuid:fe307a38-d5c9-4a22-9564-511a0824df0a"
                  },
                  {
                    "reference": "urn:uuid:dfe166a1-77eb-4590-8981-cc239138403a"
                  },
                  {
                    "reference": "urn:uuid:467eea26-9cef-4555-9ff6-079a6323ae84"
                  },
                  {
                    "reference": "urn:uuid:1a141b63-1f99-408e-9860-b9ac0505ee2a"
                  }
                ],
                "text": {
                  "status": "generated",
                  "div": "<div xmlns=\"http://www.w3.org/1999/xhtml\"><h3>Specimen information</h3><table class=\"hl7__eu__lab__report\"><thead><tr><th>Test</th><th>27-NOV-2024</th><th>Specimen</th><th></th></tr></thead><tbody><tr><td>Appearance of Urine</td><td>Cloudy urine</td><td>Urine</td><td></td></tr><tr><td>Odor of Urine</td><td>Urine smell ammoniacal</td><td>Urine</td><td></td></tr><tr><td>Clarity of Urine</td><td>Translucent</td><td>Urine</td><td></td></tr><tr><td>Color of Urine</td><td>Brown color</td><td>Urine</td><td></td></tr></tbody></table></div>"
                },
                "title": "Specimen information"
              }
            ],
            "title": "Laboratory Report"
          },
          {
            "text": {
              "status": "generated",
              "div": "<div xmlns=\"http://www.w3.org/1999/xhtml\"><h3>Annotation</h3><table class=\"hl7__eu__lab__report\"><tr><th>Conclusion and Recommendations based on this report and previous findings known to us</th></tr><tr><td>The patient shows significantly elevated creatinine, proteinuria, and abnormal urine findings (cloudy, brown, low specific gravity), suggesting impaired renal function, possibly chronic kidney disease. There is also glycosuria with low HbA1c, which may indicate renal glycosuria rather than diabetes. Lipid profile shows high LDL and low HDL, increasing cardiovascular risk. Further nephrological evaluation and assessment for underlying causes are recommended.</td></tr></table></div>"
            },
            "code": {
              "coding": [
                {
                  "system": "http://loinc.org",
                  "code": "48767-8",
                  "display": "Annotation comment"
                }
              ]
            },
            "title": "Annotation comment"
          }
        ],
        "status": "final",
        "subject": {
          "reference": "urn:uuid:1c624e56-ed71-464b-a61b-bd914b3fc55f",
          "display": "Θεμιστοκλής Λιναρδάκη"
        },
        "date": "2024-11-27T07:16:00Z",
        "title": "Laboratory Report",
        "confidentiality": "N"
      }
    },
    {
      "fullUrl": "urn:uuid:307676f4-f06e-4ff4-bf25-001bc5f6e010",
      "resource": {
        "resourceType": "DiagnosticReport",
        "id": "307676f4-f06e-4ff4-bf25-001bc5f6e010",
        "meta": {
          "profile": [
            "http://hl7.eu/fhir/laboratory/StructureDefinition/DiagnosticReport-eu-lab"
          ]
        },
        "identifier": [
          {
            "assigner": {
              "display": "HL7 Europe"
            },
            "system": "urn:oid:2.16.840.1.113883.2.51.999",
            "value": "5fbdb830-2683-4329-aca0-f66580eba4c8"
          }
        ],
        "extension": [
          {
            "url": "http://hl7.org/fhir/5.0/StructureDefinition/extension-DiagnosticReport.composition",
            "valueReference": {
              "reference": "urn:uuid:a0e60dd3-c311-4492-b386-ebda2fab9619"
            }
          }
        ],
        "category": [
          {
            "coding": [
              {
                "code": "26436-6",
                "system": "http://loinc.org",
                "display": "Laboratory studies (set)"
              }
            ]
          }
        ],
        "specimen": [
          {
            "reference": "urn:uuid:df9191ce-b228-4c7c-b186-3ce89e735a8a"
          },
          {
            "reference": "urn:uuid:7c89349c-6c11-4456-9b3a-e3357892e37a"
          },
          {
            "reference": "urn:uuid:1b569c54-09d4-4b60-b257-dc818ed380f6"
          }
        ],
        "result": [
          {
            "reference": "urn:uuid:4b04cd98-ca3d-4116-ad72-91fe00d91045"
          },
          {
            "reference": "urn:uuid:e396fbad-4f21-4fdc-97d7-84564992c5bf"
          },
          {
            "reference": "urn:uuid:392af801-f687-42fd-8d41-173b864eb4e8"
          },
          {
            "reference": "urn:uuid:447101df-a572-40f7-903e-2211abfcee0d"
          },
          {
            "reference": "urn:uuid:3eea84a2-296a-4f47-8d82-04a4b4c70bdf"
          },
          {
            "reference": "urn:uuid:a23e7d29-f464-47ab-a963-f8991c9a5d91"
          },
          {
            "reference": "urn:uuid:888f8a2b-12d7-4aa9-81bf-e4629a1e3e15"
          },
          {
            "reference": "urn:uuid:83b95e03-1f4f-45ab-889c-c8487de0892d"
          },
          {
            "reference": "urn:uuid:fe307a38-d5c9-4a22-9564-511a0824df0a"
          },
          {
            "reference": "urn:uuid:dfe166a1-77eb-4590-8981-cc239138403a"
          },
          {
            "reference": "urn:uuid:467eea26-9cef-4555-9ff6-079a6323ae84"
          },
          {
            "reference": "urn:uuid:1a141b63-1f99-408e-9860-b9ac0505ee2a"
          },
          {
            "reference": "urn:uuid:cde7c730-18d6-4091-99df-c585d72e478e"
          },
          {
            "reference": "urn:uuid:e88467cc-95af-48c7-9a66-dc60cfe5fda6"
          },
          {
            "reference": "urn:uuid:0ce5bb2f-8307-47c9-9e3a-16e9401c5928"
          },
          {
            "reference": "urn:uuid:b01232d9-3cff-4f7b-b284-ff7ceb2adc0d"
          },
          {
            "reference": "urn:uuid:f676ccc3-ec4b-4d67-80fc-12f0b7a527ff"
          },
          {
            "reference": "urn:uuid:cd4e74dc-e75b-4df3-84a8-9f9f78cc930c"
          },
          {
            "reference": "urn:uuid:dfb4e1ff-ac0d-4e60-a260-9ddfb1dc5610"
          },
          {
            "reference": "urn:uuid:f1570d13-bb1c-490a-bb15-8085b3c172ff"
          },
          {
            "reference": "urn:uuid:8df9a76a-2c5c-4275-b4cd-55ab9549e161"
          },
          {
            "reference": "urn:uuid:7728e75d-7db7-44ee-955e-ffc60f32004f"
          },
          {
            "reference": "urn:uuid:22070b06-c626-443e-a9b8-e1db9d6e3dda"
          },
          {
            "reference": "urn:uuid:b27ad7e5-9aa3-40c8-86fb-907ca72a4bff"
          },
          {
            "reference": "urn:uuid:6d6ef792-5e72-43a7-9772-c326fd1ae488"
          },
          {
            "reference": "urn:uuid:ce079896-1c31-4753-b971-3556730915e5"
          },
          {
            "reference": "urn:uuid:6fa981aa-4c10-4602-b1b1-47a9fb2749fc"
          },
          {
            "reference": "urn:uuid:f9679fcd-1c8d-415d-b2ab-744dedbebb5b"
          },
          {
            "reference": "urn:uuid:b45445c2-c2c0-49fd-b100-003031dd48b4"
          },
          {
            "reference": "urn:uuid:528ef66d-54e1-4a88-8beb-0f71da507b39"
          },
          {
            "reference": "urn:uuid:0e3e5b86-ffd9-433a-8df8-eb0e99d836d0"
          },
          {
            "reference": "urn:uuid:c681cd44-32b8-436b-b164-c13d90998042"
          },
          {
            "reference": "urn:uuid:65efc9ec-9db1-4819-911a-d894e5389df3"
          },
          {
            "reference": "urn:uuid:5b77cb2c-c7b1-4590-98c0-2bd11f4cc1e6"
          },
          {
            "reference": "urn:uuid:2d15ca36-5175-47b3-940d-ed3975333b84"
          },
          {
            "reference": "urn:uuid:a4dc21f5-db9f-43f3-852a-4bee0e733673"
          },
          {
            "reference": "urn:uuid:6d481309-6039-4370-b932-0ff58ad7b7fe"
          },
          {
            "reference": "urn:uuid:82e7c4fe-a2ff-4c9f-93b6-1ef91de8c3a8"
          }
        ],
        "status": "registered",
        "code": {
          "coding": [
            {
              "code": "11502-2",
              "system": "http://loinc.org",
              "display": "Laboratory report"
            }
          ]
        },
        "subject": {
          "reference": "urn:uuid:1c624e56-ed71-464b-a61b-bd914b3fc55f",
          "display": "Θεμιστοκλής Λιναρδάκη"
        }
      }
    },
    {
      "fullUrl": "urn:uuid:1c624e56-ed71-464b-a61b-bd914b3fc55f",
      "resource": {
        "resourceType": "Patient",
        "id": "1c624e56-ed71-464b-a61b-bd914b3fc55f",
        "meta": {
          "security": [
            {
              "system": "http://terminology.hl7.org/CodeSystem/v3-ActReason",
              "code": "HTEST"
            },
            {
              "system": "http://terminology.hl7.org/CodeSystem/v3-ActReason",
              "code": "TRAIN"
            }
          ],
          "tag": [
            {
              "system": "https://synderai.net/fhir/CodeSystem/tags",
              "code": "synthetic",
              "display": "SYNDERAI Synthetic data"
            }
          ],
          "profile": [
            "http://hl7.eu/fhir/base/StructureDefinition/patient-eu-core"
          ]
        },
        "identifier": [
          {
            "type": {
              "coding": [
                {
                  "code": "PT",
                  "system": "http://terminology.hl7.org/CodeSystem/v2-0203"
                }
              ]
            },
            "system": "http://ec.europa.eu/identifier/eci",
            "value": "5962-476889-7"
          },
          {
            "type": {
              "coding": [
                {
                  "code": "MR",
                  "system": "http://terminology.hl7.org/CodeSystem/v2-0203"
                }
              ]
            },
            "system": "http://local.setting.eu/identifier",
            "value": "925e2603-2ef9-6bdf-1330-2ebf526636c4"
          }
        ],
        "name": [
          {
            "family": "Λιναρδάκη"
          },
          {
            "given": [
              "Θεμιστοκλής"
            ]
          },
          {
            "text": "Θεμιστοκλής Λιναρδάκη"
          }
        ],
        "address": [
          {
            "line": [
              "Αμαρύνθου 54-58"
            ],
            "use": "home",
            "type": "physical",
            "postalCode": "262 21",
            "city": "Πάτρα",
            "country": "Greece"
          }
        ],
        "telecom": [
          {
            "system": "phone",
            "value": "+302226364480"
          }
        ],
        "extension": [
          {
            "url": "http://hl7.org/fhir/StructureDefinition/patient-nationality",
            "valueCodeableConcept": {
              "coding": [
                {
                  "code": "GR",
                  "system": "http://hl7.org/fhir/ValueSet/country"
                }
              ]
            }
          }
        ],
        "text": {
          "status": "generated",
          "div": "<div xmlns=\"http://www.w3.org/1999/xhtml\"><table class=\"hl7__ips\"><tr><td>Θεμιστοκλής Λιναρδάκη</td><td>male</td><td>21-Jan-1974</td></tr></table></div>"
        },
        "gender": "male",
        "birthDate": "1974-01-21"
      }
    },
    {
      "fullUrl": "urn:uuid:04f9a11c-bbe2-4016-ab3f-715917babdec",
      "resource": {
        "resourceType": "ServiceRequest",
        "id": "04f9a11c-bbe2-4016-ab3f-715917babdec",
        "meta": {
          "profile": [
            "http://hl7.eu/fhir/laboratory/StructureDefinition/ServiceRequest-eu-lab"
          ]
        },
        "identifier": [
          {
            "system": "http://example.org",
            "value": "9c8436af-bb4f-4db0-bd36-e53477d8bffe"
          }
        ],
        "specimen": [
          {
            "reference": "urn:uuid:df9191ce-b228-4c7c-b186-3ce89e735a8a"
          },
          {
            "reference": "urn:uuid:7c89349c-6c11-4456-9b3a-e3357892e37a"
          },
          {
            "reference": "urn:uuid:1b569c54-09d4-4b60-b257-dc818ed380f6"
          }
        ],
        "reasonCode": [
          {
            "coding": [
              {
                "code": "237602007",
                "system": "http://snomed.info/sct",
                "display": "Metabolic syndrome X"
              }
            ]
          },
          {
            "coding": [
              {
                "code": "433144002",
                "system": "http://snomed.info/sct",
                "display": "Chronic kidney disease stage 3"
              }
            ]
          },
          {
            "coding": [
              {
                "code": "157141000119108",
                "system": "http://snomed.info/sct",
                "display": "Proteinuria due to type 2 diabetes mellitus"
              }
            ]
          },
          {
            "coding": [
              {
                "code": "431856006",
                "system": "http://snomed.info/sct",
                "display": "Chronic kidney disease stage 2"
              }
            ]
          },
          {
            "coding": [
              {
                "code": "90781000119102",
                "system": "http://snomed.info/sct",
                "display": "Microalbuminuria due to type 2 diabetes mellitus"
              }
            ]
          },
          {
            "coding": [
              {
                "code": "127013003",
                "system": "http://snomed.info/sct",
                "display": "Disorder of kidney due to diabetes mellitus"
              }
            ]
          },
          {
            "coding": [
              {
                "code": "431855005",
                "system": "http://snomed.info/sct",
                "display": "Chronic kidney disease stage 1"
              }
            ]
          },
          {
            "coding": [
              {
                "code": "59621000",
                "system": "http://snomed.info/sct",
                "display": "Essential hypertension"
              }
            ]
          },
          {
            "coding": [
              {
                "code": "15777000",
                "system": "http://snomed.info/sct",
                "display": "Prediabetes"
              }
            ]
          },
          {
            "coding": [
              {
                "code": "271737000",
                "system": "http://snomed.info/sct",
                "display": "Anemia"
              }
            ]
          }
        ],
        "status": "active",
        "intent": "order",
        "code": {
          "coding": [
            {
              "code": "108252007",
              "system": "http://snomed.info/sct",
              "display": "Laboratory procedure"
            }
          ]
        },
        "subject": {
          "reference": "urn:uuid:1c624e56-ed71-464b-a61b-bd914b3fc55f",
          "display": "Θεμιστοκλής Λιναρδάκη"
        },
        "requester": {
          "reference": "urn:uuid:d73989bf-a5cd-46be-b52b-c07b4de7cb56"
        }
      }
    },
    {
      "fullUrl": "urn:uuid:d73989bf-a5cd-46be-b52b-c07b4de7cb56",
      "resource": {
        "resourceType": "PractitionerRole",
        "id": "d73989bf-a5cd-46be-b52b-c07b4de7cb56",
        "meta": {
          "profile": [
            "http://hl7.eu/fhir/base/StructureDefinition/practitionerRole-eu"
          ]
        },
        "text": {
          "status": "generated",
          "div": "<div xmlns=\"http://www.w3.org/1999/xhtml\">Provider Role Id: d73989bf-a5cd-46be-b52b-c07b4de7cb56</div>"
        },
        "organization": {
          "reference": "urn:uuid:a7f7732c-952f-4710-b62b-09cc29b9a0c2"
        }
      }
    },
    {
      "fullUrl": "urn:uuid:a7f7732c-952f-4710-b62b-09cc29b9a0c2",
      "resource": {
        "resourceType": "Organization",
        "id": "a7f7732c-952f-4710-b62b-09cc29b9a0c2",
        "meta": {
          "profile": [
            "http://hl7.eu/fhir/base/StructureDefinition/organization-eu"
          ]
        },
        "identifier": [
          {
            "assigner": {
              "display": "HL7 Europe"
            },
            "system": "urn:oid:2.16.840.1.113883.2.51.999",
            "value": "ffef2850-70da-4936-bb2a-3c6c426d1e15"
          }
        ],
        "address": [
          {
            "line": [
              "211 Odós Filellinon"
            ],
            "city": "Patras",
            "postalCode": "262 21",
            "country": "Greece"
          }
        ],
        "text": {
          "status": "generated",
          "div": "<div xmlns=\"http://www.w3.org/1999/xhtml\">Provider Organization: Dr. Dimitris Economou</div>"
        },
        "name": "Dr. Dimitris Economou"
      }
    },
    {
      "fullUrl": "urn:uuid:df9191ce-b228-4c7c-b186-3ce89e735a8a",
      "resource": {
        "resourceType": "Specimen",
        "id": "df9191ce-b228-4c7c-b186-3ce89e735a8a",
        "meta": {
          "profile": [
            "http://hl7.eu/fhir/laboratory/StructureDefinition/Specimen-eu-lab"
          ]
        },
        "collection": {
          "collectedDateTime": "2024-11-27"
        },
        "text": {
          "status": "generated",
          "div": "<div xmlns=\"http://www.w3.org/1999/xhtml\"><table class=\"hl7__eu__lab__report\"><tr><th>Specimen</th><th>Collection Date</th></tr><tr><td>Acellular blood (serum or plasma) specimen</td><td><span class=\"nb\">27-Nov-2024</span></td></tr></table></div>"
        },
        "type": {
          "coding": [
            {
              "code": "122592007",
              "system": "http://snomed.info/sct",
              "display": "Acellular blood (serum or plasma) specimen"
            }
          ]
        }
      }
    },
    {
      "fullUrl": "urn:uuid:7c89349c-6c11-4456-9b3a-e3357892e37a",
      "resource": {
        "resourceType": "Specimen",
        "id": "7c89349c-6c11-4456-9b3a-e3357892e37a",
        "meta": {
          "profile": [
            "http://hl7.eu/fhir/laboratory/StructureDefinition/Specimen-eu-lab"
          ]
        },
        "collection": {
          "collectedDateTime": "2024-11-27"
        },
        "text": {
          "status": "generated",
          "div": "<div xmlns=\"http://www.w3.org/1999/xhtml\"><table class=\"hl7__eu__lab__report\"><tr><th>Specimen</th><th>Collection Date</th></tr><tr><td>Urine specimen</td><td><span class=\"nb\">27-Nov-2024</span></td></tr></table></div>"
        },
        "type": {
          "coding": [
            {
              "code": "122575003",
              "system": "http://snomed.info/sct",
              "display": "Urine specimen"
            }
          ]
        }
      }
    },
    {
      "fullUrl": "urn:uuid:1b569c54-09d4-4b60-b257-dc818ed380f6",
      "resource": {
        "resourceType": "Specimen",
        "id": "1b569c54-09d4-4b60-b257-dc818ed380f6",
        "meta": {
          "profile": [
            "http://hl7.eu/fhir/laboratory/StructureDefinition/Specimen-eu-lab"
          ]
        },
        "collection": {
          "collectedDateTime": "2024-11-27"
        },
        "text": {
          "status": "generated",
          "div": "<div xmlns=\"http://www.w3.org/1999/xhtml\"><table class=\"hl7__eu__lab__report\"><tr><th>Specimen</th><th>Collection Date</th></tr><tr><td>Whole blood specimen (specimen)</td><td><span class=\"nb\">27-Nov-2024</span></td></tr></table></div>"
        },
        "type": {
          "coding": [
            {
              "code": "258580003",
              "system": "http://snomed.info/sct",
              "display": "Whole blood specimen (specimen)"
            }
          ]
        }
      }
    },
    {
      "fullUrl": "urn:uuid:4b04cd98-ca3d-4116-ad72-91fe00d91045",
      "resource": {
        "resourceType": "Observation",
        "id": "4b04cd98-ca3d-4116-ad72-91fe00d91045",
        "meta": {
          "profile": [
            "http://hl7.eu/fhir/laboratory/StructureDefinition/Observation-resultslab-eu-lab"
          ]
        },
        "performer": [
          {
            "display": "The Central European Lab"
          }
        ],
        "category": [
          {
            "coding": [
              {
                "system": "http://terminology.hl7.org/CodeSystem/observation-category",
                "code": "laboratory"
              }
            ]
          }
        ],
        "code": {
          "coding": [
            {
              "code": "2345-7",
              "system": "http://loinc.org",
              "display": "Glucose [Mass/volume] in Serum or Plasma"
            }
          ],
          "text": "Glucose [Mass/volume] in Serum or Plasma"
        },
        "valueQuantity": {
          "system": "http://unitsofmeasure.org",
          "value": 79.6,
          "unit": "mg/dL",
          "code": "mg/dL"
        },
        "referenceRange": [
          {
            "low": {
              "value": 70,
              "code": "mg/dL",
              "system": "http://unitsofmeasure.org"
            }
          },
          {
            "high": {
              "value": 140,
              "code": "mg/dL",
              "system": "http://unitsofmeasure.org"
            }
          }
        ],
        "text": {
          "status": "generated",
          "div": "<div xmlns=\"http://www.w3.org/1999/xhtml\"><table class=\"hl7__eu__lab__report\"><tr><th>Test</th><th>27-Nov-2024</th><th>Reference&#xA0;Range</th><th>Unit</th></tr><tr><td>Glucose [Mass/volume] in Serum or Plasma</td><td>79.6</td><td>70 - 140</td><td></td><td>mg/dL</td></tr></table></div>"
        },
        "status": "final",
        "subject": {
          "reference": "urn:uuid:1c624e56-ed71-464b-a61b-bd914b3fc55f",
          "display": "Θεμιστοκλής Λιναρδάκη"
        },
        "effectiveDateTime": "2024-11-27T06:16:00Z",
        "specimen": {
          "reference": "urn:uuid:df9191ce-b228-4c7c-b186-3ce89e735a8a"
        }
      }
    },
    {
      "fullUrl": "urn:uuid:e396fbad-4f21-4fdc-97d7-84564992c5bf",
      "resource": {
        "resourceType": "Observation",
        "id": "e396fbad-4f21-4fdc-97d7-84564992c5bf",
        "meta": {
          "profile": [
            "http://hl7.eu/fhir/laboratory/StructureDefinition/Observation-resultslab-eu-lab"
          ]
        },
        "performer": [
          {
            "display": "The Central European Lab"
          }
        ],
        "category": [
          {
            "coding": [
              {
                "system": "http://terminology.hl7.org/CodeSystem/observation-category",
                "code": "laboratory"
              }
            ]
          }
        ],
        "code": {
          "coding": [
            {
              "code": "3094-0",
              "system": "http://loinc.org",
              "display": "Urea nitrogen [Mass/volume] in Serum or Plasma"
            }
          ],
          "text": "Urea nitrogen [Mass/volume] in Serum or Plasma"
        },
        "valueQuantity": {
          "system": "http://unitsofmeasure.org",
          "value": 15.4,
          "unit": "mg/dL",
          "code": "mg/dL"
        },
        "referenceRange": [
          {
            "low": {
              "value": 7,
              "code": "mg/dL",
              "system": "http://unitsofmeasure.org"
            }
          },
          {
            "high": {
              "value": 20,
              "code": "mg/dL",
              "system": "http://unitsofmeasure.org"
            }
          }
        ],
        "text": {
          "status": "generated",
          "div": "<div xmlns=\"http://www.w3.org/1999/xhtml\"><table class=\"hl7__eu__lab__report\"><tr><th>Test</th><th>27-Nov-2024</th><th>Reference&#xA0;Range</th><th>Unit</th></tr><tr><td>Urea nitrogen [Mass/volume] in Serum or Plasma</td><td>15.4</td><td>7 - 20</td><td></td><td>mg/dL</td></tr></table></div>"
        },
        "status": "final",
        "subject": {
          "reference": "urn:uuid:1c624e56-ed71-464b-a61b-bd914b3fc55f",
          "display": "Θεμιστοκλής Λιναρδάκη"
        },
        "effectiveDateTime": "2024-11-27T06:16:00Z",
        "specimen": {
          "reference": "urn:uuid:df9191ce-b228-4c7c-b186-3ce89e735a8a"
        }
      }
    },
    {
      "fullUrl": "urn:uuid:392af801-f687-42fd-8d41-173b864eb4e8",
      "resource": {
        "resourceType": "Observation",
        "id": "392af801-f687-42fd-8d41-173b864eb4e8",
        "meta": {
          "profile": [
            "http://hl7.eu/fhir/laboratory/StructureDefinition/Observation-resultslab-eu-lab"
          ]
        },
        "performer": [
          {
            "display": "The Central European Lab"
          }
        ],
        "category": [
          {
            "coding": [
              {
                "system": "http://terminology.hl7.org/CodeSystem/observation-category",
                "code": "laboratory"
              }
            ]
          }
        ],
        "code": {
          "coding": [
            {
              "code": "2160-0",
              "system": "http://loinc.org",
              "display": "Creatinine [Mass/volume] in Serum or Plasma"
            }
          ],
          "text": "Creatinine [Mass/volume] in Serum or Plasma"
        },
        "valueQuantity": {
          "system": "http://unitsofmeasure.org",
          "value": 2,
          "unit": "mg/dL",
          "code": "mg/dL"
        },
        "referenceRange": [
          {
            "low": {
              "value": 0.9,
              "code": "mg/dL",
              "system": "http://unitsofmeasure.org"
            }
          },
          {
            "high": {
              "value": 1.3,
              "code": "mg/dL",
              "system": "http://unitsofmeasure.org"
            }
          }
        ],
        "interpretation": [
          {
            "coding": [
              {
                "code": "H",
                "system": "http://terminology.hl7.org/CodeSystem/v3-ObservationInterpretation",
                "display": "High"
              }
            ]
          }
        ],
        "text": {
          "status": "generated",
          "div": "<div xmlns=\"http://www.w3.org/1999/xhtml\"><table class=\"hl7__eu__lab__report\"><tr><th>Test</th><th>27-Nov-2024</th><th>Reference&#xA0;Range</th><th>Unit</th></tr><tr><td>Creatinine [Mass/volume] in Serum or Plasma</td><td>2.0</td><td>0.9 - 1.3</td><td>H</td><td>mg/dL</td></tr></table></div>"
        },
        "status": "final",
        "subject": {
          "reference": "urn:uuid:1c624e56-ed71-464b-a61b-bd914b3fc55f",
          "display": "Θεμιστοκλής Λιναρδάκη"
        },
        "effectiveDateTime": "2024-11-27T06:16:00Z",
        "specimen": {
          "reference": "urn:uuid:df9191ce-b228-4c7c-b186-3ce89e735a8a"
        }
      }
    },
    {
      "fullUrl": "urn:uuid:447101df-a572-40f7-903e-2211abfcee0d",
      "resource": {
        "resourceType": "Observation",
        "id": "447101df-a572-40f7-903e-2211abfcee0d",
        "meta": {
          "profile": [
            "http://hl7.eu/fhir/laboratory/StructureDefinition/Observation-resultslab-eu-lab"
          ]
        },
        "performer": [
          {
            "display": "The Central European Lab"
          }
        ],
        "category": [
          {
            "coding": [
              {
                "system": "http://terminology.hl7.org/CodeSystem/observation-category",
                "code": "laboratory"
              }
            ]
          }
        ],
        "code": {
          "coding": [
            {
              "code": "17861-6",
              "system": "http://loinc.org",
              "display": "Calcium [Mass/volume] in Serum or Plasma"
            }
          ],
          "text": "Calcium [Mass/volume] in Serum or Plasma"
        },
        "valueQuantity": {
          "system": "http://unitsofmeasure.org",
          "value": 10.1,
          "unit": "mg/dL",
          "code": "mg/dL"
        },
        "referenceRange": [
          {
            "low": {
              "value": 8.5,
              "code": "mg/dL",
              "system": "http://unitsofmeasure.org"
            }
          },
          {
            "high": {
              "value": 10.5,
              "code": "mg/dL",
              "system": "http://unitsofmeasure.org"
            }
          }
        ],
        "text": {
          "status": "generated",
          "div": "<div xmlns=\"http://www.w3.org/1999/xhtml\"><table class=\"hl7__eu__lab__report\"><tr><th>Test</th><th>27-Nov-2024</th><th>Reference&#xA0;Range</th><th>Unit</th></tr><tr><td>Calcium [Mass/volume] in Serum or Plasma</td><td>10.1</td><td>8.5 - 10.5</td><td></td><td>mg/dL</td></tr></table></div>"
        },
        "status": "final",
        "subject": {
          "reference": "urn:uuid:1c624e56-ed71-464b-a61b-bd914b3fc55f",
          "display": "Θεμιστοκλής Λιναρδάκη"
        },
        "effectiveDateTime": "2024-11-27T06:16:00Z",
        "specimen": {
          "reference": "urn:uuid:df9191ce-b228-4c7c-b186-3ce89e735a8a"
        }
      }
    },
    {
      "fullUrl": "urn:uuid:3eea84a2-296a-4f47-8d82-04a4b4c70bdf",
      "resource": {
        "resourceType": "Observation",
        "id": "3eea84a2-296a-4f47-8d82-04a4b4c70bdf",
        "meta": {
          "profile": [
            "http://hl7.eu/fhir/laboratory/StructureDefinition/Observation-resultslab-eu-lab"
          ]
        },
        "performer": [
          {
            "display": "The Central European Lab"
          }
        ],
        "category": [
          {
            "coding": [
              {
                "system": "http://terminology.hl7.org/CodeSystem/observation-category",
                "code": "laboratory"
              }
            ]
          }
        ],
        "code": {
          "coding": [
            {
              "code": "2951-2",
              "system": "http://loinc.org",
              "display": "Sodium [Moles/volume] in Serum or Plasma"
            }
          ],
          "text": "Sodium [Moles/volume] in Serum or Plasma"
        },
        "valueQuantity": {
          "system": "http://unitsofmeasure.org",
          "value": 140.5,
          "unit": "mmol/L",
          "code": "mmol/L"
        },
        "referenceRange": [
          {
            "low": {
              "value": 135,
              "code": "mmol/L",
              "system": "http://unitsofmeasure.org"
            }
          },
          {
            "high": {
              "value": 145,
              "code": "mmol/L",
              "system": "http://unitsofmeasure.org"
            }
          }
        ],
        "text": {
          "status": "generated",
          "div": "<div xmlns=\"http://www.w3.org/1999/xhtml\"><table class=\"hl7__eu__lab__report\"><tr><th>Test</th><th>27-Nov-2024</th><th>Reference&#xA0;Range</th><th>Unit</th></tr><tr><td>Sodium [Moles/volume] in Serum or Plasma</td><td>140.5</td><td>135 - 145</td><td></td><td>mmol/L</td></tr></table></div>"
        },
        "status": "final",
        "subject": {
          "reference": "urn:uuid:1c624e56-ed71-464b-a61b-bd914b3fc55f",
          "display": "Θεμιστοκλής Λιναρδάκη"
        },
        "effectiveDateTime": "2024-11-27T06:16:00Z",
        "specimen": {
          "reference": "urn:uuid:df9191ce-b228-4c7c-b186-3ce89e735a8a"
        }
      }
    },
    {
      "fullUrl": "urn:uuid:a23e7d29-f464-47ab-a963-f8991c9a5d91",
      "resource": {
        "resourceType": "Observation",
        "id": "a23e7d29-f464-47ab-a963-f8991c9a5d91",
        "meta": {
          "profile": [
            "http://hl7.eu/fhir/laboratory/StructureDefinition/Observation-resultslab-eu-lab"
          ]
        },
        "performer": [
          {
            "display": "The Central European Lab"
          }
        ],
        "category": [
          {
            "coding": [
              {
                "system": "http://terminology.hl7.org/CodeSystem/observation-category",
                "code": "laboratory"
              }
            ]
          }
        ],
        "code": {
          "coding": [
            {
              "code": "2823-3",
              "system": "http://loinc.org",
              "display": "Potassium [Moles/volume] in Serum or Plasma"
            }
          ],
          "text": "Potassium [Moles/volume] in Serum or Plasma"
        },
        "valueQuantity": {
          "system": "http://unitsofmeasure.org",
          "value": 3.8,
          "unit": "mmol/L",
          "code": "mmol/L"
        },
        "referenceRange": [
          {
            "low": {
              "value": 3.5,
              "code": "mmol/L",
              "system": "http://unitsofmeasure.org"
            }
          },
          {
            "high": {
              "value": 5,
              "code": "mmol/L",
              "system": "http://unitsofmeasure.org"
            }
          }
        ],
        "text": {
          "status": "generated",
          "div": "<div xmlns=\"http://www.w3.org/1999/xhtml\"><table class=\"hl7__eu__lab__report\"><tr><th>Test</th><th>27-Nov-2024</th><th>Reference&#xA0;Range</th><th>Unit</th></tr><tr><td>Potassium [Moles/volume] in Serum or Plasma</td><td>3.8</td><td>3.5 - 5</td><td></td><td>mmol/L</td></tr></table></div>"
        },
        "status": "final",
        "subject": {
          "reference": "urn:uuid:1c624e56-ed71-464b-a61b-bd914b3fc55f",
          "display": "Θεμιστοκλής Λιναρδάκη"
        },
        "effectiveDateTime": "2024-11-27T06:16:00Z",
        "specimen": {
          "reference": "urn:uuid:df9191ce-b228-4c7c-b186-3ce89e735a8a"
        }
      }
    },
    {
      "fullUrl": "urn:uuid:888f8a2b-12d7-4aa9-81bf-e4629a1e3e15",
      "resource": {
        "resourceType": "Observation",
        "id": "888f8a2b-12d7-4aa9-81bf-e4629a1e3e15",
        "meta": {
          "profile": [
            "http://hl7.eu/fhir/laboratory/StructureDefinition/Observation-resultslab-eu-lab"
          ]
        },
        "performer": [
          {
            "display": "The Central European Lab"
          }
        ],
        "category": [
          {
            "coding": [
              {
                "system": "http://terminology.hl7.org/CodeSystem/observation-category",
                "code": "laboratory"
              }
            ]
          }
        ],
        "code": {
          "coding": [
            {
              "code": "2075-0",
              "system": "http://loinc.org",
              "display": "Chloride [Moles/volume] in Serum or Plasma"
            }
          ],
          "text": "Chloride [Moles/volume] in Serum or Plasma"
        },
        "valueQuantity": {
          "system": "http://unitsofmeasure.org",
          "value": 104.7,
          "unit": "mmol/L",
          "code": "mmol/L"
        },
        "referenceRange": [
          {
            "low": {
              "value": 98,
              "code": "mmol/L",
              "system": "http://unitsofmeasure.org"
            }
          },
          {
            "high": {
              "value": 108,
              "code": "mmol/L",
              "system": "http://unitsofmeasure.org"
            }
          }
        ],
        "text": {
          "status": "generated",
          "div": "<div xmlns=\"http://www.w3.org/1999/xhtml\"><table class=\"hl7__eu__lab__report\"><tr><th>Test</th><th>27-Nov-2024</th><th>Reference&#xA0;Range</th><th>Unit</th></tr><tr><td>Chloride [Moles/volume] in Serum or Plasma</td><td>104.7</td><td>98 - 108</td><td></td><td>mmol/L</td></tr></table></div>"
        },
        "status": "final",
        "subject": {
          "reference": "urn:uuid:1c624e56-ed71-464b-a61b-bd914b3fc55f",
          "display": "Θεμιστοκλής Λιναρδάκη"
        },
        "effectiveDateTime": "2024-11-27T06:16:00Z",
        "specimen": {
          "reference": "urn:uuid:df9191ce-b228-4c7c-b186-3ce89e735a8a"
        }
      }
    },
    {
      "fullUrl": "urn:uuid:83b95e03-1f4f-45ab-889c-c8487de0892d",
      "resource": {
        "resourceType": "Observation",
        "id": "83b95e03-1f4f-45ab-889c-c8487de0892d",
        "meta": {
          "profile": [
            "http://hl7.eu/fhir/laboratory/StructureDefinition/Observation-resultslab-eu-lab"
          ]
        },
        "performer": [
          {
            "display": "The Central European Lab"
          }
        ],
        "category": [
          {
            "coding": [
              {
                "system": "http://terminology.hl7.org/CodeSystem/observation-category",
                "code": "laboratory"
              }
            ]
          }
        ],
        "code": {
          "coding": [
            {
              "code": "2028-9",
              "system": "http://loinc.org",
              "display": "Carbon dioxide, total [Moles/volume] in Serum or Plasma"
            }
          ],
          "text": "Carbon dioxide, total [Moles/volume] in Serum or Plasma"
        },
        "valueQuantity": {
          "system": "http://unitsofmeasure.org",
          "value": 24,
          "unit": "mmol/L",
          "code": "mmol/L"
        },
        "referenceRange": [
          {
            "low": {
              "value": 22,
              "code": "mmol/L",
              "system": "http://unitsofmeasure.org"
            }
          },
          {
            "high": {
              "value": 29,
              "code": "mmol/L",
              "system": "http://unitsofmeasure.org"
            }
          }
        ],
        "text": {
          "status": "generated",
          "div": "<div xmlns=\"http://www.w3.org/1999/xhtml\"><table class=\"hl7__eu__lab__report\"><tr><th>Test</th><th>27-Nov-2024</th><th>Reference&#xA0;Range</th><th>Unit</th></tr><tr><td>Carbon dioxide, total [Moles/volume] in Serum or Plasma</td><td>24.0</td><td>22 - 29</td><td></td><td>mmol/L</td></tr></table></div>"
        },
        "status": "final",
        "subject": {
          "reference": "urn:uuid:1c624e56-ed71-464b-a61b-bd914b3fc55f",
          "display": "Θεμιστοκλής Λιναρδάκη"
        },
        "effectiveDateTime": "2024-11-27T06:16:00Z",
        "specimen": {
          "reference": "urn:uuid:df9191ce-b228-4c7c-b186-3ce89e735a8a"
        }
      }
    },
    {
      "fullUrl": "urn:uuid:fe307a38-d5c9-4a22-9564-511a0824df0a",
      "resource": {
        "resourceType": "Observation",
        "id": "fe307a38-d5c9-4a22-9564-511a0824df0a",
        "meta": {
          "profile": [
            "http://hl7.eu/fhir/laboratory/StructureDefinition/Observation-resultslab-eu-lab"
          ]
        },
        "performer": [
          {
            "display": "The Central European Lab"
          }
        ],
        "category": [
          {
            "coding": [
              {
                "system": "http://terminology.hl7.org/CodeSystem/observation-category",
                "code": "laboratory"
              }
            ]
          }
        ],
        "code": {
          "coding": [
            {
              "code": "5767-9",
              "system": "http://loinc.org",
              "display": "Appearance of Urine"
            }
          ],
          "text": "Appearance of Urine"
        },
        "text": {
          "status": "generated",
          "div": "<div xmlns=\"http://www.w3.org/1999/xhtml\"><table class=\"hl7__eu__lab__report\"><tr><th>Test</th><th>27-Nov-2024</th><th>Reference&#xA0;Range</th><th>Unit</th></tr><tr><td>Appearance of Urine</td></tr></table></div>"
        },
        "status": "final",
        "subject": {
          "reference": "urn:uuid:1c624e56-ed71-464b-a61b-bd914b3fc55f",
          "display": "Θεμιστοκλής Λιναρδάκη"
        },
        "effectiveDateTime": "2024-11-27T06:16:00Z",
        "specimen": {
          "reference": "urn:uuid:7c89349c-6c11-4456-9b3a-e3357892e37a"
        }
      }
    },
    {
      "fullUrl": "urn:uuid:dfe166a1-77eb-4590-8981-cc239138403a",
      "resource": {
        "resourceType": "Observation",
        "id": "dfe166a1-77eb-4590-8981-cc239138403a",
        "meta": {
          "profile": [
            "http://hl7.eu/fhir/laboratory/StructureDefinition/Observation-resultslab-eu-lab"
          ]
        },
        "performer": [
          {
            "display": "The Central European Lab"
          }
        ],
        "category": [
          {
            "coding": [
              {
                "system": "http://terminology.hl7.org/CodeSystem/observation-category",
                "code": "laboratory"
              }
            ]
          }
        ],
        "code": {
          "coding": [
            {
              "code": "34533-0",
              "system": "http://loinc.org",
              "display": "Odor of Urine"
            }
          ],
          "text": "Odor of Urine"
        },
        "text": {
          "status": "generated",
          "div": "<div xmlns=\"http://www.w3.org/1999/xhtml\"><table class=\"hl7__eu__lab__report\"><tr><th>Test</th><th>27-Nov-2024</th><th>Reference&#xA0;Range</th><th>Unit</th></tr><tr><td>Odor of Urine</td></tr></table></div>"
        },
        "status": "final",
        "subject": {
          "reference": "urn:uuid:1c624e56-ed71-464b-a61b-bd914b3fc55f",
          "display": "Θεμιστοκλής Λιναρδάκη"
        },
        "effectiveDateTime": "2024-11-27T06:16:00Z",
        "specimen": {
          "reference": "urn:uuid:7c89349c-6c11-4456-9b3a-e3357892e37a"
        }
      }
    },
    {
      "fullUrl": "urn:uuid:467eea26-9cef-4555-9ff6-079a6323ae84",
      "resource": {
        "resourceType": "Observation",
        "id": "467eea26-9cef-4555-9ff6-079a6323ae84",
        "meta": {
          "profile": [
            "http://hl7.eu/fhir/laboratory/StructureDefinition/Observation-resultslab-eu-lab"
          ]
        },
        "performer": [
          {
            "display": "The Central European Lab"
          }
        ],
        "category": [
          {
            "coding": [
              {
                "system": "http://terminology.hl7.org/CodeSystem/observation-category",
                "code": "laboratory"
              }
            ]
          }
        ],
        "code": {
          "coding": [
            {
              "code": "32167-9",
              "system": "http://loinc.org",
              "display": "Clarity of Urine"
            }
          ],
          "text": "Clarity of Urine"
        },
        "text": {
          "status": "generated",
          "div": "<div xmlns=\"http://www.w3.org/1999/xhtml\"><table class=\"hl7__eu__lab__report\"><tr><th>Test</th><th>27-Nov-2024</th><th>Reference&#xA0;Range</th><th>Unit</th></tr><tr><td>Clarity of Urine</td></tr></table></div>"
        },
        "status": "final",
        "subject": {
          "reference": "urn:uuid:1c624e56-ed71-464b-a61b-bd914b3fc55f",
          "display": "Θεμιστοκλής Λιναρδάκη"
        },
        "effectiveDateTime": "2024-11-27T06:16:00Z",
        "specimen": {
          "reference": "urn:uuid:7c89349c-6c11-4456-9b3a-e3357892e37a"
        }
      }
    },
    {
      "fullUrl": "urn:uuid:1a141b63-1f99-408e-9860-b9ac0505ee2a",
      "resource": {
        "resourceType": "Observation",
        "id": "1a141b63-1f99-408e-9860-b9ac0505ee2a",
        "meta": {
          "profile": [
            "http://hl7.eu/fhir/laboratory/StructureDefinition/Observation-resultslab-eu-lab"
          ]
        },
        "performer": [
          {
            "display": "The Central European Lab"
          }
        ],
        "category": [
          {
            "coding": [
              {
                "system": "http://terminology.hl7.org/CodeSystem/observation-category",
                "code": "laboratory"
              }
            ]
          }
        ],
        "code": {
          "coding": [
            {
              "code": "5778-6",
              "system": "http://loinc.org",
              "display": "Color of Urine"
            }
          ],
          "text": "Color of Urine"
        },
        "text": {
          "status": "generated",
          "div": "<div xmlns=\"http://www.w3.org/1999/xhtml\"><table class=\"hl7__eu__lab__report\"><tr><th>Test</th><th>27-Nov-2024</th><th>Reference&#xA0;Range</th><th>Unit</th></tr><tr><td>Color of Urine</td></tr></table></div>"
        },
        "status": "final",
        "subject": {
          "reference": "urn:uuid:1c624e56-ed71-464b-a61b-bd914b3fc55f",
          "display": "Θεμιστοκλής Λιναρδάκη"
        },
        "effectiveDateTime": "2024-11-27T06:16:00Z",
        "specimen": {
          "reference": "urn:uuid:7c89349c-6c11-4456-9b3a-e3357892e37a"
        }
      }
    },
    {
      "fullUrl": "urn:uuid:cde7c730-18d6-4091-99df-c585d72e478e",
      "resource": {
        "resourceType": "Observation",
        "id": "cde7c730-18d6-4091-99df-c585d72e478e",
        "meta": {
          "profile": [
            "http://hl7.eu/fhir/laboratory/StructureDefinition/Observation-resultslab-eu-lab"
          ]
        },
        "performer": [
          {
            "display": "The Central European Lab"
          }
        ],
        "category": [
          {
            "coding": [
              {
                "system": "http://terminology.hl7.org/CodeSystem/observation-category",
                "code": "laboratory"
              }
            ]
          }
        ],
        "code": {
          "coding": [
            {
              "code": "5792-7",
              "system": "http://loinc.org",
              "display": "Glucose [Mass/volume] in Urine by Test strip"
            }
          ],
          "text": "Glucose [Mass/volume] in Urine by Test strip"
        },
        "valueQuantity": {
          "system": "http://unitsofmeasure.org",
          "value": 1.4,
          "unit": "mg/dL",
          "code": "mg/dL"
        },
        "referenceRange": [
          {
            "low": {
              "value": 0,
              "code": "mg/dL",
              "system": "http://unitsofmeasure.org"
            }
          },
          {
            "high": {
              "value": 0.8,
              "code": "mg/dL",
              "system": "http://unitsofmeasure.org"
            }
          }
        ],
        "interpretation": [
          {
            "coding": [
              {
                "code": "H",
                "system": "http://terminology.hl7.org/CodeSystem/v3-ObservationInterpretation",
                "display": "High"
              }
            ]
          }
        ],
        "text": {
          "status": "generated",
          "div": "<div xmlns=\"http://www.w3.org/1999/xhtml\"><table class=\"hl7__eu__lab__report\"><tr><th>Test</th><th>27-Nov-2024</th><th>Reference&#xA0;Range</th><th>Unit</th></tr><tr><td>Glucose [Mass/volume] in Urine by Test strip</td><td>1.4</td><td>0 - 0.8</td><td>H</td><td>mg/dL</td></tr></table></div>"
        },
        "status": "final",
        "subject": {
          "reference": "urn:uuid:1c624e56-ed71-464b-a61b-bd914b3fc55f",
          "display": "Θεμιστοκλής Λιναρδάκη"
        },
        "effectiveDateTime": "2024-11-27T06:16:00Z",
        "specimen": {
          "reference": "urn:uuid:7c89349c-6c11-4456-9b3a-e3357892e37a"
        }
      }
    },
    {
      "fullUrl": "urn:uuid:e88467cc-95af-48c7-9a66-dc60cfe5fda6",
      "resource": {
        "resourceType": "Observation",
        "id": "e88467cc-95af-48c7-9a66-dc60cfe5fda6",
        "meta": {
          "profile": [
            "http://hl7.eu/fhir/laboratory/StructureDefinition/Observation-resultslab-eu-lab"
          ]
        },
        "performer": [
          {
            "display": "The Central European Lab"
          }
        ],
        "category": [
          {
            "coding": [
              {
                "system": "http://terminology.hl7.org/CodeSystem/observation-category",
                "code": "laboratory"
              }
            ]
          }
        ],
        "code": {
          "coding": [
            {
              "code": "25428-4",
              "system": "http://loinc.org",
              "display": "Glucose [Presence] in Urine by Test strip"
            }
          ],
          "text": "Glucose [Presence] in Urine by Test strip"
        },
        "text": {
          "status": "generated",
          "div": "<div xmlns=\"http://www.w3.org/1999/xhtml\"><table class=\"hl7__eu__lab__report\"><tr><th>Test</th><th>27-Nov-2024</th><th>Reference&#xA0;Range</th><th>Unit</th></tr><tr><td>Glucose [Presence] in Urine by Test strip</td></tr></table></div>"
        },
        "status": "final",
        "subject": {
          "reference": "urn:uuid:1c624e56-ed71-464b-a61b-bd914b3fc55f",
          "display": "Θεμιστοκλής Λιναρδάκη"
        },
        "effectiveDateTime": "2024-11-27T06:16:00Z",
        "specimen": {
          "reference": "urn:uuid:7c89349c-6c11-4456-9b3a-e3357892e37a"
        }
      }
    },
    {
      "fullUrl": "urn:uuid:0ce5bb2f-8307-47c9-9e3a-16e9401c5928",
      "resource": {
        "resourceType": "Observation",
        "id": "0ce5bb2f-8307-47c9-9e3a-16e9401c5928",
        "meta": {
          "profile": [
            "http://hl7.eu/fhir/laboratory/StructureDefinition/Observation-resultslab-eu-lab"
          ]
        },
        "performer": [
          {
            "display": "The Central European Lab"
          }
        ],
        "category": [
          {
            "coding": [
              {
                "system": "http://terminology.hl7.org/CodeSystem/observation-category",
                "code": "laboratory"
              }
            ]
          }
        ],
        "code": {
          "coding": [
            {
              "code": "20505-4",
              "system": "http://loinc.org",
              "display": "Bilirubin.total [Mass/volume] in Urine by Test strip"
            }
          ],
          "text": "Bilirubin.total [Mass/volume] in Urine by Test strip"
        },
        "valueQuantity": {
          "system": "http://unitsofmeasure.org",
          "value": 1.3,
          "unit": "mg/dL",
          "code": "mg/dL"
        },
        "referenceRange": [
          {
            "low": {
              "value": 0.2,
              "code": "mg/dL",
              "system": "http://unitsofmeasure.org"
            }
          },
          {
            "high": {
              "value": 1,
              "code": "mg/dL",
              "system": "http://unitsofmeasure.org"
            }
          }
        ],
        "interpretation": [
          {
            "coding": [
              {
                "code": "H",
                "system": "http://terminology.hl7.org/CodeSystem/v3-ObservationInterpretation",
                "display": "High"
              }
            ]
          }
        ],
        "text": {
          "status": "generated",
          "div": "<div xmlns=\"http://www.w3.org/1999/xhtml\"><table class=\"hl7__eu__lab__report\"><tr><th>Test</th><th>27-Nov-2024</th><th>Reference&#xA0;Range</th><th>Unit</th></tr><tr><td>Bilirubin.total [Mass/volume] in Urine by Test strip</td><td>1.3</td><td>0.2 - 1</td><td>H</td><td>mg/dL</td></tr></table></div>"
        },
        "status": "final",
        "subject": {
          "reference": "urn:uuid:1c624e56-ed71-464b-a61b-bd914b3fc55f",
          "display": "Θεμιστοκλής Λιναρδάκη"
        },
        "effectiveDateTime": "2024-11-27T06:16:00Z",
        "specimen": {
          "reference": "urn:uuid:7c89349c-6c11-4456-9b3a-e3357892e37a"
        }
      }
    },
    {
      "fullUrl": "urn:uuid:b01232d9-3cff-4f7b-b284-ff7ceb2adc0d",
      "resource": {
        "resourceType": "Observation",
        "id": "b01232d9-3cff-4f7b-b284-ff7ceb2adc0d",
        "meta": {
          "profile": [
            "http://hl7.eu/fhir/laboratory/StructureDefinition/Observation-resultslab-eu-lab"
          ]
        },
        "performer": [
          {
            "display": "The Central European Lab"
          }
        ],
        "category": [
          {
            "coding": [
              {
                "system": "http://terminology.hl7.org/CodeSystem/observation-category",
                "code": "laboratory"
              }
            ]
          }
        ],
        "code": {
          "coding": [
            {
              "code": "5770-3",
              "system": "http://loinc.org",
              "display": "Bilirubin.total [Presence] in Urine by Test strip"
            }
          ],
          "text": "Bilirubin.total [Presence] in Urine by Test strip"
        },
        "text": {
          "status": "generated",
          "div": "<div xmlns=\"http://www.w3.org/1999/xhtml\"><table class=\"hl7__eu__lab__report\"><tr><th>Test</th><th>27-Nov-2024</th><th>Reference&#xA0;Range</th><th>Unit</th></tr><tr><td>Bilirubin.total [Presence] in Urine by Test strip</td></tr></table></div>"
        },
        "status": "final",
        "subject": {
          "reference": "urn:uuid:1c624e56-ed71-464b-a61b-bd914b3fc55f",
          "display": "Θεμιστοκλής Λιναρδάκη"
        },
        "effectiveDateTime": "2024-11-27T06:16:00Z",
        "specimen": {
          "reference": "urn:uuid:7c89349c-6c11-4456-9b3a-e3357892e37a"
        }
      }
    },
    {
      "fullUrl": "urn:uuid:f676ccc3-ec4b-4d67-80fc-12f0b7a527ff",
      "resource": {
        "resourceType": "Observation",
        "id": "f676ccc3-ec4b-4d67-80fc-12f0b7a527ff",
        "meta": {
          "profile": [
            "http://hl7.eu/fhir/laboratory/StructureDefinition/Observation-resultslab-eu-lab"
          ]
        },
        "performer": [
          {
            "display": "The Central European Lab"
          }
        ],
        "category": [
          {
            "coding": [
              {
                "system": "http://terminology.hl7.org/CodeSystem/observation-category",
                "code": "laboratory"
              }
            ]
          }
        ],
        "code": {
          "coding": [
            {
              "code": "5797-6",
              "system": "http://loinc.org",
              "display": "Ketones [Mass/volume] in Urine by Test strip"
            }
          ],
          "text": "Ketones [Mass/volume] in Urine by Test strip"
        },
        "valueQuantity": {
          "system": "http://unitsofmeasure.org",
          "value": 2,
          "unit": "mg/dL",
          "code": "mg/dL"
        },
        "referenceRange": [
          {
            "low": {
              "value": 0,
              "code": "mg/dL",
              "system": "http://unitsofmeasure.org"
            }
          },
          {
            "high": {
              "value": 5,
              "code": "mg/dL",
              "system": "http://unitsofmeasure.org"
            }
          }
        ],
        "text": {
          "status": "generated",
          "div": "<div xmlns=\"http://www.w3.org/1999/xhtml\"><table class=\"hl7__eu__lab__report\"><tr><th>Test</th><th>27-Nov-2024</th><th>Reference&#xA0;Range</th><th>Unit</th></tr><tr><td>Ketones [Mass/volume] in Urine by Test strip</td><td>2.0</td><td>0 - 5</td><td></td><td>mg/dL</td></tr></table></div>"
        },
        "status": "final",
        "subject": {
          "reference": "urn:uuid:1c624e56-ed71-464b-a61b-bd914b3fc55f",
          "display": "Θεμιστοκλής Λιναρδάκη"
        },
        "effectiveDateTime": "2024-11-27T06:16:00Z",
        "specimen": {
          "reference": "urn:uuid:7c89349c-6c11-4456-9b3a-e3357892e37a"
        }
      }
    },
    {
      "fullUrl": "urn:uuid:cd4e74dc-e75b-4df3-84a8-9f9f78cc930c",
      "resource": {
        "resourceType": "Observation",
        "id": "cd4e74dc-e75b-4df3-84a8-9f9f78cc930c",
        "meta": {
          "profile": [
            "http://hl7.eu/fhir/laboratory/StructureDefinition/Observation-resultslab-eu-lab"
          ]
        },
        "performer": [
          {
            "display": "The Central European Lab"
          }
        ],
        "category": [
          {
            "coding": [
              {
                "system": "http://terminology.hl7.org/CodeSystem/observation-category",
                "code": "laboratory"
              }
            ]
          }
        ],
        "code": {
          "coding": [
            {
              "code": "2514-8",
              "system": "http://loinc.org",
              "display": "Ketones [Presence] in Urine by Test strip"
            }
          ],
          "text": "Ketones [Presence] in Urine by Test strip"
        },
        "text": {
          "status": "generated",
          "div": "<div xmlns=\"http://www.w3.org/1999/xhtml\"><table class=\"hl7__eu__lab__report\"><tr><th>Test</th><th>27-Nov-2024</th><th>Reference&#xA0;Range</th><th>Unit</th></tr><tr><td>Ketones [Presence] in Urine by Test strip</td></tr></table></div>"
        },
        "status": "final",
        "subject": {
          "reference": "urn:uuid:1c624e56-ed71-464b-a61b-bd914b3fc55f",
          "display": "Θεμιστοκλής Λιναρδάκη"
        },
        "effectiveDateTime": "2024-11-27T06:16:00Z",
        "specimen": {
          "reference": "urn:uuid:7c89349c-6c11-4456-9b3a-e3357892e37a"
        }
      }
    },
    {
      "fullUrl": "urn:uuid:dfb4e1ff-ac0d-4e60-a260-9ddfb1dc5610",
      "resource": {
        "resourceType": "Observation",
        "id": "dfb4e1ff-ac0d-4e60-a260-9ddfb1dc5610",
        "meta": {
          "profile": [
            "http://hl7.eu/fhir/laboratory/StructureDefinition/Observation-resultslab-eu-lab"
          ]
        },
        "performer": [
          {
            "display": "The Central European Lab"
          }
        ],
        "category": [
          {
            "coding": [
              {
                "system": "http://terminology.hl7.org/CodeSystem/observation-category",
                "code": "laboratory"
              }
            ]
          }
        ],
        "code": {
          "coding": [
            {
              "code": "5811-5",
              "system": "http://loinc.org",
              "display": "Specific gravity of Urine by Test strip"
            }
          ],
          "text": "Specific gravity of Urine by Test strip"
        },
        "valueQuantity": {
          "system": "http://unitsofmeasure.org",
          "value": 1,
          "unit": "{nominal}",
          "code": "{nominal}"
        },
        "referenceRange": [
          {
            "low": {
              "value": 1.005,
              "code": "g/mL",
              "system": "http://unitsofmeasure.org"
            }
          },
          {
            "high": {
              "value": 1.03,
              "code": "g/mL",
              "system": "http://unitsofmeasure.org"
            }
          }
        ],
        "interpretation": [
          {
            "coding": [
              {
                "code": "L",
                "system": "http://terminology.hl7.org/CodeSystem/v3-ObservationInterpretation",
                "display": "Low"
              }
            ]
          }
        ],
        "text": {
          "status": "generated",
          "div": "<div xmlns=\"http://www.w3.org/1999/xhtml\"><table class=\"hl7__eu__lab__report\"><tr><th>Test</th><th>27-Nov-2024</th><th>Reference&#xA0;Range</th><th>Unit</th></tr><tr><td>Specific gravity of Urine by Test strip</td><td>1.0</td><td>1.005 - 1.03</td><td>L</td><td>{nominal}</td></tr></table></div>"
        },
        "status": "final",
        "subject": {
          "reference": "urn:uuid:1c624e56-ed71-464b-a61b-bd914b3fc55f",
          "display": "Θεμιστοκλής Λιναρδάκη"
        },
        "effectiveDateTime": "2024-11-27T06:16:00Z",
        "specimen": {
          "reference": "urn:uuid:7c89349c-6c11-4456-9b3a-e3357892e37a"
        }
      }
    },
    {
      "fullUrl": "urn:uuid:f1570d13-bb1c-490a-bb15-8085b3c172ff",
      "resource": {
        "resourceType": "Observation",
        "id": "f1570d13-bb1c-490a-bb15-8085b3c172ff",
        "meta": {
          "profile": [
            "http://hl7.eu/fhir/laboratory/StructureDefinition/Observation-resultslab-eu-lab"
          ]
        },
        "performer": [
          {
            "display": "The Central European Lab"
          }
        ],
        "category": [
          {
            "coding": [
              {
                "system": "http://terminology.hl7.org/CodeSystem/observation-category",
                "code": "laboratory"
              }
            ]
          }
        ],
        "code": {
          "coding": [
            {
              "code": "5803-2",
              "system": "http://loinc.org",
              "display": "pH of Urine by Test strip"
            }
          ],
          "text": "pH of Urine by Test strip"
        },
        "valueQuantity": {
          "system": "http://unitsofmeasure.org",
          "value": 5.2,
          "unit": "pH",
          "code": "pH"
        },
        "referenceRange": [
          {
            "low": {
              "value": 4.6,
              "code": "pH",
              "system": "http://unitsofmeasure.org"
            }
          },
          {
            "high": {
              "value": 7,
              "code": "pH",
              "system": "http://unitsofmeasure.org"
            }
          }
        ],
        "text": {
          "status": "generated",
          "div": "<div xmlns=\"http://www.w3.org/1999/xhtml\"><table class=\"hl7__eu__lab__report\"><tr><th>Test</th><th>27-Nov-2024</th><th>Reference&#xA0;Range</th><th>Unit</th></tr><tr><td>pH of Urine by Test strip</td><td>5.2</td><td>4.6 - 7</td><td></td><td>pH</td></tr></table></div>"
        },
        "status": "final",
        "subject": {
          "reference": "urn:uuid:1c624e56-ed71-464b-a61b-bd914b3fc55f",
          "display": "Θεμιστοκλής Λιναρδάκη"
        },
        "effectiveDateTime": "2024-11-27T06:16:00Z",
        "specimen": {
          "reference": "urn:uuid:7c89349c-6c11-4456-9b3a-e3357892e37a"
        }
      }
    },
    {
      "fullUrl": "urn:uuid:8df9a76a-2c5c-4275-b4cd-55ab9549e161",
      "resource": {
        "resourceType": "Observation",
        "id": "8df9a76a-2c5c-4275-b4cd-55ab9549e161",
        "meta": {
          "profile": [
            "http://hl7.eu/fhir/laboratory/StructureDefinition/Observation-resultslab-eu-lab"
          ]
        },
        "performer": [
          {
            "display": "The Central European Lab"
          }
        ],
        "category": [
          {
            "coding": [
              {
                "system": "http://terminology.hl7.org/CodeSystem/observation-category",
                "code": "laboratory"
              }
            ]
          }
        ],
        "code": {
          "coding": [
            {
              "code": "5804-0",
              "system": "http://loinc.org",
              "display": "Protein [Mass/volume] in Urine by Test strip"
            }
          ],
          "text": "Protein [Mass/volume] in Urine by Test strip"
        },
        "valueQuantity": {
          "system": "http://unitsofmeasure.org",
          "value": 292.6,
          "unit": "mg/dL",
          "code": "mg/dL"
        },
        "referenceRange": [
          {
            "low": {
              "value": 0,
              "code": "mg/dL",
              "system": "http://unitsofmeasure.org"
            }
          },
          {
            "high": {
              "value": 150,
              "code": "mg/dL",
              "system": "http://unitsofmeasure.org"
            }
          }
        ],
        "interpretation": [
          {
            "coding": [
              {
                "code": "H",
                "system": "http://terminology.hl7.org/CodeSystem/v3-ObservationInterpretation",
                "display": "High"
              }
            ]
          }
        ],
        "text": {
          "status": "generated",
          "div": "<div xmlns=\"http://www.w3.org/1999/xhtml\"><table class=\"hl7__eu__lab__report\"><tr><th>Test</th><th>27-Nov-2024</th><th>Reference&#xA0;Range</th><th>Unit</th></tr><tr><td>Protein [Mass/volume] in Urine by Test strip</td><td>292.6</td><td>0 - 150</td><td>H</td><td>mg/dL</td></tr></table></div>"
        },
        "status": "final",
        "subject": {
          "reference": "urn:uuid:1c624e56-ed71-464b-a61b-bd914b3fc55f",
          "display": "Θεμιστοκλής Λιναρδάκη"
        },
        "effectiveDateTime": "2024-11-27T06:16:00Z",
        "specimen": {
          "reference": "urn:uuid:7c89349c-6c11-4456-9b3a-e3357892e37a"
        }
      }
    },
    {
      "fullUrl": "urn:uuid:7728e75d-7db7-44ee-955e-ffc60f32004f",
      "resource": {
        "resourceType": "Observation",
        "id": "7728e75d-7db7-44ee-955e-ffc60f32004f",
        "meta": {
          "profile": [
            "http://hl7.eu/fhir/laboratory/StructureDefinition/Observation-resultslab-eu-lab"
          ]
        },
        "performer": [
          {
            "display": "The Central European Lab"
          }
        ],
        "category": [
          {
            "coding": [
              {
                "system": "http://terminology.hl7.org/CodeSystem/observation-category",
                "code": "laboratory"
              }
            ]
          }
        ],
        "code": {
          "coding": [
            {
              "code": "20454-5",
              "system": "http://loinc.org",
              "display": "Protein [Presence] in Urine by Test strip"
            }
          ],
          "text": "Protein [Presence] in Urine by Test strip"
        },
        "text": {
          "status": "generated",
          "div": "<div xmlns=\"http://www.w3.org/1999/xhtml\"><table class=\"hl7__eu__lab__report\"><tr><th>Test</th><th>27-Nov-2024</th><th>Reference&#xA0;Range</th><th>Unit</th></tr><tr><td>Protein [Presence] in Urine by Test strip</td></tr></table></div>"
        },
        "status": "final",
        "subject": {
          "reference": "urn:uuid:1c624e56-ed71-464b-a61b-bd914b3fc55f",
          "display": "Θεμιστοκλής Λιναρδάκη"
        },
        "effectiveDateTime": "2024-11-27T06:16:00Z",
        "specimen": {
          "reference": "urn:uuid:7c89349c-6c11-4456-9b3a-e3357892e37a"
        }
      }
    },
    {
      "fullUrl": "urn:uuid:22070b06-c626-443e-a9b8-e1db9d6e3dda",
      "resource": {
        "resourceType": "Observation",
        "id": "22070b06-c626-443e-a9b8-e1db9d6e3dda",
        "meta": {
          "profile": [
            "http://hl7.eu/fhir/laboratory/StructureDefinition/Observation-resultslab-eu-lab"
          ]
        },
        "performer": [
          {
            "display": "The Central European Lab"
          }
        ],
        "category": [
          {
            "coding": [
              {
                "system": "http://terminology.hl7.org/CodeSystem/observation-category",
                "code": "laboratory"
              }
            ]
          }
        ],
        "code": {
          "coding": [
            {
              "code": "5802-4",
              "system": "http://loinc.org",
              "display": "Nitrite [Presence] in Urine by Test strip"
            }
          ],
          "text": "Nitrite [Presence] in Urine by Test strip"
        },
        "text": {
          "status": "generated",
          "div": "<div xmlns=\"http://www.w3.org/1999/xhtml\"><table class=\"hl7__eu__lab__report\"><tr><th>Test</th><th>27-Nov-2024</th><th>Reference&#xA0;Range</th><th>Unit</th></tr><tr><td>Nitrite [Presence] in Urine by Test strip</td></tr></table></div>"
        },
        "status": "final",
        "subject": {
          "reference": "urn:uuid:1c624e56-ed71-464b-a61b-bd914b3fc55f",
          "display": "Θεμιστοκλής Λιναρδάκη"
        },
        "effectiveDateTime": "2024-11-27T06:16:00Z",
        "specimen": {
          "reference": "urn:uuid:7c89349c-6c11-4456-9b3a-e3357892e37a"
        }
      }
    },
    {
      "fullUrl": "urn:uuid:b27ad7e5-9aa3-40c8-86fb-907ca72a4bff",
      "resource": {
        "resourceType": "Observation",
        "id": "b27ad7e5-9aa3-40c8-86fb-907ca72a4bff",
        "meta": {
          "profile": [
            "http://hl7.eu/fhir/laboratory/StructureDefinition/Observation-resultslab-eu-lab"
          ]
        },
        "performer": [
          {
            "display": "The Central European Lab"
          }
        ],
        "category": [
          {
            "coding": [
              {
                "system": "http://terminology.hl7.org/CodeSystem/observation-category",
                "code": "laboratory"
              }
            ]
          }
        ],
        "code": {
          "coding": [
            {
              "code": "5794-3",
              "system": "http://loinc.org",
              "display": "Hemoglobin [Presence] in Urine by Test strip"
            }
          ],
          "text": "Hemoglobin [Presence] in Urine by Test strip"
        },
        "text": {
          "status": "generated",
          "div": "<div xmlns=\"http://www.w3.org/1999/xhtml\"><table class=\"hl7__eu__lab__report\"><tr><th>Test</th><th>27-Nov-2024</th><th>Reference&#xA0;Range</th><th>Unit</th></tr><tr><td>Hemoglobin [Presence] in Urine by Test strip</td></tr></table></div>"
        },
        "status": "final",
        "subject": {
          "reference": "urn:uuid:1c624e56-ed71-464b-a61b-bd914b3fc55f",
          "display": "Θεμιστοκλής Λιναρδάκη"
        },
        "effectiveDateTime": "2024-11-27T06:16:00Z",
        "specimen": {
          "reference": "urn:uuid:7c89349c-6c11-4456-9b3a-e3357892e37a"
        }
      }
    },
    {
      "fullUrl": "urn:uuid:6d6ef792-5e72-43a7-9772-c326fd1ae488",
      "resource": {
        "resourceType": "Observation",
        "id": "6d6ef792-5e72-43a7-9772-c326fd1ae488",
        "meta": {
          "profile": [
            "http://hl7.eu/fhir/laboratory/StructureDefinition/Observation-resultslab-eu-lab"
          ]
        },
        "performer": [
          {
            "display": "The Central European Lab"
          }
        ],
        "category": [
          {
            "coding": [
              {
                "system": "http://terminology.hl7.org/CodeSystem/observation-category",
                "code": "laboratory"
              }
            ]
          }
        ],
        "code": {
          "coding": [
            {
              "code": "5799-2",
              "system": "http://loinc.org",
              "display": "Leukocyte esterase [Presence] in Urine by Test strip"
            }
          ],
          "text": "Leukocyte esterase [Presence] in Urine by Test strip"
        },
        "text": {
          "status": "generated",
          "div": "<div xmlns=\"http://www.w3.org/1999/xhtml\"><table class=\"hl7__eu__lab__report\"><tr><th>Test</th><th>27-Nov-2024</th><th>Reference&#xA0;Range</th><th>Unit</th></tr><tr><td>Leukocyte esterase [Presence] in Urine by Test strip</td></tr></table></div>"
        },
        "status": "final",
        "subject": {
          "reference": "urn:uuid:1c624e56-ed71-464b-a61b-bd914b3fc55f",
          "display": "Θεμιστοκλής Λιναρδάκη"
        },
        "effectiveDateTime": "2024-11-27T06:16:00Z",
        "specimen": {
          "reference": "urn:uuid:7c89349c-6c11-4456-9b3a-e3357892e37a"
        }
      }
    },
    {
      "fullUrl": "urn:uuid:ce079896-1c31-4753-b971-3556730915e5",
      "resource": {
        "resourceType": "Observation",
        "id": "ce079896-1c31-4753-b971-3556730915e5",
        "meta": {
          "profile": [
            "http://hl7.eu/fhir/laboratory/StructureDefinition/Observation-resultslab-eu-lab"
          ]
        },
        "performer": [
          {
            "display": "The Central European Lab"
          }
        ],
        "category": [
          {
            "coding": [
              {
                "system": "http://terminology.hl7.org/CodeSystem/observation-category",
                "code": "laboratory"
              }
            ]
          }
        ],
        "code": {
          "coding": [
            {
              "code": "4548-4",
              "system": "http://loinc.org",
              "display": "Hemoglobin A1c/Hemoglobin.total in Blood"
            }
          ],
          "text": "Hemoglobin A1c/Hemoglobin.total in Blood"
        },
        "valueQuantity": {
          "system": "http://unitsofmeasure.org",
          "value": 3.2,
          "unit": "%",
          "code": "%"
        },
        "referenceRange": [
          {
            "low": {
              "value": 4.3,
              "code": "%",
              "system": "http://unitsofmeasure.org"
            }
          },
          {
            "high": {
              "value": 6.4,
              "code": "%",
              "system": "http://unitsofmeasure.org"
            }
          }
        ],
        "interpretation": [
          {
            "coding": [
              {
                "code": "L",
                "system": "http://terminology.hl7.org/CodeSystem/v3-ObservationInterpretation",
                "display": "Low"
              }
            ]
          }
        ],
        "text": {
          "status": "generated",
          "div": "<div xmlns=\"http://www.w3.org/1999/xhtml\"><table class=\"hl7__eu__lab__report\"><tr><th>Test</th><th>27-Nov-2024</th><th>Reference&#xA0;Range</th><th>Unit</th></tr><tr><td>Hemoglobin A1c/Hemoglobin.total in Blood</td><td>3.2</td><td>4.3 - 6.4</td><td>L</td><td>%</td></tr></table></div>"
        },
        "status": "final",
        "subject": {
          "reference": "urn:uuid:1c624e56-ed71-464b-a61b-bd914b3fc55f",
          "display": "Θεμιστοκλής Λιναρδάκη"
        },
        "effectiveDateTime": "2024-11-27T06:16:00Z",
        "specimen": {
          "reference": "urn:uuid:1b569c54-09d4-4b60-b257-dc818ed380f6"
        }
      }
    },
    {
      "fullUrl": "urn:uuid:6fa981aa-4c10-4602-b1b1-47a9fb2749fc",
      "resource": {
        "resourceType": "Observation",
        "id": "6fa981aa-4c10-4602-b1b1-47a9fb2749fc",
        "meta": {
          "profile": [
            "http://hl7.eu/fhir/laboratory/StructureDefinition/Observation-resultslab-eu-lab"
          ]
        },
        "performer": [
          {
            "display": "The Central European Lab"
          }
        ],
        "category": [
          {
            "coding": [
              {
                "system": "http://terminology.hl7.org/CodeSystem/observation-category",
                "code": "laboratory"
              }
            ]
          }
        ],
        "code": {
          "coding": [
            {
              "code": "2339-0",
              "system": "http://loinc.org",
              "display": "Glucose [Mass/volume] in Blood"
            }
          ],
          "text": "Glucose [Mass/volume] in Blood"
        },
        "valueQuantity": {
          "system": "http://unitsofmeasure.org",
          "value": 79.6,
          "unit": "mg/dL",
          "code": "mg/dL"
        },
        "referenceRange": [
          {
            "low": {
              "value": 70,
              "code": "mg/dL",
              "system": "http://unitsofmeasure.org"
            }
          },
          {
            "high": {
              "value": 140,
              "code": "mg/dL",
              "system": "http://unitsofmeasure.org"
            }
          }
        ],
        "text": {
          "status": "generated",
          "div": "<div xmlns=\"http://www.w3.org/1999/xhtml\"><table class=\"hl7__eu__lab__report\"><tr><th>Test</th><th>27-Nov-2024</th><th>Reference&#xA0;Range</th><th>Unit</th></tr><tr><td>Glucose [Mass/volume] in Blood</td><td>79.6</td><td>70 - 140</td><td></td><td>mg/dL</td></tr></table></div>"
        },
        "status": "final",
        "subject": {
          "reference": "urn:uuid:1c624e56-ed71-464b-a61b-bd914b3fc55f",
          "display": "Θεμιστοκλής Λιναρδάκη"
        },
        "effectiveDateTime": "2024-11-27T06:16:00Z",
        "specimen": {
          "reference": "urn:uuid:1b569c54-09d4-4b60-b257-dc818ed380f6"
        }
      }
    },
    {
      "fullUrl": "urn:uuid:f9679fcd-1c8d-415d-b2ab-744dedbebb5b",
      "resource": {
        "resourceType": "Observation",
        "id": "f9679fcd-1c8d-415d-b2ab-744dedbebb5b",
        "meta": {
          "profile": [
            "http://hl7.eu/fhir/laboratory/StructureDefinition/Observation-resultslab-eu-lab"
          ]
        },
        "performer": [
          {
            "display": "The Central European Lab"
          }
        ],
        "category": [
          {
            "coding": [
              {
                "system": "http://terminology.hl7.org/CodeSystem/observation-category",
                "code": "laboratory"
              }
            ]
          }
        ],
        "code": {
          "coding": [
            {
              "code": "6299-2",
              "system": "http://loinc.org",
              "display": "Urea nitrogen [Mass/volume] in Blood"
            }
          ],
          "text": "Urea nitrogen [Mass/volume] in Blood"
        },
        "valueQuantity": {
          "system": "http://unitsofmeasure.org",
          "value": 15.4,
          "unit": "mg/dL",
          "code": "mg/dL"
        },
        "referenceRange": [
          {
            "low": {
              "value": 7,
              "code": "mg/dL",
              "system": "http://unitsofmeasure.org"
            }
          },
          {
            "high": {
              "value": 20,
              "code": "mg/dL",
              "system": "http://unitsofmeasure.org"
            }
          }
        ],
        "text": {
          "status": "generated",
          "div": "<div xmlns=\"http://www.w3.org/1999/xhtml\"><table class=\"hl7__eu__lab__report\"><tr><th>Test</th><th>27-Nov-2024</th><th>Reference&#xA0;Range</th><th>Unit</th></tr><tr><td>Urea nitrogen [Mass/volume] in Blood</td><td>15.4</td><td>7 - 20</td><td></td><td>mg/dL</td></tr></table></div>"
        },
        "status": "final",
        "subject": {
          "reference": "urn:uuid:1c624e56-ed71-464b-a61b-bd914b3fc55f",
          "display": "Θεμιστοκλής Λιναρδάκη"
        },
        "effectiveDateTime": "2024-11-27T06:16:00Z",
        "specimen": {
          "reference": "urn:uuid:1b569c54-09d4-4b60-b257-dc818ed380f6"
        }
      }
    },
    {
      "fullUrl": "urn:uuid:b45445c2-c2c0-49fd-b100-003031dd48b4",
      "resource": {
        "resourceType": "Observation",
        "id": "b45445c2-c2c0-49fd-b100-003031dd48b4",
        "meta": {
          "profile": [
            "http://hl7.eu/fhir/laboratory/StructureDefinition/Observation-resultslab-eu-lab"
          ]
        },
        "performer": [
          {
            "display": "The Central European Lab"
          }
        ],
        "category": [
          {
            "coding": [
              {
                "system": "http://terminology.hl7.org/CodeSystem/observation-category",
                "code": "laboratory"
              }
            ]
          }
        ],
        "code": {
          "coding": [
            {
              "code": "38483-4",
              "system": "http://loinc.org",
              "display": "Creatinine [Mass/volume] in Blood"
            }
          ],
          "text": "Creatinine [Mass/volume] in Blood"
        },
        "valueQuantity": {
          "system": "http://unitsofmeasure.org",
          "value": 6.8,
          "unit": "mg/dL",
          "code": "mg/dL"
        },
        "referenceRange": [
          {
            "low": {
              "value": 0.6,
              "code": "mg/dL",
              "system": "http://unitsofmeasure.org"
            }
          },
          {
            "high": {
              "value": 1.3,
              "code": "mg/dL",
              "system": "http://unitsofmeasure.org"
            }
          }
        ],
        "interpretation": [
          {
            "coding": [
              {
                "code": "H",
                "system": "http://terminology.hl7.org/CodeSystem/v3-ObservationInterpretation",
                "display": "High"
              }
            ]
          }
        ],
        "text": {
          "status": "generated",
          "div": "<div xmlns=\"http://www.w3.org/1999/xhtml\"><table class=\"hl7__eu__lab__report\"><tr><th>Test</th><th>27-Nov-2024</th><th>Reference&#xA0;Range</th><th>Unit</th></tr><tr><td>Creatinine [Mass/volume] in Blood</td><td>6.8</td><td>0.6 - 1.3</td><td>H</td><td>mg/dL</td></tr></table></div>"
        },
        "status": "final",
        "subject": {
          "reference": "urn:uuid:1c624e56-ed71-464b-a61b-bd914b3fc55f",
          "display": "Θεμιστοκλής Λιναρδάκη"
        },
        "effectiveDateTime": "2024-11-27T06:16:00Z",
        "specimen": {
          "reference": "urn:uuid:1b569c54-09d4-4b60-b257-dc818ed380f6"
        }
      }
    },
    {
      "fullUrl": "urn:uuid:528ef66d-54e1-4a88-8beb-0f71da507b39",
      "resource": {
        "resourceType": "Observation",
        "id": "528ef66d-54e1-4a88-8beb-0f71da507b39",
        "meta": {
          "profile": [
            "http://hl7.eu/fhir/laboratory/StructureDefinition/Observation-resultslab-eu-lab"
          ]
        },
        "performer": [
          {
            "display": "The Central European Lab"
          }
        ],
        "category": [
          {
            "coding": [
              {
                "system": "http://terminology.hl7.org/CodeSystem/observation-category",
                "code": "laboratory"
              }
            ]
          }
        ],
        "code": {
          "coding": [
            {
              "code": "49765-1",
              "system": "http://loinc.org",
              "display": "Calcium [Mass/volume] in Blood"
            }
          ],
          "text": "Calcium [Mass/volume] in Blood"
        },
        "valueQuantity": {
          "system": "http://unitsofmeasure.org",
          "value": 10.1,
          "unit": "mg/dL",
          "code": "mg/dL"
        },
        "referenceRange": [
          {
            "low": {
              "value": 8.5,
              "code": "mg/dL",
              "system": "http://unitsofmeasure.org"
            }
          },
          {
            "high": {
              "value": 10.5,
              "code": "mg/dL",
              "system": "http://unitsofmeasure.org"
            }
          }
        ],
        "text": {
          "status": "generated",
          "div": "<div xmlns=\"http://www.w3.org/1999/xhtml\"><table class=\"hl7__eu__lab__report\"><tr><th>Test</th><th>27-Nov-2024</th><th>Reference&#xA0;Range</th><th>Unit</th></tr><tr><td>Calcium [Mass/volume] in Blood</td><td>10.1</td><td>8.5 - 10.5</td><td></td><td>mg/dL</td></tr></table></div>"
        },
        "status": "final",
        "subject": {
          "reference": "urn:uuid:1c624e56-ed71-464b-a61b-bd914b3fc55f",
          "display": "Θεμιστοκλής Λιναρδάκη"
        },
        "effectiveDateTime": "2024-11-27T06:16:00Z",
        "specimen": {
          "reference": "urn:uuid:1b569c54-09d4-4b60-b257-dc818ed380f6"
        }
      }
    },
    {
      "fullUrl": "urn:uuid:0e3e5b86-ffd9-433a-8df8-eb0e99d836d0",
      "resource": {
        "resourceType": "Observation",
        "id": "0e3e5b86-ffd9-433a-8df8-eb0e99d836d0",
        "meta": {
          "profile": [
            "http://hl7.eu/fhir/laboratory/StructureDefinition/Observation-resultslab-eu-lab"
          ]
        },
        "performer": [
          {
            "display": "The Central European Lab"
          }
        ],
        "category": [
          {
            "coding": [
              {
                "system": "http://terminology.hl7.org/CodeSystem/observation-category",
                "code": "laboratory"
              }
            ]
          }
        ],
        "code": {
          "coding": [
            {
              "code": "2947-0",
              "system": "http://loinc.org",
              "display": "Sodium [Moles/volume] in Blood"
            }
          ],
          "text": "Sodium [Moles/volume] in Blood"
        },
        "valueQuantity": {
          "system": "http://unitsofmeasure.org",
          "value": 140.5,
          "unit": "mmol/L",
          "code": "mmol/L"
        },
        "referenceRange": [
          {
            "low": {
              "value": 135,
              "code": "mmol/L",
              "system": "http://unitsofmeasure.org"
            }
          },
          {
            "high": {
              "value": 145,
              "code": "mmol/L",
              "system": "http://unitsofmeasure.org"
            }
          }
        ],
        "text": {
          "status": "generated",
          "div": "<div xmlns=\"http://www.w3.org/1999/xhtml\"><table class=\"hl7__eu__lab__report\"><tr><th>Test</th><th>27-Nov-2024</th><th>Reference&#xA0;Range</th><th>Unit</th></tr><tr><td>Sodium [Moles/volume] in Blood</td><td>140.5</td><td>135 - 145</td><td></td><td>mmol/L</td></tr></table></div>"
        },
        "status": "final",
        "subject": {
          "reference": "urn:uuid:1c624e56-ed71-464b-a61b-bd914b3fc55f",
          "display": "Θεμιστοκλής Λιναρδάκη"
        },
        "effectiveDateTime": "2024-11-27T06:16:00Z",
        "specimen": {
          "reference": "urn:uuid:1b569c54-09d4-4b60-b257-dc818ed380f6"
        }
      }
    },
    {
      "fullUrl": "urn:uuid:c681cd44-32b8-436b-b164-c13d90998042",
      "resource": {
        "resourceType": "Observation",
        "id": "c681cd44-32b8-436b-b164-c13d90998042",
        "meta": {
          "profile": [
            "http://hl7.eu/fhir/laboratory/StructureDefinition/Observation-resultslab-eu-lab"
          ]
        },
        "performer": [
          {
            "display": "The Central European Lab"
          }
        ],
        "category": [
          {
            "coding": [
              {
                "system": "http://terminology.hl7.org/CodeSystem/observation-category",
                "code": "laboratory"
              }
            ]
          }
        ],
        "code": {
          "coding": [
            {
              "code": "6298-4",
              "system": "http://loinc.org",
              "display": "Potassium [Moles/volume] in Blood"
            }
          ],
          "text": "Potassium [Moles/volume] in Blood"
        },
        "valueQuantity": {
          "system": "http://unitsofmeasure.org",
          "value": 3.8,
          "unit": "mmol/L",
          "code": "mmol/L"
        },
        "referenceRange": [
          {
            "low": {
              "value": 3.5,
              "code": "mmol/L",
              "system": "http://unitsofmeasure.org"
            }
          },
          {
            "high": {
              "value": 5.3,
              "code": "mmol/L",
              "system": "http://unitsofmeasure.org"
            }
          }
        ],
        "text": {
          "status": "generated",
          "div": "<div xmlns=\"http://www.w3.org/1999/xhtml\"><table class=\"hl7__eu__lab__report\"><tr><th>Test</th><th>27-Nov-2024</th><th>Reference&#xA0;Range</th><th>Unit</th></tr><tr><td>Potassium [Moles/volume] in Blood</td><td>3.8</td><td>3.5 - 5.3</td><td></td><td>mmol/L</td></tr></table></div>"
        },
        "status": "final",
        "subject": {
          "reference": "urn:uuid:1c624e56-ed71-464b-a61b-bd914b3fc55f",
          "display": "Θεμιστοκλής Λιναρδάκη"
        },
        "effectiveDateTime": "2024-11-27T06:16:00Z",
        "specimen": {
          "reference": "urn:uuid:1b569c54-09d4-4b60-b257-dc818ed380f6"
        }
      }
    },
    {
      "fullUrl": "urn:uuid:65efc9ec-9db1-4819-911a-d894e5389df3",
      "resource": {
        "resourceType": "Observation",
        "id": "65efc9ec-9db1-4819-911a-d894e5389df3",
        "meta": {
          "profile": [
            "http://hl7.eu/fhir/laboratory/StructureDefinition/Observation-resultslab-eu-lab"
          ]
        },
        "performer": [
          {
            "display": "The Central European Lab"
          }
        ],
        "category": [
          {
            "coding": [
              {
                "system": "http://terminology.hl7.org/CodeSystem/observation-category",
                "code": "laboratory"
              }
            ]
          }
        ],
        "code": {
          "coding": [
            {
              "code": "2069-3",
              "system": "http://loinc.org",
              "display": "Chloride [Moles/volume] in Blood"
            }
          ],
          "text": "Chloride [Moles/volume] in Blood"
        },
        "valueQuantity": {
          "system": "http://unitsofmeasure.org",
          "value": 104.7,
          "unit": "mmol/L",
          "code": "mmol/L"
        },
        "referenceRange": [
          {
            "low": {
              "value": 98,
              "code": "mmol/L",
              "system": "http://unitsofmeasure.org"
            }
          },
          {
            "high": {
              "value": 110,
              "code": "mmol/L",
              "system": "http://unitsofmeasure.org"
            }
          }
        ],
        "text": {
          "status": "generated",
          "div": "<div xmlns=\"http://www.w3.org/1999/xhtml\"><table class=\"hl7__eu__lab__report\"><tr><th>Test</th><th>27-Nov-2024</th><th>Reference&#xA0;Range</th><th>Unit</th></tr><tr><td>Chloride [Moles/volume] in Blood</td><td>104.7</td><td>98 - 110</td><td></td><td>mmol/L</td></tr></table></div>"
        },
        "status": "final",
        "subject": {
          "reference": "urn:uuid:1c624e56-ed71-464b-a61b-bd914b3fc55f",
          "display": "Θεμιστοκλής Λιναρδάκη"
        },
        "effectiveDateTime": "2024-11-27T06:16:00Z",
        "specimen": {
          "reference": "urn:uuid:1b569c54-09d4-4b60-b257-dc818ed380f6"
        }
      }
    },
    {
      "fullUrl": "urn:uuid:5b77cb2c-c7b1-4590-98c0-2bd11f4cc1e6",
      "resource": {
        "resourceType": "Observation",
        "id": "5b77cb2c-c7b1-4590-98c0-2bd11f4cc1e6",
        "meta": {
          "profile": [
            "http://hl7.eu/fhir/laboratory/StructureDefinition/Observation-resultslab-eu-lab"
          ]
        },
        "performer": [
          {
            "display": "The Central European Lab"
          }
        ],
        "category": [
          {
            "coding": [
              {
                "system": "http://terminology.hl7.org/CodeSystem/observation-category",
                "code": "laboratory"
              }
            ]
          }
        ],
        "code": {
          "coding": [
            {
              "code": "20565-8",
              "system": "http://loinc.org",
              "display": "Carbon dioxide, total [Moles/volume] in Blood"
            }
          ],
          "text": "Carbon dioxide, total [Moles/volume] in Blood"
        },
        "valueQuantity": {
          "system": "http://unitsofmeasure.org",
          "value": 24,
          "unit": "mmol/L",
          "code": "mmol/L"
        },
        "referenceRange": [
          {
            "low": {
              "value": 22,
              "code": "mmol/L",
              "system": "http://unitsofmeasure.org"
            }
          },
          {
            "high": {
              "value": 29,
              "code": "mmol/L",
              "system": "http://unitsofmeasure.org"
            }
          }
        ],
        "text": {
          "status": "generated",
          "div": "<div xmlns=\"http://www.w3.org/1999/xhtml\"><table class=\"hl7__eu__lab__report\"><tr><th>Test</th><th>27-Nov-2024</th><th>Reference&#xA0;Range</th><th>Unit</th></tr><tr><td>Carbon dioxide, total [Moles/volume] in Blood</td><td>24.0</td><td>22 - 29</td><td></td><td>mmol/L</td></tr></table></div>"
        },
        "status": "final",
        "subject": {
          "reference": "urn:uuid:1c624e56-ed71-464b-a61b-bd914b3fc55f",
          "display": "Θεμιστοκλής Λιναρδάκη"
        },
        "effectiveDateTime": "2024-11-27T06:16:00Z",
        "specimen": {
          "reference": "urn:uuid:1b569c54-09d4-4b60-b257-dc818ed380f6"
        }
      }
    },
    {
      "fullUrl": "urn:uuid:2d15ca36-5175-47b3-940d-ed3975333b84",
      "resource": {
        "resourceType": "Observation",
        "id": "2d15ca36-5175-47b3-940d-ed3975333b84",
        "meta": {
          "profile": [
            "http://hl7.eu/fhir/laboratory/StructureDefinition/Observation-resultslab-eu-lab"
          ]
        },
        "performer": [
          {
            "display": "The Central European Lab"
          }
        ],
        "category": [
          {
            "coding": [
              {
                "system": "http://terminology.hl7.org/CodeSystem/observation-category",
                "code": "laboratory"
              }
            ]
          }
        ],
        "code": {
          "coding": [
            {
              "code": "2093-3",
              "system": "http://loinc.org",
              "display": "Cholesterol [Mass/volume] in Serum or Plasma"
            }
          ],
          "text": "Cholesterol [Mass/volume] in Serum or Plasma"
        },
        "valueQuantity": {
          "system": "http://unitsofmeasure.org",
          "value": 192.9,
          "unit": "mg/dL",
          "code": "mg/dL"
        },
        "referenceRange": [
          {
            "low": {
              "value": 125,
              "code": "mg/dL",
              "system": "http://unitsofmeasure.org"
            }
          },
          {
            "high": {
              "value": 200,
              "code": "mg/dL",
              "system": "http://unitsofmeasure.org"
            }
          }
        ],
        "text": {
          "status": "generated",
          "div": "<div xmlns=\"http://www.w3.org/1999/xhtml\"><table class=\"hl7__eu__lab__report\"><tr><th>Test</th><th>27-Nov-2024</th><th>Reference&#xA0;Range</th><th>Unit</th></tr><tr><td>Cholesterol [Mass/volume] in Serum or Plasma</td><td>192.9</td><td>125 - 200</td><td></td><td>mg/dL</td></tr></table></div>"
        },
        "status": "final",
        "subject": {
          "reference": "urn:uuid:1c624e56-ed71-464b-a61b-bd914b3fc55f",
          "display": "Θεμιστοκλής Λιναρδάκη"
        },
        "effectiveDateTime": "2024-11-27T06:16:00Z",
        "specimen": {
          "reference": "urn:uuid:df9191ce-b228-4c7c-b186-3ce89e735a8a"
        }
      }
    },
    {
      "fullUrl": "urn:uuid:a4dc21f5-db9f-43f3-852a-4bee0e733673",
      "resource": {
        "resourceType": "Observation",
        "id": "a4dc21f5-db9f-43f3-852a-4bee0e733673",
        "meta": {
          "profile": [
            "http://hl7.eu/fhir/laboratory/StructureDefinition/Observation-resultslab-eu-lab"
          ]
        },
        "performer": [
          {
            "display": "The Central European Lab"
          }
        ],
        "category": [
          {
            "coding": [
              {
                "system": "http://terminology.hl7.org/CodeSystem/observation-category",
                "code": "laboratory"
              }
            ]
          }
        ],
        "code": {
          "coding": [
            {
              "code": "2571-8",
              "system": "http://loinc.org",
              "display": "Triglyceride [Mass/volume] in Serum or Plasma"
            }
          ],
          "text": "Triglyceride [Mass/volume] in Serum or Plasma"
        },
        "valueQuantity": {
          "system": "http://unitsofmeasure.org",
          "value": 122,
          "unit": "mg/dL",
          "code": "mg/dL"
        },
        "referenceRange": [
          {
            "low": {
              "value": 0,
              "code": "mg/dL",
              "system": "http://unitsofmeasure.org"
            }
          },
          {
            "high": {
              "value": 150,
              "code": "mg/dL",
              "system": "http://unitsofmeasure.org"
            }
          }
        ],
        "text": {
          "status": "generated",
          "div": "<div xmlns=\"http://www.w3.org/1999/xhtml\"><table class=\"hl7__eu__lab__report\"><tr><th>Test</th><th>27-Nov-2024</th><th>Reference&#xA0;Range</th><th>Unit</th></tr><tr><td>Triglyceride [Mass/volume] in Serum or Plasma</td><td>122.0</td><td>0 - 150</td><td></td><td>mg/dL</td></tr></table></div>"
        },
        "status": "final",
        "subject": {
          "reference": "urn:uuid:1c624e56-ed71-464b-a61b-bd914b3fc55f",
          "display": "Θεμιστοκλής Λιναρδάκη"
        },
        "effectiveDateTime": "2024-11-27T06:16:00Z",
        "specimen": {
          "reference": "urn:uuid:df9191ce-b228-4c7c-b186-3ce89e735a8a"
        }
      }
    },
    {
      "fullUrl": "urn:uuid:6d481309-6039-4370-b932-0ff58ad7b7fe",
      "resource": {
        "resourceType": "Observation",
        "id": "6d481309-6039-4370-b932-0ff58ad7b7fe",
        "meta": {
          "profile": [
            "http://hl7.eu/fhir/laboratory/StructureDefinition/Observation-resultslab-eu-lab"
          ]
        },
        "performer": [
          {
            "display": "The Central European Lab"
          }
        ],
        "category": [
          {
            "coding": [
              {
                "system": "http://terminology.hl7.org/CodeSystem/observation-category",
                "code": "laboratory"
              }
            ]
          }
        ],
        "code": {
          "coding": [
            {
              "code": "18262-6",
              "system": "http://loinc.org",
              "display": "Cholesterol in LDL [Mass/volume] in Serum or Plasma by Direct assay"
            }
          ],
          "text": "Cholesterol in LDL [Mass/volume] in Serum or Plasma by Direct assay"
        },
        "valueQuantity": {
          "system": "http://unitsofmeasure.org",
          "value": 144.9,
          "unit": "mg/dL",
          "code": "mg/dL"
        },
        "referenceRange": [
          {
            "low": {
              "value": 0,
              "code": "mg/dL",
              "system": "http://unitsofmeasure.org"
            }
          },
          {
            "high": {
              "value": 130,
              "code": "mg/dL",
              "system": "http://unitsofmeasure.org"
            }
          }
        ],
        "interpretation": [
          {
            "coding": [
              {
                "code": "H",
                "system": "http://terminology.hl7.org/CodeSystem/v3-ObservationInterpretation",
                "display": "High"
              }
            ]
          }
        ],
        "text": {
          "status": "generated",
          "div": "<div xmlns=\"http://www.w3.org/1999/xhtml\"><table class=\"hl7__eu__lab__report\"><tr><th>Test</th><th>27-Nov-2024</th><th>Reference&#xA0;Range</th><th>Unit</th></tr><tr><td>Cholesterol in LDL [Mass/volume] in Serum or Plasma by Direct assay</td><td>144.9</td><td>0 - 130</td><td>H</td><td>mg/dL</td></tr></table></div>"
        },
        "status": "final",
        "subject": {
          "reference": "urn:uuid:1c624e56-ed71-464b-a61b-bd914b3fc55f",
          "display": "Θεμιστοκλής Λιναρδάκη"
        },
        "effectiveDateTime": "2024-11-27T06:16:00Z",
        "specimen": {
          "reference": "urn:uuid:df9191ce-b228-4c7c-b186-3ce89e735a8a"
        }
      }
    },
    {
      "fullUrl": "urn:uuid:82e7c4fe-a2ff-4c9f-93b6-1ef91de8c3a8",
      "resource": {
        "resourceType": "Observation",
        "id": "82e7c4fe-a2ff-4c9f-93b6-1ef91de8c3a8",
        "meta": {
          "profile": [
            "http://hl7.eu/fhir/laboratory/StructureDefinition/Observation-resultslab-eu-lab"
          ]
        },
        "performer": [
          {
            "display": "The Central European Lab"
          }
        ],
        "category": [
          {
            "coding": [
              {
                "system": "http://terminology.hl7.org/CodeSystem/observation-category",
                "code": "laboratory"
              }
            ]
          }
        ],
        "code": {
          "coding": [
            {
              "code": "2085-9",
              "system": "http://loinc.org",
              "display": "Cholesterol in HDL [Mass/volume] in Serum or Plasma"
            }
          ],
          "text": "Cholesterol in HDL [Mass/volume] in Serum or Plasma"
        },
        "valueQuantity": {
          "system": "http://unitsofmeasure.org",
          "value": 23.6,
          "unit": "mg/dL",
          "code": "mg/dL"
        },
        "referenceRange": [
          {
            "low": {
              "value": 40,
              "code": "mg/dL",
              "system": "http://unitsofmeasure.org"
            }
          },
          {
            "high": {
              "value": 60,
              "code": "mg/dL",
              "system": "http://unitsofmeasure.org"
            }
          }
        ],
        "interpretation": [
          {
            "coding": [
              {
                "code": "L",
                "system": "http://terminology.hl7.org/CodeSystem/v3-ObservationInterpretation",
                "display": "Low"
              }
            ]
          }
        ],
        "text": {
          "status": "generated",
          "div": "<div xmlns=\"http://www.w3.org/1999/xhtml\"><table class=\"hl7__eu__lab__report\"><tr><th>Test</th><th>27-Nov-2024</th><th>Reference&#xA0;Range</th><th>Unit</th></tr><tr><td>Cholesterol in HDL [Mass/volume] in Serum or Plasma</td><td>23.6</td><td>40 - 60</td><td>L</td><td>mg/dL</td></tr></table></div>"
        },
        "status": "final",
        "subject": {
          "reference": "urn:uuid:1c624e56-ed71-464b-a61b-bd914b3fc55f",
          "display": "Θεμιστοκλής Λιναρδάκη"
        },
        "effectiveDateTime": "2024-11-27T06:16:00Z",
        "specimen": {
          "reference": "urn:uuid:df9191ce-b228-4c7c-b186-3ce89e735a8a"
        }
      }
    },
    {
      "fullUrl": "urn:uuid:d5e13230-8264-4c31-874c-66a4aa63e780",
      "resource": {
        "resourceType": "Device",
        "id": "d5e13230-8264-4c31-874c-66a4aa63e780",
        "deviceName": [
          {
            "name": "SYNDERAI Synthetic Generator",
            "type": "manufacturer-name"
          }
        ],
        "version": [
          {
            "value": "5.0"
          }
        ],
        "text": {
          "status": "generated",
          "div": "<div xmlns=\"http://www.w3.org/1999/xhtml\">SYNDERAI Synthetic Generator v5.0</div>"
        },
        "status": "active\"",
        "distinctIdentifier": "synderai-generator-50",
        "manufacturer": "SYNDERAI Project"
      }
    },
    {
      "fullUrl": "urn:uuid:06553248-19c9-47e0-a828-a44667929f47",
      "resource": {
        "resourceType": "Provenance",
        "id": "06553248-19c9-47e0-a828-a44667929f47",
        "target": [
          {
            "reference": "Patient/1c624e56-ed71-464b-a61b-bd914b3fc55f"
          },
          {
            "reference": "Bundle/9b7b3cac-99a3-44c5-9359-42154d476854"
          },
          {
            "reference": "Composition/83493848-22e0-4286-a0bf-c86940013bf5"
          },
          {
            "reference": "PractitionerRole/085c9ea7-af10-4087-b048-a01780ac3c9d"
          },
          {
            "reference": "Practitioner/39a086d9-147a-446d-8a06-d26defd9965e"
          },
          {
            "reference": "PractitionerRole/d73989bf-a5cd-46be-b52b-c07b4de7cb56"
          },
          {
            "reference": "Organization/a7f7732c-952f-4710-b62b-09cc29b9a0c2"
          }
        ],
        "activity": {
          "text": "Synthetic Example Data Generation"
        },
        "policy": [
          "https://synderai.net/synderai-synthetic-data-policy"
        ],
        "agent": [
          {
            "type": {
              "text": "author"
            },
            "who": {
              "reference": "Device/d5e13230-8264-4c31-874c-66a4aa63e780"
            }
          }
        ],
        "reason": [
          {
            "text": "Interoperability Testing and Training (non-clinical use)"
          }
        ],
        "text": {
          "status": "generated",
          "div": "<div xmlns=\"http://www.w3.org/1999/xhtml\">Provenance for SYNDERAI Synthetic Example Data Resource</div>"
        },
        "recorded": "2024-11-27T07:16:00Z"
      }
    },
    {
      "fullUrl": "urn:uuid:085c9ea7-af10-4087-b048-a01780ac3c9d",
      "resource": {
        "resourceType": "PractitionerRole",
        "id": "085c9ea7-af10-4087-b048-a01780ac3c9d",
        "meta": {
          "profile": [
            "http://hl7.eu/fhir/base/StructureDefinition/practitionerRole-eu"
          ]
        },
        "text": {
          "status": "generated",
          "div": "<div xmlns=\"http://www.w3.org/1999/xhtml\">Laboratory Role Id: 085c9ea7-af10-4087-b048-a01780ac3c9d</div>"
        },
        "practitioner": {
          "reference": "urn:uuid:39a086d9-147a-446d-8a06-d26defd9965e"
        }
      }
    },
    {
      "fullUrl": "urn:uuid:39a086d9-147a-446d-8a06-d26defd9965e",
      "resource": {
        "resourceType": "Practitioner",
        "id": "39a086d9-147a-446d-8a06-d26defd9965e",
        "meta": {
          "profile": [
            "http://hl7.eu/fhir/base/StructureDefinition/practitioner-eu"
          ]
        },
        "identifier": [
          {
            "assigner": {
              "display": "HL7 Europe"
            },
            "system": "urn:oid:2.16.840.1.113883.2.51.999",
            "value": "e57cf833-5e44-4676-9bdb-80cccdfc70aa"
          }
        ],
        "name": [
          {
            "prefix": [
              "dr"
            ],
            "given": [
              "Ex"
            ],
            "family": "Ample"
          }
        ],
        "address": [
          {
            "line": [
              "Laboratoire Central Européenne",
              "Boulevard du Jardin Botanique 32"
            ],
            "postalCode": "1000",
            "city": "Brussels",
            "country": "Belgium"
          }
        ],
        "text": {
          "status": "generated",
          "div": "<div xmlns=\"http://www.w3.org/1999/xhtml\">Laboratory: Laboratoire Central Européenne, 1000 Brussels, Belgium</div>"
        }
      }
    }
  ],
  "type": "document",
  "timestamp": "2024-11-27T07:16:00Z"
}
