{
  "resourceType": "Bundle",
  "id": "47f3fed7-8be6-418e-87d6-44d1d6a4b8ae",
  "meta": {
    "profile": [
      "http://hl7.eu/fhir/laboratory/StructureDefinition/Bundle-eu-lab"
    ]
  },
  "identifier": {
    "assigner": {
      "display": "HL7 Europe"
    },
    "system": "urn:oid:2.16.840.1.113883.2.51.999",
    "value": "a31d51cb-44ee-47ce-918d-038c03887cf3"
  },
  "entry": [
    {
      "fullUrl": "urn:uuid:ae9f381b-9051-4ffa-b2af-af0b318f89a1",
      "resource": {
        "resourceType": "Composition",
        "id": "ae9f381b-9051-4ffa-b2af-af0b318f89a1",
        "meta": {
          "profile": [
            "http://hl7.eu/fhir/laboratory/StructureDefinition/Composition-eu-lab"
          ]
        },
        "identifier": {
          "assigner": {
            "display": "HL7 Europe"
          },
          "system": "urn:oid:2.16.840.1.113883.2.51.999",
          "value": "5b0c8fd8-d396-4faf-b09e-c8315ef428c9"
        },
        "author": [
          {
            "reference": "urn:uuid:e1d45506-6ae6-4cf8-a234-695d78c9f763"
          }
        ],
        "category": [
          {
            "coding": [
              {
                "code": "26436-6",
                "system": "http://loinc.org",
                "display": "Laboratory studies (set)"
              }
            ]
          }
        ],
        "type": {
          "coding": [
            {
              "code": "11502-2",
              "system": "http://loinc.org",
              "display": "Laboratory report"
            }
          ],
          "text": "Laboratory Report"
        },
        "section": [
          {
            "code": {
              "coding": [
                {
                  "code": "26436-6",
                  "system": "http://loinc.org",
                  "display": "Laboratory studies (set)"
                }
              ],
              "text": "Laboratory studies"
            },
            "section": [
              {
                "code": {
                  "coding": [
                    {
                      "code": "$18723-7",
                      "system": "http://loinc.org",
                      "display": "Hematology studies (set)"
                    }
                  ],
                  "text": "Hematology"
                },
                "entry": [
                  {
                    "reference": "urn:uuid:9f53e105-439e-40dd-a5de-f62276a49e38"
                  },
                  {
                    "reference": "urn:uuid:659596c5-4794-4f23-9a10-2de42e515ec2"
                  },
                  {
                    "reference": "urn:uuid:4c6ea47d-e7ed-496f-aabc-4e310c783ad8"
                  },
                  {
                    "reference": "urn:uuid:4e8e11c4-a1d6-40c8-9002-3ff5669216ce"
                  },
                  {
                    "reference": "urn:uuid:aa274704-f0e7-493d-892d-74a983d4b905"
                  },
                  {
                    "reference": "urn:uuid:f04c8be4-9e86-44e5-b3d9-ea165215cf7c"
                  },
                  {
                    "reference": "urn:uuid:c594f38f-b520-42f8-9d26-5624465a1f78"
                  },
                  {
                    "reference": "urn:uuid:38ac068c-bc39-404e-9641-53a4f4bd45b8"
                  },
                  {
                    "reference": "urn:uuid:91c2d4d8-fe09-471b-ba8b-bc4e65b85859"
                  },
                  {
                    "reference": "urn:uuid:835b1592-6a15-4b98-bce3-90beced7dc2b"
                  },
                  {
                    "reference": "urn:uuid:891eb022-9adf-4635-addc-91e440cbcc9c"
                  }
                ],
                "text": {
                  "status": "generated",
                  "div": "<div xmlns=\"http://www.w3.org/1999/xhtml\"><h3>Hematology</h3><table class=\"hl7__eu__lab__report\"><thead><tr><th>Test</th><th>03-APR-2022</th><th>Reference Range</th><th>Unit</th></tr></thead><tbody><tr><td>Leukocytes [#/volume] in Blood by Automated count</td><td>5.6</td><td>3.5 - 10.5</td><td>10*3/uL</td></tr><tr><td>Erythrocytes [#/volume] in Blood by Automated count</td><td>4.8</td><td>4 - 5</td><td>10*6/uL</td></tr><tr><td>Hemoglobin [Mass/volume] in Blood</td><td>14.2</td><td>12 - 16</td><td>g/dL</td></tr><tr><td>Hematocrit [Volume Fraction] of Blood by Automated count</td><td>46.0</td><td>36 - 47</td><td>%</td></tr><tr><td>MCV [Entitic volume] by Automated count</td><td><strong>80.8 L</strong></td><td>82 - 98</td><td>fL</td></tr><tr><td>MCH [Entitic mass] by Automated count</td><td>31.6</td><td>27 - 33</td><td>pg</td></tr><tr><td>MCHC [Mass/volume] by Automated count</td><td>33.1</td><td>31 - 35</td><td>g/dL</td></tr><tr><td>Erythrocyte distribution width [Entitic volume] by Automated count</td><td>45.3</td><td>36 - 55</td><td>fL</td></tr><tr><td>Platelets [#/volume] in Blood by Automated count</td><td>385.3</td><td>150 - 450</td><td>10*3/uL</td></tr><tr><td>Platelet distribution width [Entitic volume] in Blood by Automated count</td><td><strong>429.6 H</strong></td><td>11.6 - 17.4</td><td>fL</td></tr><tr><td>Platelet mean volume [Entitic volume] in Blood by Automated count</td><td>10.7</td><td>9.6 - 13.8</td><td>fL</td></tr></tbody></table></div>"
                },
                "title": "Hematology"
              }
            ],
            "title": "Laboratory Report"
          },
          {
            "text": {
              "status": "generated",
              "div": "<div xmlns=\"http://www.w3.org/1999/xhtml\"><h3>Annotation</h3><table class=\"hl7__eu__lab__report\"><tr><th>Conclusion and Recommendations based on this report and previous findings known to us</th></tr><tr><td>All hematological parameters are within normal limits except for a slightly decreased MCV (microcytosis) and a markedly elevated platelet distribution width (PDW). These findings may suggest early or mild microcytic anemia or increased platelet size variability, possibly due to reactive changes. Correlation with clinical context and iron studies may be considered if clinically indicated.</td></tr></table></div>"
            },
            "code": {
              "coding": [
                {
                  "system": "http://loinc.org",
                  "code": "48767-8",
                  "display": "Annotation comment"
                }
              ]
            },
            "title": "Annotation comment"
          }
        ],
        "status": "final",
        "subject": {
          "reference": "urn:uuid:2e936948-3a00-4231-9f9b-1991921dd35e",
          "display": "Olga Bąbel"
        },
        "date": "2022-04-03T05:55:50Z",
        "title": "Laboratory Report",
        "confidentiality": "N"
      }
    },
    {
      "fullUrl": "urn:uuid:82e4f7f6-27ff-439a-81a3-2d7ed59f3b7c",
      "resource": {
        "resourceType": "DiagnosticReport",
        "id": "82e4f7f6-27ff-439a-81a3-2d7ed59f3b7c",
        "meta": {
          "profile": [
            "http://hl7.eu/fhir/laboratory/StructureDefinition/DiagnosticReport-eu-lab"
          ]
        },
        "identifier": [
          {
            "assigner": {
              "display": "HL7 Europe"
            },
            "system": "urn:oid:2.16.840.1.113883.2.51.999",
            "value": "f0148c76-e2b0-4363-88c1-39ba1bb114cf"
          }
        ],
        "extension": [
          {
            "url": "http://hl7.org/fhir/5.0/StructureDefinition/extension-DiagnosticReport.composition",
            "valueReference": {
              "reference": "urn:uuid:5b0c8fd8-d396-4faf-b09e-c8315ef428c9"
            }
          }
        ],
        "category": [
          {
            "coding": [
              {
                "code": "26436-6",
                "system": "http://loinc.org",
                "display": "Laboratory studies (set)"
              }
            ]
          }
        ],
        "specimen": [
          {
            "reference": "urn:uuid:6597cce4-9e5c-4733-aed6-80600e8e593a"
          },
          {
            "reference": "urn:uuid:6597cce4-9e5c-4733-aed6-80600e8e593a"
          }
        ],
        "result": [
          {
            "reference": "urn:uuid:9f53e105-439e-40dd-a5de-f62276a49e38"
          },
          {
            "reference": "urn:uuid:659596c5-4794-4f23-9a10-2de42e515ec2"
          },
          {
            "reference": "urn:uuid:4c6ea47d-e7ed-496f-aabc-4e310c783ad8"
          },
          {
            "reference": "urn:uuid:4e8e11c4-a1d6-40c8-9002-3ff5669216ce"
          },
          {
            "reference": "urn:uuid:aa274704-f0e7-493d-892d-74a983d4b905"
          },
          {
            "reference": "urn:uuid:f04c8be4-9e86-44e5-b3d9-ea165215cf7c"
          },
          {
            "reference": "urn:uuid:c594f38f-b520-42f8-9d26-5624465a1f78"
          },
          {
            "reference": "urn:uuid:38ac068c-bc39-404e-9641-53a4f4bd45b8"
          },
          {
            "reference": "urn:uuid:91c2d4d8-fe09-471b-ba8b-bc4e65b85859"
          },
          {
            "reference": "urn:uuid:835b1592-6a15-4b98-bce3-90beced7dc2b"
          },
          {
            "reference": "urn:uuid:891eb022-9adf-4635-addc-91e440cbcc9c"
          }
        ],
        "status": "registered",
        "code": {
          "coding": [
            {
              "code": "11502-2",
              "system": "http://loinc.org",
              "display": "Laboratory report"
            }
          ]
        },
        "subject": {
          "reference": "urn:uuid:2e936948-3a00-4231-9f9b-1991921dd35e",
          "display": "Olga Bąbel"
        }
      }
    },
    {
      "fullUrl": "urn:uuid:2e936948-3a00-4231-9f9b-1991921dd35e",
      "resource": {
        "resourceType": "Patient",
        "id": "2e936948-3a00-4231-9f9b-1991921dd35e",
        "meta": {
          "security": [
            {
              "system": "http://terminology.hl7.org/CodeSystem/v3-ActReason",
              "code": "HTEST"
            },
            {
              "system": "http://terminology.hl7.org/CodeSystem/v3-ActReason",
              "code": "TRAIN"
            }
          ],
          "tag": [
            {
              "system": "https://synderai.net/fhir/CodeSystem/tags",
              "code": "synthetic",
              "display": "SYNDERAI Synthetic data"
            }
          ],
          "profile": [
            "http://hl7.eu/fhir/base/StructureDefinition/patient-eu-core"
          ]
        },
        "identifier": [
          {
            "type": {
              "coding": [
                {
                  "code": "PT",
                  "system": "http://terminology.hl7.org/CodeSystem/v2-0203"
                }
              ]
            },
            "system": "http://ec.europa.eu/identifier/eci",
            "value": "5030-866518-6"
          },
          {
            "type": {
              "coding": [
                {
                  "code": "MR",
                  "system": "http://terminology.hl7.org/CodeSystem/v2-0203"
                }
              ]
            },
            "system": "http://local.setting.eu/identifier",
            "value": "90f4ce41-5cb2-20e8-d5ac-80001edd2b41"
          }
        ],
        "name": [
          {
            "family": "Bąbel"
          },
          {
            "given": [
              "Olga"
            ]
          },
          {
            "text": "Olga Bąbel"
          }
        ],
        "address": [
          {
            "line": [
              "ul. Podleśna 13/38"
            ],
            "use": "home",
            "type": "physical",
            "postalCode": "05-200",
            "city": "Wołomin",
            "country": "Poland"
          }
        ],
        "telecom": [
          {
            "system": "phone",
            "value": "+48 506 354 073"
          }
        ],
        "extension": [
          {
            "url": "http://hl7.org/fhir/StructureDefinition/patient-nationality",
            "valueCodeableConcept": {
              "coding": [
                {
                  "code": "PL",
                  "system": "http://hl7.org/fhir/ValueSet/country"
                }
              ]
            }
          }
        ],
        "text": {
          "status": "generated",
          "div": "<div xmlns=\"http://www.w3.org/1999/xhtml\"><table class=\"hl7__ips\"><tr><td>Olga Bąbel</td><td>female</td><td>05-Jun-1993</td></tr></table></div>"
        },
        "gender": "female",
        "birthDate": "1993-06-05"
      }
    },
    {
      "fullUrl": "urn:uuid:1087fd63-84ad-4579-92f0-b020496b839d",
      "resource": {
        "resourceType": "ServiceRequest",
        "id": "1087fd63-84ad-4579-92f0-b020496b839d",
        "meta": {
          "profile": [
            "http://hl7.eu/fhir/laboratory/StructureDefinition/ServiceRequest-eu-lab"
          ]
        },
        "identifier": [
          {
            "system": "http://example.org",
            "value": "7af63f9b-d87f-412e-9e3f-a0d52c3d6f6e"
          }
        ],
        "specimen": [
          {
            "reference": "urn:uuid:6597cce4-9e5c-4733-aed6-80600e8e593a"
          }
        ],
        "reasonCode": [
          {
            "coding": [
              {
                "code": "15777000",
                "system": "http://snomed.info/sct",
                "display": "Prediabetes"
              }
            ]
          },
          {
            "coding": [
              {
                "code": "271737000",
                "system": "http://snomed.info/sct",
                "display": "Anemia"
              }
            ]
          }
        ],
        "status": "active",
        "intent": "order",
        "code": {
          "coding": [
            {
              "code": "108252007",
              "system": "http://snomed.info/sct",
              "display": "Laboratory procedure"
            }
          ]
        },
        "subject": {
          "reference": "urn:uuid:2e936948-3a00-4231-9f9b-1991921dd35e",
          "display": "Olga Bąbel"
        },
        "requester": {
          "reference": "urn:uuid:45871fba-7880-4d2d-8b3a-abee3f1b80a8"
        }
      }
    },
    {
      "fullUrl": "urn:uuid:45871fba-7880-4d2d-8b3a-abee3f1b80a8",
      "resource": {
        "resourceType": "PractitionerRole",
        "id": "45871fba-7880-4d2d-8b3a-abee3f1b80a8",
        "meta": {
          "profile": [
            "http://hl7.eu/fhir/base/StructureDefinition/practitionerRole-eu"
          ]
        },
        "text": {
          "status": "generated",
          "div": "<div xmlns=\"http://www.w3.org/1999/xhtml\">Provider Role Id: 45871fba-7880-4d2d-8b3a-abee3f1b80a8</div>"
        },
        "organization": {
          "reference": "urn:uuid:1a9ee077-b76b-47af-b2e2-d433357c67e7"
        }
      }
    },
    {
      "fullUrl": "urn:uuid:1a9ee077-b76b-47af-b2e2-d433357c67e7",
      "resource": {
        "resourceType": "Organization",
        "id": "1a9ee077-b76b-47af-b2e2-d433357c67e7",
        "meta": {
          "profile": [
            "http://hl7.eu/fhir/base/StructureDefinition/organization-eu"
          ]
        },
        "identifier": [
          {
            "assigner": {
              "display": "HL7 Europe"
            },
            "system": "urn:oid:2.16.840.1.113883.2.51.999",
            "value": "d272e072-0f1d-4131-88c1-af7e286ab9d4"
          }
        ],
        "address": [
          {
            "line": [
              "Ignacego Prądzyńskiego 11"
            ],
            "city": "Wołomin",
            "postalCode": "05-200",
            "country": "Poland"
          }
        ],
        "text": {
          "status": "generated",
          "div": "<div xmlns=\"http://www.w3.org/1999/xhtml\">Provider Organization: Miejski Samodzielny Publiczny Zakład Opieki Zdrowotnej Nr 1</div>"
        },
        "name": "Miejski Samodzielny Publiczny Zakład Opieki Zdrowotnej Nr 1"
      }
    },
    {
      "fullUrl": "urn:uuid:6597cce4-9e5c-4733-aed6-80600e8e593a",
      "resource": {
        "resourceType": "Specimen",
        "id": "6597cce4-9e5c-4733-aed6-80600e8e593a",
        "meta": {
          "profile": [
            "http://hl7.eu/fhir/laboratory/StructureDefinition/Specimen-eu-lab"
          ]
        },
        "collection": {
          "collectedDateTime": "2022-04-03"
        },
        "text": {
          "status": "generated",
          "div": "<div xmlns=\"http://www.w3.org/1999/xhtml\"><table class=\"hl7__eu__lab__report\"><tr><th>Specimen</th><th>Collection Date</th></tr><tr><td>Whole blood specimen (specimen)</td><td><span class=\"nb\">03-Apr-2022</span></td></tr></table></div>"
        },
        "type": {
          "coding": [
            {
              "code": "258580003",
              "system": "http://snomed.info/sct",
              "display": "Whole blood specimen (specimen)"
            }
          ]
        }
      }
    },
    {
      "fullUrl": "urn:uuid:6597cce4-9e5c-4733-aed6-80600e8e593a",
      "resource": {
        "resourceType": "Specimen",
        "id": "6597cce4-9e5c-4733-aed6-80600e8e593a",
        "meta": {
          "profile": [
            "http://hl7.eu/fhir/laboratory/StructureDefinition/Specimen-eu-lab"
          ]
        },
        "collection": {
          "collectedDateTime": "2022-04-03"
        },
        "text": {
          "status": "generated",
          "div": "<div xmlns=\"http://www.w3.org/1999/xhtml\"><table class=\"hl7__eu__lab__report\"><tr><th>Specimen</th><th>Collection Date</th></tr><tr><td>Whole blood specimen (specimen)</td><td><span class=\"nb\">03-Apr-2022</span></td></tr></table></div>"
        },
        "type": {
          "coding": [
            {
              "code": "258580003",
              "system": "http://snomed.info/sct",
              "display": "Whole blood specimen (specimen)"
            }
          ]
        }
      }
    },
    {
      "fullUrl": "urn:uuid:9f53e105-439e-40dd-a5de-f62276a49e38",
      "resource": {
        "resourceType": "Observation",
        "id": "9f53e105-439e-40dd-a5de-f62276a49e38",
        "meta": {
          "profile": [
            "http://hl7.eu/fhir/laboratory/StructureDefinition/Observation-resultslab-eu-lab"
          ]
        },
        "performer": [
          {
            "display": "The Central European Lab"
          }
        ],
        "category": [
          {
            "coding": [
              {
                "system": "http://terminology.hl7.org/CodeSystem/observation-category",
                "code": "laboratory"
              }
            ]
          }
        ],
        "code": {
          "coding": [
            {
              "code": "6690-2",
              "system": "http://loinc.org",
              "display": "Leukocytes [#/volume] in Blood by Automated count"
            }
          ],
          "text": "Leukocytes [#/volume] in Blood by Automated count"
        },
        "valueQuantity": {
          "system": "http://unitsofmeasure.org",
          "value": 5.6,
          "unit": "10*3/uL",
          "code": "10*3/uL"
        },
        "referenceRange": [
          {
            "low": {
              "value": 3.5,
              "code": "10*3/uL",
              "system": "http://unitsofmeasure.org"
            }
          },
          {
            "high": {
              "value": 10.5,
              "code": "10*3/uL",
              "system": "http://unitsofmeasure.org"
            }
          }
        ],
        "text": {
          "status": "generated",
          "div": "<div xmlns=\"http://www.w3.org/1999/xhtml\"><table class=\"hl7__eu__lab__report\"><tr><th>Test</th><th>03-Apr-2022</th><th>Reference Range</th><th>Unit</th></tr><tr><td>Leukocytes [#/volume] in Blood by Automated count</td><td>5.6</td><td>3.5 - 10.5</td><td></td><td>10*3/uL</td></tr></table></div>"
        },
        "status": "final",
        "subject": {
          "reference": "urn:uuid:2e936948-3a00-4231-9f9b-1991921dd35e",
          "display": "Olga Bąbel"
        },
        "effectiveDateTime": "2022-04-03T03:55:50Z",
        "specimen": {
          "reference": "urn:uuid:6597cce4-9e5c-4733-aed6-80600e8e593a"
        }
      }
    },
    {
      "fullUrl": "urn:uuid:659596c5-4794-4f23-9a10-2de42e515ec2",
      "resource": {
        "resourceType": "Observation",
        "id": "659596c5-4794-4f23-9a10-2de42e515ec2",
        "meta": {
          "profile": [
            "http://hl7.eu/fhir/laboratory/StructureDefinition/Observation-resultslab-eu-lab"
          ]
        },
        "performer": [
          {
            "display": "The Central European Lab"
          }
        ],
        "category": [
          {
            "coding": [
              {
                "system": "http://terminology.hl7.org/CodeSystem/observation-category",
                "code": "laboratory"
              }
            ]
          }
        ],
        "code": {
          "coding": [
            {
              "code": "789-8",
              "system": "http://loinc.org",
              "display": "Erythrocytes [#/volume] in Blood by Automated count"
            }
          ],
          "text": "Erythrocytes [#/volume] in Blood by Automated count"
        },
        "valueQuantity": {
          "system": "http://unitsofmeasure.org",
          "value": 4.8,
          "unit": "10*6/uL",
          "code": "10*6/uL"
        },
        "referenceRange": [
          {
            "low": {
              "value": 4,
              "code": "10*6/uL",
              "system": "http://unitsofmeasure.org"
            }
          },
          {
            "high": {
              "value": 5,
              "code": "10*6/uL",
              "system": "http://unitsofmeasure.org"
            }
          }
        ],
        "text": {
          "status": "generated",
          "div": "<div xmlns=\"http://www.w3.org/1999/xhtml\"><table class=\"hl7__eu__lab__report\"><tr><th>Test</th><th>03-Apr-2022</th><th>Reference Range</th><th>Unit</th></tr><tr><td>Erythrocytes [#/volume] in Blood by Automated count</td><td>4.8</td><td>4 - 5</td><td></td><td>10*6/uL</td></tr></table></div>"
        },
        "status": "final",
        "subject": {
          "reference": "urn:uuid:2e936948-3a00-4231-9f9b-1991921dd35e",
          "display": "Olga Bąbel"
        },
        "effectiveDateTime": "2022-04-03T03:55:50Z",
        "specimen": {
          "reference": "urn:uuid:6597cce4-9e5c-4733-aed6-80600e8e593a"
        }
      }
    },
    {
      "fullUrl": "urn:uuid:4c6ea47d-e7ed-496f-aabc-4e310c783ad8",
      "resource": {
        "resourceType": "Observation",
        "id": "4c6ea47d-e7ed-496f-aabc-4e310c783ad8",
        "meta": {
          "profile": [
            "http://hl7.eu/fhir/laboratory/StructureDefinition/Observation-resultslab-eu-lab"
          ]
        },
        "performer": [
          {
            "display": "The Central European Lab"
          }
        ],
        "category": [
          {
            "coding": [
              {
                "system": "http://terminology.hl7.org/CodeSystem/observation-category",
                "code": "laboratory"
              }
            ]
          }
        ],
        "code": {
          "coding": [
            {
              "code": "718-7",
              "system": "http://loinc.org",
              "display": "Hemoglobin [Mass/volume] in Blood"
            }
          ],
          "text": "Hemoglobin [Mass/volume] in Blood"
        },
        "valueQuantity": {
          "system": "http://unitsofmeasure.org",
          "value": 14.2,
          "unit": "g/dL",
          "code": "g/dL"
        },
        "referenceRange": [
          {
            "low": {
              "value": 12,
              "code": "g/dL",
              "system": "http://unitsofmeasure.org"
            }
          },
          {
            "high": {
              "value": 16,
              "code": "g/dL",
              "system": "http://unitsofmeasure.org"
            }
          }
        ],
        "text": {
          "status": "generated",
          "div": "<div xmlns=\"http://www.w3.org/1999/xhtml\"><table class=\"hl7__eu__lab__report\"><tr><th>Test</th><th>03-Apr-2022</th><th>Reference Range</th><th>Unit</th></tr><tr><td>Hemoglobin [Mass/volume] in Blood</td><td>14.2</td><td>12 - 16</td><td></td><td>g/dL</td></tr></table></div>"
        },
        "status": "final",
        "subject": {
          "reference": "urn:uuid:2e936948-3a00-4231-9f9b-1991921dd35e",
          "display": "Olga Bąbel"
        },
        "effectiveDateTime": "2022-04-03T03:55:50Z",
        "specimen": {
          "reference": "urn:uuid:6597cce4-9e5c-4733-aed6-80600e8e593a"
        }
      }
    },
    {
      "fullUrl": "urn:uuid:4e8e11c4-a1d6-40c8-9002-3ff5669216ce",
      "resource": {
        "resourceType": "Observation",
        "id": "4e8e11c4-a1d6-40c8-9002-3ff5669216ce",
        "meta": {
          "profile": [
            "http://hl7.eu/fhir/laboratory/StructureDefinition/Observation-resultslab-eu-lab"
          ]
        },
        "performer": [
          {
            "display": "The Central European Lab"
          }
        ],
        "category": [
          {
            "coding": [
              {
                "system": "http://terminology.hl7.org/CodeSystem/observation-category",
                "code": "laboratory"
              }
            ]
          }
        ],
        "code": {
          "coding": [
            {
              "code": "4544-3",
              "system": "http://loinc.org",
              "display": "Hematocrit [Volume Fraction] of Blood by Automated count"
            }
          ],
          "text": "Hematocrit [Volume Fraction] of Blood by Automated count"
        },
        "valueQuantity": {
          "system": "http://unitsofmeasure.org",
          "value": 46,
          "unit": "%",
          "code": "%"
        },
        "referenceRange": [
          {
            "low": {
              "value": 36,
              "code": "%",
              "system": "http://unitsofmeasure.org"
            }
          },
          {
            "high": {
              "value": 47,
              "code": "%",
              "system": "http://unitsofmeasure.org"
            }
          }
        ],
        "text": {
          "status": "generated",
          "div": "<div xmlns=\"http://www.w3.org/1999/xhtml\"><table class=\"hl7__eu__lab__report\"><tr><th>Test</th><th>03-Apr-2022</th><th>Reference Range</th><th>Unit</th></tr><tr><td>Hematocrit [Volume Fraction] of Blood by Automated count</td><td>46.0</td><td>36 - 47</td><td></td><td>%</td></tr></table></div>"
        },
        "status": "final",
        "subject": {
          "reference": "urn:uuid:2e936948-3a00-4231-9f9b-1991921dd35e",
          "display": "Olga Bąbel"
        },
        "effectiveDateTime": "2022-04-03T03:55:50Z",
        "specimen": {
          "reference": "urn:uuid:6597cce4-9e5c-4733-aed6-80600e8e593a"
        }
      }
    },
    {
      "fullUrl": "urn:uuid:aa274704-f0e7-493d-892d-74a983d4b905",
      "resource": {
        "resourceType": "Observation",
        "id": "aa274704-f0e7-493d-892d-74a983d4b905",
        "meta": {
          "profile": [
            "http://hl7.eu/fhir/laboratory/StructureDefinition/Observation-resultslab-eu-lab"
          ]
        },
        "performer": [
          {
            "display": "The Central European Lab"
          }
        ],
        "category": [
          {
            "coding": [
              {
                "system": "http://terminology.hl7.org/CodeSystem/observation-category",
                "code": "laboratory"
              }
            ]
          }
        ],
        "code": {
          "coding": [
            {
              "code": "787-2",
              "system": "http://loinc.org",
              "display": "MCV [Entitic volume] by Automated count"
            }
          ],
          "text": "MCV [Entitic volume] by Automated count"
        },
        "valueQuantity": {
          "system": "http://unitsofmeasure.org",
          "value": 80.8,
          "unit": "fL",
          "code": "fL"
        },
        "referenceRange": [
          {
            "low": {
              "value": 82,
              "code": "fL",
              "system": "http://unitsofmeasure.org"
            }
          },
          {
            "high": {
              "value": 98,
              "code": "fL",
              "system": "http://unitsofmeasure.org"
            }
          }
        ],
        "interpretation": [
          {
            "coding": [
              {
                "code": "L",
                "system": "http://terminology.hl7.org/CodeSystem/v3-ObservationInterpretation",
                "display": "Low"
              }
            ]
          }
        ],
        "text": {
          "status": "generated",
          "div": "<div xmlns=\"http://www.w3.org/1999/xhtml\"><table class=\"hl7__eu__lab__report\"><tr><th>Test</th><th>03-Apr-2022</th><th>Reference Range</th><th>Unit</th></tr><tr><td>MCV [Entitic volume] by Automated count</td><td>80.8</td><td>82 - 98</td><td>L</td><td>fL</td></tr></table></div>"
        },
        "status": "final",
        "subject": {
          "reference": "urn:uuid:2e936948-3a00-4231-9f9b-1991921dd35e",
          "display": "Olga Bąbel"
        },
        "effectiveDateTime": "2022-04-03T03:55:50Z",
        "specimen": {
          "reference": "urn:uuid:6597cce4-9e5c-4733-aed6-80600e8e593a"
        }
      }
    },
    {
      "fullUrl": "urn:uuid:f04c8be4-9e86-44e5-b3d9-ea165215cf7c",
      "resource": {
        "resourceType": "Observation",
        "id": "f04c8be4-9e86-44e5-b3d9-ea165215cf7c",
        "meta": {
          "profile": [
            "http://hl7.eu/fhir/laboratory/StructureDefinition/Observation-resultslab-eu-lab"
          ]
        },
        "performer": [
          {
            "display": "The Central European Lab"
          }
        ],
        "category": [
          {
            "coding": [
              {
                "system": "http://terminology.hl7.org/CodeSystem/observation-category",
                "code": "laboratory"
              }
            ]
          }
        ],
        "code": {
          "coding": [
            {
              "code": "785-6",
              "system": "http://loinc.org",
              "display": "MCH [Entitic mass] by Automated count"
            }
          ],
          "text": "MCH [Entitic mass] by Automated count"
        },
        "valueQuantity": {
          "system": "http://unitsofmeasure.org",
          "value": 31.6,
          "unit": "pg",
          "code": "pg"
        },
        "referenceRange": [
          {
            "low": {
              "value": 27,
              "code": "pg",
              "system": "http://unitsofmeasure.org"
            }
          },
          {
            "high": {
              "value": 33,
              "code": "pg",
              "system": "http://unitsofmeasure.org"
            }
          }
        ],
        "text": {
          "status": "generated",
          "div": "<div xmlns=\"http://www.w3.org/1999/xhtml\"><table class=\"hl7__eu__lab__report\"><tr><th>Test</th><th>03-Apr-2022</th><th>Reference Range</th><th>Unit</th></tr><tr><td>MCH [Entitic mass] by Automated count</td><td>31.6</td><td>27 - 33</td><td></td><td>pg</td></tr></table></div>"
        },
        "status": "final",
        "subject": {
          "reference": "urn:uuid:2e936948-3a00-4231-9f9b-1991921dd35e",
          "display": "Olga Bąbel"
        },
        "effectiveDateTime": "2022-04-03T03:55:50Z",
        "specimen": {
          "reference": "urn:uuid:6597cce4-9e5c-4733-aed6-80600e8e593a"
        }
      }
    },
    {
      "fullUrl": "urn:uuid:c594f38f-b520-42f8-9d26-5624465a1f78",
      "resource": {
        "resourceType": "Observation",
        "id": "c594f38f-b520-42f8-9d26-5624465a1f78",
        "meta": {
          "profile": [
            "http://hl7.eu/fhir/laboratory/StructureDefinition/Observation-resultslab-eu-lab"
          ]
        },
        "performer": [
          {
            "display": "The Central European Lab"
          }
        ],
        "category": [
          {
            "coding": [
              {
                "system": "http://terminology.hl7.org/CodeSystem/observation-category",
                "code": "laboratory"
              }
            ]
          }
        ],
        "code": {
          "coding": [
            {
              "code": "786-4",
              "system": "http://loinc.org",
              "display": "MCHC [Mass/volume] by Automated count"
            }
          ],
          "text": "MCHC [Mass/volume] by Automated count"
        },
        "valueQuantity": {
          "system": "http://unitsofmeasure.org",
          "value": 33.1,
          "unit": "g/dL",
          "code": "g/dL"
        },
        "referenceRange": [
          {
            "low": {
              "value": 31,
              "code": "g/dL",
              "system": "http://unitsofmeasure.org"
            }
          },
          {
            "high": {
              "value": 35,
              "code": "g/dL",
              "system": "http://unitsofmeasure.org"
            }
          }
        ],
        "text": {
          "status": "generated",
          "div": "<div xmlns=\"http://www.w3.org/1999/xhtml\"><table class=\"hl7__eu__lab__report\"><tr><th>Test</th><th>03-Apr-2022</th><th>Reference Range</th><th>Unit</th></tr><tr><td>MCHC [Mass/volume] by Automated count</td><td>33.1</td><td>31 - 35</td><td></td><td>g/dL</td></tr></table></div>"
        },
        "status": "final",
        "subject": {
          "reference": "urn:uuid:2e936948-3a00-4231-9f9b-1991921dd35e",
          "display": "Olga Bąbel"
        },
        "effectiveDateTime": "2022-04-03T03:55:50Z",
        "specimen": {
          "reference": "urn:uuid:6597cce4-9e5c-4733-aed6-80600e8e593a"
        }
      }
    },
    {
      "fullUrl": "urn:uuid:38ac068c-bc39-404e-9641-53a4f4bd45b8",
      "resource": {
        "resourceType": "Observation",
        "id": "38ac068c-bc39-404e-9641-53a4f4bd45b8",
        "meta": {
          "profile": [
            "http://hl7.eu/fhir/laboratory/StructureDefinition/Observation-resultslab-eu-lab"
          ]
        },
        "performer": [
          {
            "display": "The Central European Lab"
          }
        ],
        "category": [
          {
            "coding": [
              {
                "system": "http://terminology.hl7.org/CodeSystem/observation-category",
                "code": "laboratory"
              }
            ]
          }
        ],
        "code": {
          "coding": [
            {
              "code": "21000-5",
              "system": "http://loinc.org",
              "display": "Erythrocyte distribution width [Entitic volume] by Automated count"
            }
          ],
          "text": "Erythrocyte distribution width [Entitic volume] by Automated count"
        },
        "valueQuantity": {
          "system": "http://unitsofmeasure.org",
          "value": 45.3,
          "unit": "fL",
          "code": "fL"
        },
        "referenceRange": [
          {
            "low": {
              "value": 36,
              "code": "fL",
              "system": "http://unitsofmeasure.org"
            }
          },
          {
            "high": {
              "value": 55,
              "code": "fL",
              "system": "http://unitsofmeasure.org"
            }
          }
        ],
        "text": {
          "status": "generated",
          "div": "<div xmlns=\"http://www.w3.org/1999/xhtml\"><table class=\"hl7__eu__lab__report\"><tr><th>Test</th><th>03-Apr-2022</th><th>Reference Range</th><th>Unit</th></tr><tr><td>Erythrocyte distribution width [Entitic volume] by Automated count</td><td>45.3</td><td>36 - 55</td><td></td><td>fL</td></tr></table></div>"
        },
        "status": "final",
        "subject": {
          "reference": "urn:uuid:2e936948-3a00-4231-9f9b-1991921dd35e",
          "display": "Olga Bąbel"
        },
        "effectiveDateTime": "2022-04-03T03:55:50Z",
        "specimen": {
          "reference": "urn:uuid:6597cce4-9e5c-4733-aed6-80600e8e593a"
        }
      }
    },
    {
      "fullUrl": "urn:uuid:91c2d4d8-fe09-471b-ba8b-bc4e65b85859",
      "resource": {
        "resourceType": "Observation",
        "id": "91c2d4d8-fe09-471b-ba8b-bc4e65b85859",
        "meta": {
          "profile": [
            "http://hl7.eu/fhir/laboratory/StructureDefinition/Observation-resultslab-eu-lab"
          ]
        },
        "performer": [
          {
            "display": "The Central European Lab"
          }
        ],
        "category": [
          {
            "coding": [
              {
                "system": "http://terminology.hl7.org/CodeSystem/observation-category",
                "code": "laboratory"
              }
            ]
          }
        ],
        "code": {
          "coding": [
            {
              "code": "777-3",
              "system": "http://loinc.org",
              "display": "Platelets [#/volume] in Blood by Automated count"
            }
          ],
          "text": "Platelets [#/volume] in Blood by Automated count"
        },
        "valueQuantity": {
          "system": "http://unitsofmeasure.org",
          "value": 385.3,
          "unit": "10*3/uL",
          "code": "10*3/uL"
        },
        "referenceRange": [
          {
            "low": {
              "value": 150,
              "code": "10*3/uL",
              "system": "http://unitsofmeasure.org"
            }
          },
          {
            "high": {
              "value": 450,
              "code": "10*3/uL",
              "system": "http://unitsofmeasure.org"
            }
          }
        ],
        "text": {
          "status": "generated",
          "div": "<div xmlns=\"http://www.w3.org/1999/xhtml\"><table class=\"hl7__eu__lab__report\"><tr><th>Test</th><th>03-Apr-2022</th><th>Reference Range</th><th>Unit</th></tr><tr><td>Platelets [#/volume] in Blood by Automated count</td><td>385.3</td><td>150 - 450</td><td></td><td>10*3/uL</td></tr></table></div>"
        },
        "status": "final",
        "subject": {
          "reference": "urn:uuid:2e936948-3a00-4231-9f9b-1991921dd35e",
          "display": "Olga Bąbel"
        },
        "effectiveDateTime": "2022-04-03T03:55:50Z",
        "specimen": {
          "reference": "urn:uuid:6597cce4-9e5c-4733-aed6-80600e8e593a"
        }
      }
    },
    {
      "fullUrl": "urn:uuid:835b1592-6a15-4b98-bce3-90beced7dc2b",
      "resource": {
        "resourceType": "Observation",
        "id": "835b1592-6a15-4b98-bce3-90beced7dc2b",
        "meta": {
          "profile": [
            "http://hl7.eu/fhir/laboratory/StructureDefinition/Observation-resultslab-eu-lab"
          ]
        },
        "performer": [
          {
            "display": "The Central European Lab"
          }
        ],
        "category": [
          {
            "coding": [
              {
                "system": "http://terminology.hl7.org/CodeSystem/observation-category",
                "code": "laboratory"
              }
            ]
          }
        ],
        "code": {
          "coding": [
            {
              "code": "32207-3",
              "system": "http://loinc.org",
              "display": "Platelet distribution width [Entitic volume] in Blood by Automated count"
            }
          ],
          "text": "Platelet distribution width [Entitic volume] in Blood by Automated count"
        },
        "valueQuantity": {
          "system": "http://unitsofmeasure.org",
          "value": 429.6,
          "unit": "fL",
          "code": "fL"
        },
        "referenceRange": [
          {
            "low": {
              "value": 11.6,
              "code": "fL",
              "system": "http://unitsofmeasure.org"
            }
          },
          {
            "high": {
              "value": 17.4,
              "code": "fL",
              "system": "http://unitsofmeasure.org"
            }
          }
        ],
        "interpretation": [
          {
            "coding": [
              {
                "code": "H",
                "system": "http://terminology.hl7.org/CodeSystem/v3-ObservationInterpretation",
                "display": "High"
              }
            ]
          }
        ],
        "text": {
          "status": "generated",
          "div": "<div xmlns=\"http://www.w3.org/1999/xhtml\"><table class=\"hl7__eu__lab__report\"><tr><th>Test</th><th>03-Apr-2022</th><th>Reference Range</th><th>Unit</th></tr><tr><td>Platelet distribution width [Entitic volume] in Blood by Automated count</td><td>429.6</td><td>11.6 - 17.4</td><td>H</td><td>fL</td></tr></table></div>"
        },
        "status": "final",
        "subject": {
          "reference": "urn:uuid:2e936948-3a00-4231-9f9b-1991921dd35e",
          "display": "Olga Bąbel"
        },
        "effectiveDateTime": "2022-04-03T03:55:50Z",
        "specimen": {
          "reference": "urn:uuid:6597cce4-9e5c-4733-aed6-80600e8e593a"
        }
      }
    },
    {
      "fullUrl": "urn:uuid:891eb022-9adf-4635-addc-91e440cbcc9c",
      "resource": {
        "resourceType": "Observation",
        "id": "891eb022-9adf-4635-addc-91e440cbcc9c",
        "meta": {
          "profile": [
            "http://hl7.eu/fhir/laboratory/StructureDefinition/Observation-resultslab-eu-lab"
          ]
        },
        "performer": [
          {
            "display": "The Central European Lab"
          }
        ],
        "category": [
          {
            "coding": [
              {
                "system": "http://terminology.hl7.org/CodeSystem/observation-category",
                "code": "laboratory"
              }
            ]
          }
        ],
        "code": {
          "coding": [
            {
              "code": "32623-1",
              "system": "http://loinc.org",
              "display": "Platelet mean volume [Entitic volume] in Blood by Automated count"
            }
          ],
          "text": "Platelet mean volume [Entitic volume] in Blood by Automated count"
        },
        "valueQuantity": {
          "system": "http://unitsofmeasure.org",
          "value": 10.7,
          "unit": "fL",
          "code": "fL"
        },
        "referenceRange": [
          {
            "low": {
              "value": 9.6,
              "code": "fL",
              "system": "http://unitsofmeasure.org"
            }
          },
          {
            "high": {
              "value": 13.8,
              "code": "fL",
              "system": "http://unitsofmeasure.org"
            }
          }
        ],
        "text": {
          "status": "generated",
          "div": "<div xmlns=\"http://www.w3.org/1999/xhtml\"><table class=\"hl7__eu__lab__report\"><tr><th>Test</th><th>03-Apr-2022</th><th>Reference Range</th><th>Unit</th></tr><tr><td>Platelet mean volume [Entitic volume] in Blood by Automated count</td><td>10.7</td><td>9.6 - 13.8</td><td></td><td>fL</td></tr></table></div>"
        },
        "status": "final",
        "subject": {
          "reference": "urn:uuid:2e936948-3a00-4231-9f9b-1991921dd35e",
          "display": "Olga Bąbel"
        },
        "effectiveDateTime": "2022-04-03T03:55:50Z",
        "specimen": {
          "reference": "urn:uuid:6597cce4-9e5c-4733-aed6-80600e8e593a"
        }
      }
    },
    {
      "fullUrl": "urn:uuid:d6509375-f58a-481a-86cb-939ea69704d7",
      "resource": {
        "resourceType": "Device",
        "id": "d6509375-f58a-481a-86cb-939ea69704d7",
        "deviceName": [
          {
            "name": "SYNDERAI Synthetic Generator",
            "type": "manufacturer-name"
          }
        ],
        "version": [
          {
            "value": "5.0"
          }
        ],
        "text": {
          "status": "generated",
          "div": "<div xmlns=\"http://www.w3.org/1999/xhtml\">SYNDERAI Synthetic Generator v5.0</div>"
        },
        "status": "active\"",
        "distinctIdentifier": "synderai-generator-50",
        "manufacturer": "SYNDERAI Project"
      }
    },
    {
      "fullUrl": "urn:uuid:6d680308-826b-4760-afae-05a6bdb40aeb",
      "resource": {
        "resourceType": "Provenance",
        "id": "6d680308-826b-4760-afae-05a6bdb40aeb",
        "target": [
          {
            "reference": "Patient/2e936948-3a00-4231-9f9b-1991921dd35e"
          },
          {
            "reference": "Bundle/47f3fed7-8be6-418e-87d6-44d1d6a4b8ae"
          },
          {
            "reference": "Composition/ae9f381b-9051-4ffa-b2af-af0b318f89a1"
          },
          {
            "reference": "PractitionerRole/e1d45506-6ae6-4cf8-a234-695d78c9f763"
          },
          {
            "reference": "Practitioner/b00acd1f-1f10-4faf-933d-0b4122983615"
          },
          {
            "reference": "PractitionerRole/45871fba-7880-4d2d-8b3a-abee3f1b80a8"
          },
          {
            "reference": "Organization/1a9ee077-b76b-47af-b2e2-d433357c67e7"
          }
        ],
        "activity": {
          "text": "Synthetic Example Data Generation"
        },
        "policy": [
          "https://synderai.net/synderai-synthetic-data-policy"
        ],
        "agent": [
          {
            "type": {
              "text": "author"
            },
            "who": {
              "reference": "Device/d6509375-f58a-481a-86cb-939ea69704d7"
            }
          }
        ],
        "reason": [
          {
            "text": "Interoperability Testing and Training (non-clinical use)"
          }
        ],
        "text": {
          "status": "generated",
          "div": "<div xmlns=\"http://www.w3.org/1999/xhtml\">Provenance for SYNDERAI Synthetic Example Data Resource</div>"
        },
        "recorded": "2022-04-03T05:55:50Z"
      }
    },
    {
      "fullUrl": "urn:uuid:e1d45506-6ae6-4cf8-a234-695d78c9f763",
      "resource": {
        "resourceType": "PractitionerRole",
        "id": "e1d45506-6ae6-4cf8-a234-695d78c9f763",
        "meta": {
          "profile": [
            "http://hl7.eu/fhir/base/StructureDefinition/practitionerRole-eu"
          ]
        },
        "text": {
          "status": "generated",
          "div": "<div xmlns=\"http://www.w3.org/1999/xhtml\">Laboratory Role Id: e1d45506-6ae6-4cf8-a234-695d78c9f763</div>"
        },
        "practitioner": {
          "reference": "urn:uuid:b00acd1f-1f10-4faf-933d-0b4122983615"
        }
      }
    },
    {
      "fullUrl": "urn:uuid:b00acd1f-1f10-4faf-933d-0b4122983615",
      "resource": {
        "resourceType": "Practitioner",
        "id": "b00acd1f-1f10-4faf-933d-0b4122983615",
        "meta": {
          "profile": [
            "http://hl7.eu/fhir/base/StructureDefinition/practitioner-eu"
          ]
        },
        "identifier": [
          {
            "assigner": {
              "display": "HL7 Europe"
            },
            "system": "urn:oid:2.16.840.1.113883.2.51.999",
            "value": "42e1c23b-eb42-4d14-870c-40a46bdd41a1"
          }
        ],
        "name": [
          {
            "prefix": [
              "dr"
            ],
            "given": [
              "Ex"
            ],
            "family": "Ample"
          }
        ],
        "address": [
          {
            "line": [
              "Laboratoire Central Européenne",
              "Boulevard du Jardin Botanique 32"
            ],
            "postalCode": "1000",
            "city": "Brussels",
            "country": "Belgium"
          }
        ],
        "text": {
          "status": "generated",
          "div": "<div xmlns=\"http://www.w3.org/1999/xhtml\">Laboratory: Laboratoire Central Européenne, 1000 Brussels, Belgium</div>"
        }
      }
    }
  ],
  "type": "document",
  "timestamp": "2022-04-03T05:55:50Z"
}
