{
  "resourceType": "Bundle",
  "id": "958a4d1b-24aa-4c3c-bf06-e37725c980d7",
  "meta": {
    "profile": [
      "http://hl7.eu/fhir/laboratory/StructureDefinition/Bundle-eu-lab"
    ]
  },
  "identifier": {
    "assigner": {
      "display": "HL7 Europe"
    },
    "system": "urn:oid:2.16.840.1.113883.2.51.999",
    "value": "cf2e7055-0c89-4d63-b0b1-2f07ae60cc4a"
  },
  "entry": [
    {
      "fullUrl": "urn:uuid:1fcfd4d7-24aa-4404-b225-43efa4d0d0b5",
      "resource": {
        "resourceType": "Composition",
        "id": "1fcfd4d7-24aa-4404-b225-43efa4d0d0b5",
        "meta": {
          "profile": [
            "http://hl7.eu/fhir/laboratory/StructureDefinition/Composition-eu-lab"
          ]
        },
        "identifier": {
          "assigner": {
            "display": "HL7 Europe"
          },
          "system": "urn:oid:2.16.840.1.113883.2.51.999",
          "value": "2648ad64-30e6-4452-a516-8db2b02ce4bd"
        },
        "author": [
          {
            "reference": "urn:uuid:54e0e940-af70-4832-97f2-56dd20f4ff67"
          }
        ],
        "category": [
          {
            "coding": [
              {
                "code": "26436-6",
                "system": "http://loinc.org",
                "display": "Laboratory studies (set)"
              }
            ]
          }
        ],
        "type": {
          "coding": [
            {
              "code": "11502-2",
              "system": "http://loinc.org",
              "display": "Laboratory report"
            }
          ],
          "text": "Laboratory Report"
        },
        "section": [
          {
            "code": {
              "coding": [
                {
                  "code": "26436-6",
                  "system": "http://loinc.org",
                  "display": "Laboratory studies (set)"
                }
              ],
              "text": "Laboratory studies"
            },
            "section": [
              {
                "code": {
                  "coding": [
                    {
                      "code": "$18723-7",
                      "system": "http://loinc.org",
                      "display": "Hematology studies (set)"
                    }
                  ],
                  "text": "Hematology"
                },
                "entry": [
                  {
                    "reference": "urn:uuid:21254988-28ac-4ae4-a266-0afe97f11439"
                  },
                  {
                    "reference": "urn:uuid:fd1044b0-a7fa-498c-8bf3-b7cf041744da"
                  },
                  {
                    "reference": "urn:uuid:48ee8142-3f93-4104-8ba0-2c605bf4c621"
                  },
                  {
                    "reference": "urn:uuid:32ddb6a4-4cf8-4cec-b2d9-9696a63ae49a"
                  },
                  {
                    "reference": "urn:uuid:ac0d60fd-d5da-4ce7-a520-c004254d014a"
                  },
                  {
                    "reference": "urn:uuid:bdab6778-3ceb-4d35-979b-ffa12f106c0f"
                  },
                  {
                    "reference": "urn:uuid:27cdd746-1039-442f-adc3-eff501109f6f"
                  },
                  {
                    "reference": "urn:uuid:6de0e330-fcb6-4ad1-9e2e-5aec9d301e0d"
                  },
                  {
                    "reference": "urn:uuid:77c1e115-c6ce-43bb-ba1b-dd7a064adb39"
                  },
                  {
                    "reference": "urn:uuid:164e4874-28e1-4949-a88e-21e2d26f5be6"
                  },
                  {
                    "reference": "urn:uuid:0215aee2-035f-47c5-91aa-f4c6167cae70"
                  }
                ],
                "text": {
                  "status": "generated",
                  "div": "<div xmlns=\"http://www.w3.org/1999/xhtml\"><h3>Hematology</h3><table class=\"hl7__eu__lab__report\"><thead><tr><th>Test</th><th>10-NOV-2023</th><th>Reference&#xA0;Range</th><th>Unit</th></tr></thead><tbody><tr><td>Leukocytes [#/volume] in Blood by Automated count</td><td>6.5</td><td>3.5 - 10.5</td><td>10*3/uL</td></tr><tr><td>Erythrocytes [#/volume] in Blood by Automated count</td><td>4.6</td><td>4.5 - 5.7</td><td>10*6/uL</td></tr><tr><td>Hemoglobin [Mass/volume] in Blood</td><td><strong>12.4 L</strong></td><td>14 - 18</td><td>g/dL</td></tr><tr><td>Hematocrit [Volume Fraction] of Blood by Automated count</td><td>48.3</td><td>38 - 50</td><td>%</td></tr><tr><td>MCV [Entitic volume] by Automated count</td><td>91.0</td><td>82 - 98</td><td>fL</td></tr><tr><td>MCH [Entitic mass] by Automated count</td><td>29.4</td><td>27 - 33</td><td>pg</td></tr><tr><td>MCHC [Mass/volume] by Automated count</td><td>34.2</td><td>31 - 36</td><td>g/dL</td></tr><tr><td>Erythrocyte distribution width [Entitic volume] by Automated count</td><td>42.2</td><td>39 - 55</td><td>fL</td></tr><tr><td>Platelets [#/volume] in Blood by Automated count</td><td><strong>448.1 H</strong></td><td>150 - 350</td><td>10*3/uL</td></tr><tr><td>Platelet distribution width [Entitic volume] in Blood by Automated count</td><td>303.8</td><td>144 - 366</td><td>fL</td></tr><tr><td>Platelet mean volume [Entitic volume] in Blood by Automated count</td><td>11.3</td><td>9.8 - 13.8</td><td>fL</td></tr></tbody></table></div>"
                },
                "title": "Hematology"
              }
            ],
            "title": "Laboratory Report"
          },
          {
            "text": {
              "status": "generated",
              "div": "<div xmlns=\"http://www.w3.org/1999/xhtml\"><h3>Annotation</h3><table class=\"hl7__eu__lab__report\"><tr><th>Conclusion and Recommendations based on this report and previous findings known to us</th></tr><tr><td>The patient shows mild anemia (low hemoglobin) with normal red cell indices, suggesting normocytic, normochromic anemia. Platelet count is elevated (thrombocytosis), which may be reactive (e.g., inflammation, iron deficiency) or primary. Leukocyte count is normal. Further clinical correlation and additional tests (e.g., iron studies, inflammatory markers) are recommended to clarify the cause.</td></tr></table></div>"
            },
            "code": {
              "coding": [
                {
                  "system": "http://loinc.org",
                  "code": "48767-8",
                  "display": "Annotation comment"
                }
              ]
            },
            "title": "Annotation comment"
          }
        ],
        "status": "final",
        "subject": {
          "reference": "urn:uuid:cf0c44d3-f3a7-43c1-a15a-2953d47ff5d2",
          "display": "Elias Höfig"
        },
        "date": "2023-11-10T10:47:46Z",
        "title": "Laboratory Report",
        "confidentiality": "N"
      }
    },
    {
      "fullUrl": "urn:uuid:2d1a0a29-b904-46b9-bafe-6cd6a790c368",
      "resource": {
        "resourceType": "DiagnosticReport",
        "id": "2d1a0a29-b904-46b9-bafe-6cd6a790c368",
        "meta": {
          "profile": [
            "http://hl7.eu/fhir/laboratory/StructureDefinition/DiagnosticReport-eu-lab"
          ]
        },
        "identifier": [
          {
            "assigner": {
              "display": "HL7 Europe"
            },
            "system": "urn:oid:2.16.840.1.113883.2.51.999",
            "value": "a5bea4e7-84d2-4bf6-a4d3-ed40b2caef1c"
          }
        ],
        "extension": [
          {
            "url": "http://hl7.org/fhir/5.0/StructureDefinition/extension-DiagnosticReport.composition",
            "valueReference": {
              "reference": "urn:uuid:2648ad64-30e6-4452-a516-8db2b02ce4bd"
            }
          }
        ],
        "category": [
          {
            "coding": [
              {
                "code": "26436-6",
                "system": "http://loinc.org",
                "display": "Laboratory studies (set)"
              }
            ]
          }
        ],
        "specimen": [
          {
            "reference": "urn:uuid:d3545efa-33c0-47d7-bfef-fcf991aa4188"
          },
          {
            "reference": "urn:uuid:d3545efa-33c0-47d7-bfef-fcf991aa4188"
          }
        ],
        "result": [
          {
            "reference": "urn:uuid:21254988-28ac-4ae4-a266-0afe97f11439"
          },
          {
            "reference": "urn:uuid:fd1044b0-a7fa-498c-8bf3-b7cf041744da"
          },
          {
            "reference": "urn:uuid:48ee8142-3f93-4104-8ba0-2c605bf4c621"
          },
          {
            "reference": "urn:uuid:32ddb6a4-4cf8-4cec-b2d9-9696a63ae49a"
          },
          {
            "reference": "urn:uuid:ac0d60fd-d5da-4ce7-a520-c004254d014a"
          },
          {
            "reference": "urn:uuid:bdab6778-3ceb-4d35-979b-ffa12f106c0f"
          },
          {
            "reference": "urn:uuid:27cdd746-1039-442f-adc3-eff501109f6f"
          },
          {
            "reference": "urn:uuid:6de0e330-fcb6-4ad1-9e2e-5aec9d301e0d"
          },
          {
            "reference": "urn:uuid:77c1e115-c6ce-43bb-ba1b-dd7a064adb39"
          },
          {
            "reference": "urn:uuid:164e4874-28e1-4949-a88e-21e2d26f5be6"
          },
          {
            "reference": "urn:uuid:0215aee2-035f-47c5-91aa-f4c6167cae70"
          }
        ],
        "status": "registered",
        "code": {
          "coding": [
            {
              "code": "11502-2",
              "system": "http://loinc.org",
              "display": "Laboratory report"
            }
          ]
        },
        "subject": {
          "reference": "urn:uuid:cf0c44d3-f3a7-43c1-a15a-2953d47ff5d2",
          "display": "Elias Höfig"
        }
      }
    },
    {
      "fullUrl": "urn:uuid:cf0c44d3-f3a7-43c1-a15a-2953d47ff5d2",
      "resource": {
        "resourceType": "Patient",
        "id": "cf0c44d3-f3a7-43c1-a15a-2953d47ff5d2",
        "meta": {
          "security": [
            {
              "system": "http://terminology.hl7.org/CodeSystem/v3-ActReason",
              "code": "HTEST"
            },
            {
              "system": "http://terminology.hl7.org/CodeSystem/v3-ActReason",
              "code": "TRAIN"
            }
          ],
          "tag": [
            {
              "system": "https://synderai.net/fhir/CodeSystem/tags",
              "code": "synthetic",
              "display": "SYNDERAI Synthetic data"
            }
          ],
          "profile": [
            "http://hl7.eu/fhir/base/StructureDefinition/patient-eu-core"
          ]
        },
        "identifier": [
          {
            "type": {
              "coding": [
                {
                  "code": "PT",
                  "system": "http://terminology.hl7.org/CodeSystem/v2-0203"
                }
              ]
            },
            "system": "http://ec.europa.eu/identifier/eci",
            "value": "7833-401919-3"
          },
          {
            "type": {
              "coding": [
                {
                  "code": "MR",
                  "system": "http://terminology.hl7.org/CodeSystem/v2-0203"
                }
              ]
            },
            "system": "http://local.setting.eu/identifier",
            "value": "55b3d71c-a283-2178-4db6-d251ed0e1404"
          }
        ],
        "name": [
          {
            "family": "Höfig"
          },
          {
            "given": [
              "Elias"
            ]
          },
          {
            "text": "Elias Höfig"
          }
        ],
        "address": [
          {
            "line": [
              "Pauline-Schwital-Allee 6-2"
            ],
            "use": "home",
            "type": "physical",
            "postalCode": "39326",
            "city": "Wolmirstedt",
            "country": "Germany"
          }
        ],
        "telecom": [
          {
            "system": "phone",
            "value": "+49 (0) 4602 154908"
          }
        ],
        "extension": [
          {
            "url": "http://hl7.org/fhir/StructureDefinition/patient-nationality",
            "valueCodeableConcept": {
              "coding": [
                {
                  "code": "DE",
                  "system": "http://hl7.org/fhir/ValueSet/country"
                }
              ]
            }
          }
        ],
        "text": {
          "status": "generated",
          "div": "<div xmlns=\"http://www.w3.org/1999/xhtml\"><table class=\"hl7__ips\"><tr><td>Elias Höfig</td><td>male</td><td>19-May-1974</td></tr></table></div>"
        },
        "gender": "male",
        "birthDate": "1974-05-19"
      }
    },
    {
      "fullUrl": "urn:uuid:f3de1e97-0ac0-4e59-a6fd-48902a5388c9",
      "resource": {
        "resourceType": "ServiceRequest",
        "id": "f3de1e97-0ac0-4e59-a6fd-48902a5388c9",
        "meta": {
          "profile": [
            "http://hl7.eu/fhir/laboratory/StructureDefinition/ServiceRequest-eu-lab"
          ]
        },
        "identifier": [
          {
            "system": "http://example.org",
            "value": "958d1454-05cd-4dfb-9a2c-f1a66a26c02c"
          }
        ],
        "specimen": [
          {
            "reference": "urn:uuid:d3545efa-33c0-47d7-bfef-fcf991aa4188"
          }
        ],
        "status": "active",
        "intent": "order",
        "code": {
          "coding": [
            {
              "code": "108252007",
              "system": "http://snomed.info/sct",
              "display": "Laboratory procedure"
            }
          ]
        },
        "subject": {
          "reference": "urn:uuid:cf0c44d3-f3a7-43c1-a15a-2953d47ff5d2",
          "display": "Elias Höfig"
        },
        "requester": {
          "reference": "urn:uuid:91075652-c887-4daa-8722-1e4d39bd9f7a"
        }
      }
    },
    {
      "fullUrl": "urn:uuid:91075652-c887-4daa-8722-1e4d39bd9f7a",
      "resource": {
        "resourceType": "PractitionerRole",
        "id": "91075652-c887-4daa-8722-1e4d39bd9f7a",
        "meta": {
          "profile": [
            "http://hl7.eu/fhir/base/StructureDefinition/practitionerRole-eu"
          ]
        },
        "text": {
          "status": "generated",
          "div": "<div xmlns=\"http://www.w3.org/1999/xhtml\">Provider Role Id: 91075652-c887-4daa-8722-1e4d39bd9f7a</div>"
        },
        "organization": {
          "reference": "urn:uuid:a5f333ed-8659-4307-a7bb-c054417fbd52"
        }
      }
    },
    {
      "fullUrl": "urn:uuid:a5f333ed-8659-4307-a7bb-c054417fbd52",
      "resource": {
        "resourceType": "Organization",
        "id": "a5f333ed-8659-4307-a7bb-c054417fbd52",
        "meta": {
          "profile": [
            "http://hl7.eu/fhir/base/StructureDefinition/organization-eu"
          ]
        },
        "identifier": [
          {
            "assigner": {
              "display": "HL7 Europe"
            },
            "system": "urn:oid:2.16.840.1.113883.2.51.999",
            "value": "f2011352-38d3-413c-a4b6-fa794b001721"
          }
        ],
        "address": [
          {
            "line": [
              "Birkenallee 34"
            ],
            "city": "Magdeburg",
            "postalCode": "39130",
            "country": "Germany"
          }
        ],
        "text": {
          "status": "generated",
          "div": "<div xmlns=\"http://www.w3.org/1999/xhtml\">Provider Organization: Klinikum Magdeburg</div>"
        },
        "name": "Klinikum Magdeburg"
      }
    },
    {
      "fullUrl": "urn:uuid:d3545efa-33c0-47d7-bfef-fcf991aa4188",
      "resource": {
        "resourceType": "Specimen",
        "id": "d3545efa-33c0-47d7-bfef-fcf991aa4188",
        "meta": {
          "profile": [
            "http://hl7.eu/fhir/laboratory/StructureDefinition/Specimen-eu-lab"
          ]
        },
        "collection": {
          "collectedDateTime": "2023-11-10"
        },
        "text": {
          "status": "generated",
          "div": "<div xmlns=\"http://www.w3.org/1999/xhtml\"><table class=\"hl7__eu__lab__report\"><tr><th>Specimen</th><th>Collection Date</th></tr><tr><td>Whole blood specimen (specimen)</td><td><span class=\"nb\">10-Nov-2023</span></td></tr></table></div>"
        },
        "type": {
          "coding": [
            {
              "code": "258580003",
              "system": "http://snomed.info/sct",
              "display": "Whole blood specimen (specimen)"
            }
          ]
        }
      }
    },
    {
      "fullUrl": "urn:uuid:d3545efa-33c0-47d7-bfef-fcf991aa4188",
      "resource": {
        "resourceType": "Specimen",
        "id": "d3545efa-33c0-47d7-bfef-fcf991aa4188",
        "meta": {
          "profile": [
            "http://hl7.eu/fhir/laboratory/StructureDefinition/Specimen-eu-lab"
          ]
        },
        "collection": {
          "collectedDateTime": "2023-11-10"
        },
        "text": {
          "status": "generated",
          "div": "<div xmlns=\"http://www.w3.org/1999/xhtml\"><table class=\"hl7__eu__lab__report\"><tr><th>Specimen</th><th>Collection Date</th></tr><tr><td>Whole blood specimen (specimen)</td><td><span class=\"nb\">10-Nov-2023</span></td></tr></table></div>"
        },
        "type": {
          "coding": [
            {
              "code": "258580003",
              "system": "http://snomed.info/sct",
              "display": "Whole blood specimen (specimen)"
            }
          ]
        }
      }
    },
    {
      "fullUrl": "urn:uuid:21254988-28ac-4ae4-a266-0afe97f11439",
      "resource": {
        "resourceType": "Observation",
        "id": "21254988-28ac-4ae4-a266-0afe97f11439",
        "meta": {
          "profile": [
            "http://hl7.eu/fhir/laboratory/StructureDefinition/Observation-resultslab-eu-lab"
          ]
        },
        "performer": [
          {
            "display": "The Central European Lab"
          }
        ],
        "category": [
          {
            "coding": [
              {
                "system": "http://terminology.hl7.org/CodeSystem/observation-category",
                "code": "laboratory"
              }
            ]
          }
        ],
        "code": {
          "coding": [
            {
              "code": "6690-2",
              "system": "http://loinc.org",
              "display": "Leukocytes [#/volume] in Blood by Automated count"
            }
          ],
          "text": "Leukocytes [#/volume] in Blood by Automated count"
        },
        "valueQuantity": {
          "system": "http://unitsofmeasure.org",
          "value": 6.5,
          "unit": "10*3/uL",
          "code": "10*3/uL"
        },
        "referenceRange": [
          {
            "low": {
              "value": 3.5,
              "code": "10*3/uL",
              "system": "http://unitsofmeasure.org"
            }
          },
          {
            "high": {
              "value": 10.5,
              "code": "10*3/uL",
              "system": "http://unitsofmeasure.org"
            }
          }
        ],
        "text": {
          "status": "generated",
          "div": "<div xmlns=\"http://www.w3.org/1999/xhtml\"><table class=\"hl7__eu__lab__report\"><tr><th>Test</th><th>10-Nov-2023</th><th>Reference&#xA0;Range</th><th>Unit</th></tr><tr><td>Leukocytes [#/volume] in Blood by Automated count</td><td>6.5</td><td>3.5 - 10.5</td><td></td><td>10*3/uL</td></tr></table></div>"
        },
        "status": "final",
        "subject": {
          "reference": "urn:uuid:cf0c44d3-f3a7-43c1-a15a-2953d47ff5d2",
          "display": "Elias Höfig"
        },
        "effectiveDateTime": "2023-11-10T09:47:46Z",
        "specimen": {
          "reference": "urn:uuid:d3545efa-33c0-47d7-bfef-fcf991aa4188"
        }
      }
    },
    {
      "fullUrl": "urn:uuid:fd1044b0-a7fa-498c-8bf3-b7cf041744da",
      "resource": {
        "resourceType": "Observation",
        "id": "fd1044b0-a7fa-498c-8bf3-b7cf041744da",
        "meta": {
          "profile": [
            "http://hl7.eu/fhir/laboratory/StructureDefinition/Observation-resultslab-eu-lab"
          ]
        },
        "performer": [
          {
            "display": "The Central European Lab"
          }
        ],
        "category": [
          {
            "coding": [
              {
                "system": "http://terminology.hl7.org/CodeSystem/observation-category",
                "code": "laboratory"
              }
            ]
          }
        ],
        "code": {
          "coding": [
            {
              "code": "789-8",
              "system": "http://loinc.org",
              "display": "Erythrocytes [#/volume] in Blood by Automated count"
            }
          ],
          "text": "Erythrocytes [#/volume] in Blood by Automated count"
        },
        "valueQuantity": {
          "system": "http://unitsofmeasure.org",
          "value": 4.6,
          "unit": "10*6/uL",
          "code": "10*6/uL"
        },
        "referenceRange": [
          {
            "low": {
              "value": 4.5,
              "code": "10*6/uL",
              "system": "http://unitsofmeasure.org"
            }
          },
          {
            "high": {
              "value": 5.7,
              "code": "10*6/uL",
              "system": "http://unitsofmeasure.org"
            }
          }
        ],
        "text": {
          "status": "generated",
          "div": "<div xmlns=\"http://www.w3.org/1999/xhtml\"><table class=\"hl7__eu__lab__report\"><tr><th>Test</th><th>10-Nov-2023</th><th>Reference&#xA0;Range</th><th>Unit</th></tr><tr><td>Erythrocytes [#/volume] in Blood by Automated count</td><td>4.6</td><td>4.5 - 5.7</td><td></td><td>10*6/uL</td></tr></table></div>"
        },
        "status": "final",
        "subject": {
          "reference": "urn:uuid:cf0c44d3-f3a7-43c1-a15a-2953d47ff5d2",
          "display": "Elias Höfig"
        },
        "effectiveDateTime": "2023-11-10T09:47:46Z",
        "specimen": {
          "reference": "urn:uuid:d3545efa-33c0-47d7-bfef-fcf991aa4188"
        }
      }
    },
    {
      "fullUrl": "urn:uuid:48ee8142-3f93-4104-8ba0-2c605bf4c621",
      "resource": {
        "resourceType": "Observation",
        "id": "48ee8142-3f93-4104-8ba0-2c605bf4c621",
        "meta": {
          "profile": [
            "http://hl7.eu/fhir/laboratory/StructureDefinition/Observation-resultslab-eu-lab"
          ]
        },
        "performer": [
          {
            "display": "The Central European Lab"
          }
        ],
        "category": [
          {
            "coding": [
              {
                "system": "http://terminology.hl7.org/CodeSystem/observation-category",
                "code": "laboratory"
              }
            ]
          }
        ],
        "code": {
          "coding": [
            {
              "code": "718-7",
              "system": "http://loinc.org",
              "display": "Hemoglobin [Mass/volume] in Blood"
            }
          ],
          "text": "Hemoglobin [Mass/volume] in Blood"
        },
        "valueQuantity": {
          "system": "http://unitsofmeasure.org",
          "value": 12.4,
          "unit": "g/dL",
          "code": "g/dL"
        },
        "referenceRange": [
          {
            "low": {
              "value": 14,
              "code": "g/dL",
              "system": "http://unitsofmeasure.org"
            }
          },
          {
            "high": {
              "value": 18,
              "code": "g/dL",
              "system": "http://unitsofmeasure.org"
            }
          }
        ],
        "interpretation": [
          {
            "coding": [
              {
                "code": "L",
                "system": "http://terminology.hl7.org/CodeSystem/v3-ObservationInterpretation",
                "display": "Low"
              }
            ]
          }
        ],
        "text": {
          "status": "generated",
          "div": "<div xmlns=\"http://www.w3.org/1999/xhtml\"><table class=\"hl7__eu__lab__report\"><tr><th>Test</th><th>10-Nov-2023</th><th>Reference&#xA0;Range</th><th>Unit</th></tr><tr><td>Hemoglobin [Mass/volume] in Blood</td><td>12.4</td><td>14 - 18</td><td>L</td><td>g/dL</td></tr></table></div>"
        },
        "status": "final",
        "subject": {
          "reference": "urn:uuid:cf0c44d3-f3a7-43c1-a15a-2953d47ff5d2",
          "display": "Elias Höfig"
        },
        "effectiveDateTime": "2023-11-10T09:47:46Z",
        "specimen": {
          "reference": "urn:uuid:d3545efa-33c0-47d7-bfef-fcf991aa4188"
        }
      }
    },
    {
      "fullUrl": "urn:uuid:32ddb6a4-4cf8-4cec-b2d9-9696a63ae49a",
      "resource": {
        "resourceType": "Observation",
        "id": "32ddb6a4-4cf8-4cec-b2d9-9696a63ae49a",
        "meta": {
          "profile": [
            "http://hl7.eu/fhir/laboratory/StructureDefinition/Observation-resultslab-eu-lab"
          ]
        },
        "performer": [
          {
            "display": "The Central European Lab"
          }
        ],
        "category": [
          {
            "coding": [
              {
                "system": "http://terminology.hl7.org/CodeSystem/observation-category",
                "code": "laboratory"
              }
            ]
          }
        ],
        "code": {
          "coding": [
            {
              "code": "4544-3",
              "system": "http://loinc.org",
              "display": "Hematocrit [Volume Fraction] of Blood by Automated count"
            }
          ],
          "text": "Hematocrit [Volume Fraction] of Blood by Automated count"
        },
        "valueQuantity": {
          "system": "http://unitsofmeasure.org",
          "value": 48.3,
          "unit": "%",
          "code": "%"
        },
        "referenceRange": [
          {
            "low": {
              "value": 38,
              "code": "%",
              "system": "http://unitsofmeasure.org"
            }
          },
          {
            "high": {
              "value": 50,
              "code": "%",
              "system": "http://unitsofmeasure.org"
            }
          }
        ],
        "text": {
          "status": "generated",
          "div": "<div xmlns=\"http://www.w3.org/1999/xhtml\"><table class=\"hl7__eu__lab__report\"><tr><th>Test</th><th>10-Nov-2023</th><th>Reference&#xA0;Range</th><th>Unit</th></tr><tr><td>Hematocrit [Volume Fraction] of Blood by Automated count</td><td>48.3</td><td>38 - 50</td><td></td><td>%</td></tr></table></div>"
        },
        "status": "final",
        "subject": {
          "reference": "urn:uuid:cf0c44d3-f3a7-43c1-a15a-2953d47ff5d2",
          "display": "Elias Höfig"
        },
        "effectiveDateTime": "2023-11-10T09:47:46Z",
        "specimen": {
          "reference": "urn:uuid:d3545efa-33c0-47d7-bfef-fcf991aa4188"
        }
      }
    },
    {
      "fullUrl": "urn:uuid:ac0d60fd-d5da-4ce7-a520-c004254d014a",
      "resource": {
        "resourceType": "Observation",
        "id": "ac0d60fd-d5da-4ce7-a520-c004254d014a",
        "meta": {
          "profile": [
            "http://hl7.eu/fhir/laboratory/StructureDefinition/Observation-resultslab-eu-lab"
          ]
        },
        "performer": [
          {
            "display": "The Central European Lab"
          }
        ],
        "category": [
          {
            "coding": [
              {
                "system": "http://terminology.hl7.org/CodeSystem/observation-category",
                "code": "laboratory"
              }
            ]
          }
        ],
        "code": {
          "coding": [
            {
              "code": "787-2",
              "system": "http://loinc.org",
              "display": "MCV [Entitic volume] by Automated count"
            }
          ],
          "text": "MCV [Entitic volume] by Automated count"
        },
        "valueQuantity": {
          "system": "http://unitsofmeasure.org",
          "value": 91,
          "unit": "fL",
          "code": "fL"
        },
        "referenceRange": [
          {
            "low": {
              "value": 82,
              "code": "fL",
              "system": "http://unitsofmeasure.org"
            }
          },
          {
            "high": {
              "value": 98,
              "code": "fL",
              "system": "http://unitsofmeasure.org"
            }
          }
        ],
        "text": {
          "status": "generated",
          "div": "<div xmlns=\"http://www.w3.org/1999/xhtml\"><table class=\"hl7__eu__lab__report\"><tr><th>Test</th><th>10-Nov-2023</th><th>Reference&#xA0;Range</th><th>Unit</th></tr><tr><td>MCV [Entitic volume] by Automated count</td><td>91.0</td><td>82 - 98</td><td></td><td>fL</td></tr></table></div>"
        },
        "status": "final",
        "subject": {
          "reference": "urn:uuid:cf0c44d3-f3a7-43c1-a15a-2953d47ff5d2",
          "display": "Elias Höfig"
        },
        "effectiveDateTime": "2023-11-10T09:47:46Z",
        "specimen": {
          "reference": "urn:uuid:d3545efa-33c0-47d7-bfef-fcf991aa4188"
        }
      }
    },
    {
      "fullUrl": "urn:uuid:bdab6778-3ceb-4d35-979b-ffa12f106c0f",
      "resource": {
        "resourceType": "Observation",
        "id": "bdab6778-3ceb-4d35-979b-ffa12f106c0f",
        "meta": {
          "profile": [
            "http://hl7.eu/fhir/laboratory/StructureDefinition/Observation-resultslab-eu-lab"
          ]
        },
        "performer": [
          {
            "display": "The Central European Lab"
          }
        ],
        "category": [
          {
            "coding": [
              {
                "system": "http://terminology.hl7.org/CodeSystem/observation-category",
                "code": "laboratory"
              }
            ]
          }
        ],
        "code": {
          "coding": [
            {
              "code": "785-6",
              "system": "http://loinc.org",
              "display": "MCH [Entitic mass] by Automated count"
            }
          ],
          "text": "MCH [Entitic mass] by Automated count"
        },
        "valueQuantity": {
          "system": "http://unitsofmeasure.org",
          "value": 29.4,
          "unit": "pg",
          "code": "pg"
        },
        "referenceRange": [
          {
            "low": {
              "value": 27,
              "code": "pg",
              "system": "http://unitsofmeasure.org"
            }
          },
          {
            "high": {
              "value": 33,
              "code": "pg",
              "system": "http://unitsofmeasure.org"
            }
          }
        ],
        "text": {
          "status": "generated",
          "div": "<div xmlns=\"http://www.w3.org/1999/xhtml\"><table class=\"hl7__eu__lab__report\"><tr><th>Test</th><th>10-Nov-2023</th><th>Reference&#xA0;Range</th><th>Unit</th></tr><tr><td>MCH [Entitic mass] by Automated count</td><td>29.4</td><td>27 - 33</td><td></td><td>pg</td></tr></table></div>"
        },
        "status": "final",
        "subject": {
          "reference": "urn:uuid:cf0c44d3-f3a7-43c1-a15a-2953d47ff5d2",
          "display": "Elias Höfig"
        },
        "effectiveDateTime": "2023-11-10T09:47:46Z",
        "specimen": {
          "reference": "urn:uuid:d3545efa-33c0-47d7-bfef-fcf991aa4188"
        }
      }
    },
    {
      "fullUrl": "urn:uuid:27cdd746-1039-442f-adc3-eff501109f6f",
      "resource": {
        "resourceType": "Observation",
        "id": "27cdd746-1039-442f-adc3-eff501109f6f",
        "meta": {
          "profile": [
            "http://hl7.eu/fhir/laboratory/StructureDefinition/Observation-resultslab-eu-lab"
          ]
        },
        "performer": [
          {
            "display": "The Central European Lab"
          }
        ],
        "category": [
          {
            "coding": [
              {
                "system": "http://terminology.hl7.org/CodeSystem/observation-category",
                "code": "laboratory"
              }
            ]
          }
        ],
        "code": {
          "coding": [
            {
              "code": "786-4",
              "system": "http://loinc.org",
              "display": "MCHC [Mass/volume] by Automated count"
            }
          ],
          "text": "MCHC [Mass/volume] by Automated count"
        },
        "valueQuantity": {
          "system": "http://unitsofmeasure.org",
          "value": 34.2,
          "unit": "g/dL",
          "code": "g/dL"
        },
        "referenceRange": [
          {
            "low": {
              "value": 31,
              "code": "g/dL",
              "system": "http://unitsofmeasure.org"
            }
          },
          {
            "high": {
              "value": 36,
              "code": "g/dL",
              "system": "http://unitsofmeasure.org"
            }
          }
        ],
        "text": {
          "status": "generated",
          "div": "<div xmlns=\"http://www.w3.org/1999/xhtml\"><table class=\"hl7__eu__lab__report\"><tr><th>Test</th><th>10-Nov-2023</th><th>Reference&#xA0;Range</th><th>Unit</th></tr><tr><td>MCHC [Mass/volume] by Automated count</td><td>34.2</td><td>31 - 36</td><td></td><td>g/dL</td></tr></table></div>"
        },
        "status": "final",
        "subject": {
          "reference": "urn:uuid:cf0c44d3-f3a7-43c1-a15a-2953d47ff5d2",
          "display": "Elias Höfig"
        },
        "effectiveDateTime": "2023-11-10T09:47:46Z",
        "specimen": {
          "reference": "urn:uuid:d3545efa-33c0-47d7-bfef-fcf991aa4188"
        }
      }
    },
    {
      "fullUrl": "urn:uuid:6de0e330-fcb6-4ad1-9e2e-5aec9d301e0d",
      "resource": {
        "resourceType": "Observation",
        "id": "6de0e330-fcb6-4ad1-9e2e-5aec9d301e0d",
        "meta": {
          "profile": [
            "http://hl7.eu/fhir/laboratory/StructureDefinition/Observation-resultslab-eu-lab"
          ]
        },
        "performer": [
          {
            "display": "The Central European Lab"
          }
        ],
        "category": [
          {
            "coding": [
              {
                "system": "http://terminology.hl7.org/CodeSystem/observation-category",
                "code": "laboratory"
              }
            ]
          }
        ],
        "code": {
          "coding": [
            {
              "code": "21000-5",
              "system": "http://loinc.org",
              "display": "Erythrocyte distribution width [Entitic volume] by Automated count"
            }
          ],
          "text": "Erythrocyte distribution width [Entitic volume] by Automated count"
        },
        "valueQuantity": {
          "system": "http://unitsofmeasure.org",
          "value": 42.2,
          "unit": "fL",
          "code": "fL"
        },
        "referenceRange": [
          {
            "low": {
              "value": 39,
              "code": "fL",
              "system": "http://unitsofmeasure.org"
            }
          },
          {
            "high": {
              "value": 55,
              "code": "fL",
              "system": "http://unitsofmeasure.org"
            }
          }
        ],
        "text": {
          "status": "generated",
          "div": "<div xmlns=\"http://www.w3.org/1999/xhtml\"><table class=\"hl7__eu__lab__report\"><tr><th>Test</th><th>10-Nov-2023</th><th>Reference&#xA0;Range</th><th>Unit</th></tr><tr><td>Erythrocyte distribution width [Entitic volume] by Automated count</td><td>42.2</td><td>39 - 55</td><td></td><td>fL</td></tr></table></div>"
        },
        "status": "final",
        "subject": {
          "reference": "urn:uuid:cf0c44d3-f3a7-43c1-a15a-2953d47ff5d2",
          "display": "Elias Höfig"
        },
        "effectiveDateTime": "2023-11-10T09:47:46Z",
        "specimen": {
          "reference": "urn:uuid:d3545efa-33c0-47d7-bfef-fcf991aa4188"
        }
      }
    },
    {
      "fullUrl": "urn:uuid:77c1e115-c6ce-43bb-ba1b-dd7a064adb39",
      "resource": {
        "resourceType": "Observation",
        "id": "77c1e115-c6ce-43bb-ba1b-dd7a064adb39",
        "meta": {
          "profile": [
            "http://hl7.eu/fhir/laboratory/StructureDefinition/Observation-resultslab-eu-lab"
          ]
        },
        "performer": [
          {
            "display": "The Central European Lab"
          }
        ],
        "category": [
          {
            "coding": [
              {
                "system": "http://terminology.hl7.org/CodeSystem/observation-category",
                "code": "laboratory"
              }
            ]
          }
        ],
        "code": {
          "coding": [
            {
              "code": "777-3",
              "system": "http://loinc.org",
              "display": "Platelets [#/volume] in Blood by Automated count"
            }
          ],
          "text": "Platelets [#/volume] in Blood by Automated count"
        },
        "valueQuantity": {
          "system": "http://unitsofmeasure.org",
          "value": 448.1,
          "unit": "10*3/uL",
          "code": "10*3/uL"
        },
        "referenceRange": [
          {
            "low": {
              "value": 150,
              "code": "10*3/uL",
              "system": "http://unitsofmeasure.org"
            }
          },
          {
            "high": {
              "value": 350,
              "code": "10*3/uL",
              "system": "http://unitsofmeasure.org"
            }
          }
        ],
        "interpretation": [
          {
            "coding": [
              {
                "code": "H",
                "system": "http://terminology.hl7.org/CodeSystem/v3-ObservationInterpretation",
                "display": "High"
              }
            ]
          }
        ],
        "text": {
          "status": "generated",
          "div": "<div xmlns=\"http://www.w3.org/1999/xhtml\"><table class=\"hl7__eu__lab__report\"><tr><th>Test</th><th>10-Nov-2023</th><th>Reference&#xA0;Range</th><th>Unit</th></tr><tr><td>Platelets [#/volume] in Blood by Automated count</td><td>448.1</td><td>150 - 350</td><td>H</td><td>10*3/uL</td></tr></table></div>"
        },
        "status": "final",
        "subject": {
          "reference": "urn:uuid:cf0c44d3-f3a7-43c1-a15a-2953d47ff5d2",
          "display": "Elias Höfig"
        },
        "effectiveDateTime": "2023-11-10T09:47:46Z",
        "specimen": {
          "reference": "urn:uuid:d3545efa-33c0-47d7-bfef-fcf991aa4188"
        }
      }
    },
    {
      "fullUrl": "urn:uuid:164e4874-28e1-4949-a88e-21e2d26f5be6",
      "resource": {
        "resourceType": "Observation",
        "id": "164e4874-28e1-4949-a88e-21e2d26f5be6",
        "meta": {
          "profile": [
            "http://hl7.eu/fhir/laboratory/StructureDefinition/Observation-resultslab-eu-lab"
          ]
        },
        "performer": [
          {
            "display": "The Central European Lab"
          }
        ],
        "category": [
          {
            "coding": [
              {
                "system": "http://terminology.hl7.org/CodeSystem/observation-category",
                "code": "laboratory"
              }
            ]
          }
        ],
        "code": {
          "coding": [
            {
              "code": "32207-3",
              "system": "http://loinc.org",
              "display": "Platelet distribution width [Entitic volume] in Blood by Automated count"
            }
          ],
          "text": "Platelet distribution width [Entitic volume] in Blood by Automated count"
        },
        "valueQuantity": {
          "system": "http://unitsofmeasure.org",
          "value": 303.8,
          "unit": "fL",
          "code": "fL"
        },
        "referenceRange": [
          {
            "low": {
              "value": 144,
              "code": "fL",
              "system": "http://unitsofmeasure.org"
            }
          },
          {
            "high": {
              "value": 366,
              "code": "fL",
              "system": "http://unitsofmeasure.org"
            }
          }
        ],
        "text": {
          "status": "generated",
          "div": "<div xmlns=\"http://www.w3.org/1999/xhtml\"><table class=\"hl7__eu__lab__report\"><tr><th>Test</th><th>10-Nov-2023</th><th>Reference&#xA0;Range</th><th>Unit</th></tr><tr><td>Platelet distribution width [Entitic volume] in Blood by Automated count</td><td>303.8</td><td>144 - 366</td><td></td><td>fL</td></tr></table></div>"
        },
        "status": "final",
        "subject": {
          "reference": "urn:uuid:cf0c44d3-f3a7-43c1-a15a-2953d47ff5d2",
          "display": "Elias Höfig"
        },
        "effectiveDateTime": "2023-11-10T09:47:46Z",
        "specimen": {
          "reference": "urn:uuid:d3545efa-33c0-47d7-bfef-fcf991aa4188"
        }
      }
    },
    {
      "fullUrl": "urn:uuid:0215aee2-035f-47c5-91aa-f4c6167cae70",
      "resource": {
        "resourceType": "Observation",
        "id": "0215aee2-035f-47c5-91aa-f4c6167cae70",
        "meta": {
          "profile": [
            "http://hl7.eu/fhir/laboratory/StructureDefinition/Observation-resultslab-eu-lab"
          ]
        },
        "performer": [
          {
            "display": "The Central European Lab"
          }
        ],
        "category": [
          {
            "coding": [
              {
                "system": "http://terminology.hl7.org/CodeSystem/observation-category",
                "code": "laboratory"
              }
            ]
          }
        ],
        "code": {
          "coding": [
            {
              "code": "32623-1",
              "system": "http://loinc.org",
              "display": "Platelet mean volume [Entitic volume] in Blood by Automated count"
            }
          ],
          "text": "Platelet mean volume [Entitic volume] in Blood by Automated count"
        },
        "valueQuantity": {
          "system": "http://unitsofmeasure.org",
          "value": 11.3,
          "unit": "fL",
          "code": "fL"
        },
        "referenceRange": [
          {
            "low": {
              "value": 9.8,
              "code": "fL",
              "system": "http://unitsofmeasure.org"
            }
          },
          {
            "high": {
              "value": 13.8,
              "code": "fL",
              "system": "http://unitsofmeasure.org"
            }
          }
        ],
        "text": {
          "status": "generated",
          "div": "<div xmlns=\"http://www.w3.org/1999/xhtml\"><table class=\"hl7__eu__lab__report\"><tr><th>Test</th><th>10-Nov-2023</th><th>Reference&#xA0;Range</th><th>Unit</th></tr><tr><td>Platelet mean volume [Entitic volume] in Blood by Automated count</td><td>11.3</td><td>9.8 - 13.8</td><td></td><td>fL</td></tr></table></div>"
        },
        "status": "final",
        "subject": {
          "reference": "urn:uuid:cf0c44d3-f3a7-43c1-a15a-2953d47ff5d2",
          "display": "Elias Höfig"
        },
        "effectiveDateTime": "2023-11-10T09:47:46Z",
        "specimen": {
          "reference": "urn:uuid:d3545efa-33c0-47d7-bfef-fcf991aa4188"
        }
      }
    },
    {
      "fullUrl": "urn:uuid:fb9494c1-28f9-4e1a-90e7-af855c1aa008",
      "resource": {
        "resourceType": "Device",
        "id": "fb9494c1-28f9-4e1a-90e7-af855c1aa008",
        "deviceName": [
          {
            "name": "SYNDERAI Synthetic Generator",
            "type": "manufacturer-name"
          }
        ],
        "version": [
          {
            "value": "5.0"
          }
        ],
        "text": {
          "status": "generated",
          "div": "<div xmlns=\"http://www.w3.org/1999/xhtml\">SYNDERAI Synthetic Generator v5.0</div>"
        },
        "status": "active\"",
        "distinctIdentifier": "synderai-generator-50",
        "manufacturer": "SYNDERAI Project"
      }
    },
    {
      "fullUrl": "urn:uuid:eef52a95-a1f2-4543-b61e-3e4b4be43039",
      "resource": {
        "resourceType": "Provenance",
        "id": "eef52a95-a1f2-4543-b61e-3e4b4be43039",
        "target": [
          {
            "reference": "Patient/cf0c44d3-f3a7-43c1-a15a-2953d47ff5d2"
          },
          {
            "reference": "Bundle/958a4d1b-24aa-4c3c-bf06-e37725c980d7"
          },
          {
            "reference": "Composition/1fcfd4d7-24aa-4404-b225-43efa4d0d0b5"
          },
          {
            "reference": "PractitionerRole/54e0e940-af70-4832-97f2-56dd20f4ff67"
          },
          {
            "reference": "Practitioner/a52a4702-bcac-43df-9a53-e340b3177be9"
          },
          {
            "reference": "PractitionerRole/91075652-c887-4daa-8722-1e4d39bd9f7a"
          },
          {
            "reference": "Organization/a5f333ed-8659-4307-a7bb-c054417fbd52"
          }
        ],
        "activity": {
          "text": "Synthetic Example Data Generation"
        },
        "policy": [
          "https://synderai.net/synderai-synthetic-data-policy"
        ],
        "agent": [
          {
            "type": {
              "text": "author"
            },
            "who": {
              "reference": "Device/fb9494c1-28f9-4e1a-90e7-af855c1aa008"
            }
          }
        ],
        "reason": [
          {
            "text": "Interoperability Testing and Training (non-clinical use)"
          }
        ],
        "text": {
          "status": "generated",
          "div": "<div xmlns=\"http://www.w3.org/1999/xhtml\">Provenance for SYNDERAI Synthetic Example Data Resource</div>"
        },
        "recorded": "2023-11-10T10:47:46Z"
      }
    },
    {
      "fullUrl": "urn:uuid:54e0e940-af70-4832-97f2-56dd20f4ff67",
      "resource": {
        "resourceType": "PractitionerRole",
        "id": "54e0e940-af70-4832-97f2-56dd20f4ff67",
        "meta": {
          "profile": [
            "http://hl7.eu/fhir/base/StructureDefinition/practitionerRole-eu"
          ]
        },
        "text": {
          "status": "generated",
          "div": "<div xmlns=\"http://www.w3.org/1999/xhtml\">Laboratory Role Id: 54e0e940-af70-4832-97f2-56dd20f4ff67</div>"
        },
        "practitioner": {
          "reference": "urn:uuid:a52a4702-bcac-43df-9a53-e340b3177be9"
        }
      }
    },
    {
      "fullUrl": "urn:uuid:a52a4702-bcac-43df-9a53-e340b3177be9",
      "resource": {
        "resourceType": "Practitioner",
        "id": "a52a4702-bcac-43df-9a53-e340b3177be9",
        "meta": {
          "profile": [
            "http://hl7.eu/fhir/base/StructureDefinition/practitioner-eu"
          ]
        },
        "identifier": [
          {
            "assigner": {
              "display": "HL7 Europe"
            },
            "system": "urn:oid:2.16.840.1.113883.2.51.999",
            "value": "56f12ee1-737f-4610-821e-477b9f032c9d"
          }
        ],
        "name": [
          {
            "prefix": [
              "dr"
            ],
            "given": [
              "Ex"
            ],
            "family": "Ample"
          }
        ],
        "address": [
          {
            "line": [
              "Laboratoire Central Européenne",
              "Boulevard du Jardin Botanique 32"
            ],
            "postalCode": "1000",
            "city": "Brussels",
            "country": "Belgium"
          }
        ],
        "text": {
          "status": "generated",
          "div": "<div xmlns=\"http://www.w3.org/1999/xhtml\">Laboratory: Laboratoire Central Européenne, 1000 Brussels, Belgium</div>"
        }
      }
    }
  ],
  "type": "document",
  "timestamp": "2023-11-10T10:47:46Z"
}
