{
  "resourceType": "Bundle",
  "id": "fa95e319-009f-4923-83d1-6e1e613fcd78",
  "meta": {
    "profile": [
      "http://hl7.eu/fhir/laboratory/StructureDefinition/Bundle-eu-lab"
    ]
  },
  "identifier": {
    "assigner": {
      "display": "HL7 Europe"
    },
    "system": "urn:oid:2.16.840.1.113883.2.51.999",
    "value": "82c5325d-c5dd-433a-beec-ad78bd4f97a0"
  },
  "entry": [
    {
      "fullUrl": "urn:uuid:ed890915-f808-460b-b40f-34325f574bbc",
      "resource": {
        "resourceType": "Composition",
        "id": "ed890915-f808-460b-b40f-34325f574bbc",
        "meta": {
          "profile": [
            "http://hl7.eu/fhir/laboratory/StructureDefinition/Composition-eu-lab"
          ]
        },
        "identifier": {
          "assigner": {
            "display": "HL7 Europe"
          },
          "system": "urn:oid:2.16.840.1.113883.2.51.999",
          "value": "be7d81a3-9d67-4941-9a41-c1eb87c7b6b5"
        },
        "author": [
          {
            "reference": "urn:uuid:a1960478-ff8d-4cab-834e-05f633ce752c"
          }
        ],
        "category": [
          {
            "coding": [
              {
                "code": "26436-6",
                "system": "http://loinc.org",
                "display": "Laboratory studies (set)"
              }
            ]
          }
        ],
        "type": {
          "coding": [
            {
              "code": "11502-2",
              "system": "http://loinc.org",
              "display": "Laboratory report"
            }
          ],
          "text": "Laboratory Report"
        },
        "section": [
          {
            "code": {
              "coding": [
                {
                  "code": "26436-6",
                  "system": "http://loinc.org",
                  "display": "Laboratory studies (set)"
                }
              ],
              "text": "Laboratory studies"
            },
            "section": [
              {
                "code": {
                  "coding": [
                    {
                      "code": "$18719-5",
                      "system": "http://loinc.org",
                      "display": "Chemistry studies (set)"
                    }
                  ],
                  "text": "Chemistry"
                },
                "entry": [
                  {
                    "reference": "urn:uuid:8718e756-ab85-4eef-8467-ea5378d7e1c0"
                  },
                  {
                    "reference": "urn:uuid:9b0cc090-8511-435f-a943-376ab3f827f2"
                  },
                  {
                    "reference": "urn:uuid:b39543ce-b8b0-4595-8e60-4593f971b72e"
                  },
                  {
                    "reference": "urn:uuid:f49aae2b-8bb1-47b9-9a59-9ec2b234bf40"
                  },
                  {
                    "reference": "urn:uuid:884c3f5e-14a0-45cd-9f41-c78d70eb7485"
                  },
                  {
                    "reference": "urn:uuid:76985746-30eb-4452-90bc-a647b52a6545"
                  },
                  {
                    "reference": "urn:uuid:52177a77-fc36-42f1-94d0-8976d686df20"
                  },
                  {
                    "reference": "urn:uuid:fb141913-5adb-499e-9165-75402dc1ea4f"
                  },
                  {
                    "reference": "urn:uuid:697e8513-51f1-46ba-95e7-8f5ad098c5c4"
                  },
                  {
                    "reference": "urn:uuid:e811e078-b1f5-4eef-b907-5abe8cf2ac61"
                  },
                  {
                    "reference": "urn:uuid:dce71e05-5251-47e0-a06f-966abcc857f7"
                  },
                  {
                    "reference": "urn:uuid:5b7bf0a1-efb9-459b-8416-278f05293a1e"
                  },
                  {
                    "reference": "urn:uuid:bf799c48-041f-433d-b7b3-6ab310bcf614"
                  },
                  {
                    "reference": "urn:uuid:18648100-44b6-43d7-93db-c2a7b93da4e0"
                  },
                  {
                    "reference": "urn:uuid:65164150-76cd-440b-8044-9cb1bb80e83c"
                  },
                  {
                    "reference": "urn:uuid:b370f351-97e3-49a4-bd39-1afe778255af"
                  },
                  {
                    "reference": "urn:uuid:cf8a635a-4815-4e0a-82b8-34fd860e044d"
                  },
                  {
                    "reference": "urn:uuid:23f7f657-1d80-4db3-a021-69321130e8b6"
                  }
                ],
                "text": {
                  "status": "generated",
                  "div": "<div xmlns=\"http://www.w3.org/1999/xhtml\"><h3>Chemistry</h3><table class=\"hl7__eu__lab__report\"><thead><tr><th>Test</th><th>18-OCT-2017</th><th>Reference&#xA0;Range</th><th>Unit</th></tr></thead><tbody><tr><td>Glucose [Mass/volume] in Serum or Plasma</td><td><strong>64.5 L</strong></td><td>70 - 140</td><td>mg/dL</td></tr><tr><td>Urea nitrogen [Mass/volume] in Serum or Plasma</td><td>9.7</td><td>7 - 20</td><td>mg/dL</td></tr><tr><td>Creatinine [Mass/volume] in Serum or Plasma</td><td><strong>2.0 H</strong></td><td>0.9 - 1.3</td><td>mg/dL</td></tr><tr><td>Calcium [Mass/volume] in Serum or Plasma</td><td>9.1</td><td>8.5 - 10.5</td><td>mg/dL</td></tr><tr><td>Sodium [Moles/volume] in Serum or Plasma</td><td>142.8</td><td>135 - 145</td><td>mmol/L</td></tr><tr><td>Potassium [Moles/volume] in Serum or Plasma</td><td>4.1</td><td>3.5 - 5</td><td>mmol/L</td></tr><tr><td>Chloride [Moles/volume] in Serum or Plasma</td><td>105.6</td><td>98 - 108</td><td>mmol/L</td></tr><tr><td>Carbon dioxide, total [Moles/volume] in Serum or Plasma</td><td>27.7</td><td>22 - 29</td><td>mmol/L</td></tr><tr><td>Ketones [Presence] in Urine by Test strip</td><td>Urine ketone test = ++</td><td></td><td></td></tr><tr><td>Hemoglobin A1c/Hemoglobin.total in Blood</td><td><strong>2.9 L</strong></td><td>4.3 - 6.4</td><td>%</td></tr><tr><td>Glucose [Mass/volume] in Blood</td><td><strong>64.5 L</strong></td><td>70 - 140</td><td>mg/dL</td></tr><tr><td>Urea nitrogen [Mass/volume] in Blood</td><td>9.7</td><td>7 - 20</td><td>mg/dL</td></tr><tr><td>Creatinine [Mass/volume] in Blood</td><td><strong>6.1 H</strong></td><td>0.6 - 1.3</td><td>mg/dL</td></tr><tr><td>Calcium [Mass/volume] in Blood</td><td>9.1</td><td>8.5 - 10.5</td><td>mg/dL</td></tr><tr><td>Sodium [Moles/volume] in Blood</td><td>142.8</td><td>135 - 145</td><td>mmol/L</td></tr><tr><td>Potassium [Moles/volume] in Blood</td><td>4.1</td><td>3.5 - 5.3</td><td>mmol/L</td></tr><tr><td>Chloride [Moles/volume] in Blood</td><td>105.6</td><td>98 - 110</td><td>mmol/L</td></tr><tr><td>Carbon dioxide, total [Moles/volume] in Blood</td><td>27.7</td><td>22 - 29</td><td>mmol/L</td></tr></tbody></table></div>"
                },
                "title": "Chemistry"
              },
              {
                "code": {
                  "coding": [
                    {
                      "code": "$18729-4",
                      "system": "http://loinc.org",
                      "display": "Urinalysis studies (set)"
                    }
                  ],
                  "text": "Urinalysis"
                },
                "entry": [
                  {
                    "reference": "urn:uuid:e81bfc08-035d-4225-a7d0-01f1ed41b603"
                  },
                  {
                    "reference": "urn:uuid:56ab0475-c1d6-4983-8ade-b9e3d4b3aa9b"
                  },
                  {
                    "reference": "urn:uuid:78128bf4-14fb-4b7c-91bd-7f176b937542"
                  },
                  {
                    "reference": "urn:uuid:7180d321-db08-48d4-a881-29caba38a6c1"
                  },
                  {
                    "reference": "urn:uuid:144011ae-5864-41c1-be29-5338f506dc8c"
                  },
                  {
                    "reference": "urn:uuid:60b2298d-637f-4a80-b076-50ffcb589463"
                  },
                  {
                    "reference": "urn:uuid:0cba99bd-830e-457d-8107-81c5f7246d76"
                  },
                  {
                    "reference": "urn:uuid:515a6513-6cd8-4230-a42b-a26340a89be3"
                  },
                  {
                    "reference": "urn:uuid:47fd2cec-73af-4da5-860b-96c84655a253"
                  },
                  {
                    "reference": "urn:uuid:d7915143-b04e-4c0a-bb89-0478f8800b0f"
                  },
                  {
                    "reference": "urn:uuid:6329c7fb-f27a-4cdc-a215-642b1d4741a6"
                  },
                  {
                    "reference": "urn:uuid:7a7fdca3-79a4-4678-ae3d-4e4898c7982b"
                  }
                ],
                "text": {
                  "status": "generated",
                  "div": "<div xmlns=\"http://www.w3.org/1999/xhtml\"><h3>Urinalysis</h3><table class=\"hl7__eu__lab__report\"><thead><tr><th>Test</th><th>18-OCT-2017</th><th>Reference&#xA0;Range</th><th>Unit</th></tr></thead><tbody><tr><td>Glucose [Mass/volume] in Urine by Test strip</td><td>0.5</td><td>0 - 0.8</td><td>mg/dL</td></tr><tr><td>Glucose [Presence] in Urine by Test strip</td><td>++</td><td></td><td></td></tr><tr><td>Bilirubin.total [Mass/volume] in Urine by Test strip</td><td><strong>1.2 H</strong></td><td>0.2 - 1</td><td>mg/dL</td></tr><tr><td>Bilirubin.total [Presence] in Urine by Test strip</td><td>Finding of bilirubin in urine</td><td></td><td></td></tr><tr><td>Ketones [Mass/volume] in Urine by Test strip</td><td><strong>11.4 H</strong></td><td>0 - 5</td><td>mg/dL</td></tr><tr><td>Specific gravity of Urine by Test strip</td><td><strong>1.0 L</strong></td><td>1.005 - 1.03</td><td>{nominal}</td></tr><tr><td>pH of Urine by Test strip</td><td>6.8</td><td>4.6 - 7</td><td>pH</td></tr><tr><td>Protein [Mass/volume] in Urine by Test strip</td><td><strong>265.7 H</strong></td><td>0 - 150</td><td>mg/dL</td></tr><tr><td>Protein [Presence] in Urine by Test strip</td><td>Urine protein test = ++</td><td></td><td></td></tr><tr><td>Nitrite [Presence] in Urine by Test strip</td><td>Urine nitrite negative</td><td></td><td></td></tr><tr><td>Hemoglobin [Presence] in Urine by Test strip</td><td>Urine blood test = negative</td><td></td><td></td></tr><tr><td>Leukocyte esterase [Presence] in Urine by Test strip</td><td>Urine leukocyte test negative</td><td></td><td></td></tr></tbody></table></div>"
                },
                "title": "Urinalysis"
              },
              {
                "code": {
                  "coding": [
                    {
                      "code": "$LP7846-1",
                      "system": "http://loinc.org",
                      "display": "Specimen information"
                    }
                  ],
                  "text": "Specimen information"
                },
                "entry": [
                  {
                    "reference": "urn:uuid:bdfe79c6-df82-4b0c-99d8-aebf457a1a4c"
                  },
                  {
                    "reference": "urn:uuid:c41dae71-822f-4eec-afa3-7b6dffa317de"
                  },
                  {
                    "reference": "urn:uuid:342c0a8d-4b2e-4c53-a786-0b4f05356f4b"
                  },
                  {
                    "reference": "urn:uuid:bd0db17d-665d-43ba-a2d8-4b4af28b566a"
                  }
                ],
                "text": {
                  "status": "generated",
                  "div": "<div xmlns=\"http://www.w3.org/1999/xhtml\"><h3>Specimen information</h3><table class=\"hl7__eu__lab__report\"><thead><tr><th>Test</th><th>18-OCT-2017</th><th>Specimen</th><th></th></tr></thead><tbody><tr><td>Appearance of Urine</td><td>Cloudy urine</td><td>Urine</td><td></td></tr><tr><td>Odor of Urine</td><td>Urine smell ammoniacal</td><td>Urine</td><td></td></tr><tr><td>Clarity of Urine</td><td>Translucent</td><td>Urine</td><td></td></tr><tr><td>Color of Urine</td><td>Brown color</td><td>Urine</td><td></td></tr></tbody></table></div>"
                },
                "title": "Specimen information"
              }
            ],
            "title": "Laboratory Report"
          },
          {
            "text": {
              "status": "generated",
              "div": "<div xmlns=\"http://www.w3.org/1999/xhtml\"><h3>Annotation</h3><table class=\"hl7__eu__lab__report\"><tr><th>Conclusion and Recommendations based on this report and previous findings known to us</th></tr><tr><td>The patient shows significant renal impairment (elevated creatinine in serum and blood, proteinuria), hypoglycemia, and markedly low HbA1c. Urinalysis reveals protein, ketones, bilirubin, and abnormal appearance (cloudy, brown, ammoniacal), suggesting possible nephrotic syndrome or acute kidney injury with metabolic derangements. No evidence of urinary tract infection. Immediate clinical evaluation and nephrology referral are recommended.</td></tr></table></div>"
            },
            "code": {
              "coding": [
                {
                  "system": "http://loinc.org",
                  "code": "48767-8",
                  "display": "Annotation comment"
                }
              ]
            },
            "title": "Annotation comment"
          }
        ],
        "status": "final",
        "subject": {
          "reference": "urn:uuid:bc4b50e8-38d6-49b5-9775-b63a4eb6ac3e",
          "display": "Θεμιστοκλής Λιναρδάκη"
        },
        "date": "2017-10-18T08:16:00Z",
        "title": "Laboratory Report",
        "confidentiality": "N"
      }
    },
    {
      "fullUrl": "urn:uuid:828aee09-f25f-4b8b-a00c-564bfcce8345",
      "resource": {
        "resourceType": "DiagnosticReport",
        "id": "828aee09-f25f-4b8b-a00c-564bfcce8345",
        "meta": {
          "profile": [
            "http://hl7.eu/fhir/laboratory/StructureDefinition/DiagnosticReport-eu-lab"
          ]
        },
        "identifier": [
          {
            "assigner": {
              "display": "HL7 Europe"
            },
            "system": "urn:oid:2.16.840.1.113883.2.51.999",
            "value": "44ce3f3f-33c4-4048-be9a-be253d3c1ccf"
          }
        ],
        "extension": [
          {
            "url": "http://hl7.org/fhir/5.0/StructureDefinition/extension-DiagnosticReport.composition",
            "valueReference": {
              "reference": "urn:uuid:be7d81a3-9d67-4941-9a41-c1eb87c7b6b5"
            }
          }
        ],
        "category": [
          {
            "coding": [
              {
                "code": "26436-6",
                "system": "http://loinc.org",
                "display": "Laboratory studies (set)"
              }
            ]
          }
        ],
        "specimen": [
          {
            "reference": "urn:uuid:a57b3d78-236e-4622-8144-6f958eb7e0c9"
          },
          {
            "reference": "urn:uuid:2db750a3-b593-4d2a-9f1c-49c865caa7c8"
          },
          {
            "reference": "urn:uuid:652d142a-cd87-4225-9842-4cfe5417636f"
          }
        ],
        "result": [
          {
            "reference": "urn:uuid:8718e756-ab85-4eef-8467-ea5378d7e1c0"
          },
          {
            "reference": "urn:uuid:9b0cc090-8511-435f-a943-376ab3f827f2"
          },
          {
            "reference": "urn:uuid:b39543ce-b8b0-4595-8e60-4593f971b72e"
          },
          {
            "reference": "urn:uuid:f49aae2b-8bb1-47b9-9a59-9ec2b234bf40"
          },
          {
            "reference": "urn:uuid:884c3f5e-14a0-45cd-9f41-c78d70eb7485"
          },
          {
            "reference": "urn:uuid:76985746-30eb-4452-90bc-a647b52a6545"
          },
          {
            "reference": "urn:uuid:52177a77-fc36-42f1-94d0-8976d686df20"
          },
          {
            "reference": "urn:uuid:fb141913-5adb-499e-9165-75402dc1ea4f"
          },
          {
            "reference": "urn:uuid:bdfe79c6-df82-4b0c-99d8-aebf457a1a4c"
          },
          {
            "reference": "urn:uuid:c41dae71-822f-4eec-afa3-7b6dffa317de"
          },
          {
            "reference": "urn:uuid:342c0a8d-4b2e-4c53-a786-0b4f05356f4b"
          },
          {
            "reference": "urn:uuid:bd0db17d-665d-43ba-a2d8-4b4af28b566a"
          },
          {
            "reference": "urn:uuid:e81bfc08-035d-4225-a7d0-01f1ed41b603"
          },
          {
            "reference": "urn:uuid:56ab0475-c1d6-4983-8ade-b9e3d4b3aa9b"
          },
          {
            "reference": "urn:uuid:78128bf4-14fb-4b7c-91bd-7f176b937542"
          },
          {
            "reference": "urn:uuid:7180d321-db08-48d4-a881-29caba38a6c1"
          },
          {
            "reference": "urn:uuid:144011ae-5864-41c1-be29-5338f506dc8c"
          },
          {
            "reference": "urn:uuid:697e8513-51f1-46ba-95e7-8f5ad098c5c4"
          },
          {
            "reference": "urn:uuid:60b2298d-637f-4a80-b076-50ffcb589463"
          },
          {
            "reference": "urn:uuid:0cba99bd-830e-457d-8107-81c5f7246d76"
          },
          {
            "reference": "urn:uuid:515a6513-6cd8-4230-a42b-a26340a89be3"
          },
          {
            "reference": "urn:uuid:47fd2cec-73af-4da5-860b-96c84655a253"
          },
          {
            "reference": "urn:uuid:d7915143-b04e-4c0a-bb89-0478f8800b0f"
          },
          {
            "reference": "urn:uuid:6329c7fb-f27a-4cdc-a215-642b1d4741a6"
          },
          {
            "reference": "urn:uuid:7a7fdca3-79a4-4678-ae3d-4e4898c7982b"
          },
          {
            "reference": "urn:uuid:e811e078-b1f5-4eef-b907-5abe8cf2ac61"
          },
          {
            "reference": "urn:uuid:dce71e05-5251-47e0-a06f-966abcc857f7"
          },
          {
            "reference": "urn:uuid:5b7bf0a1-efb9-459b-8416-278f05293a1e"
          },
          {
            "reference": "urn:uuid:bf799c48-041f-433d-b7b3-6ab310bcf614"
          },
          {
            "reference": "urn:uuid:18648100-44b6-43d7-93db-c2a7b93da4e0"
          },
          {
            "reference": "urn:uuid:65164150-76cd-440b-8044-9cb1bb80e83c"
          },
          {
            "reference": "urn:uuid:b370f351-97e3-49a4-bd39-1afe778255af"
          },
          {
            "reference": "urn:uuid:cf8a635a-4815-4e0a-82b8-34fd860e044d"
          },
          {
            "reference": "urn:uuid:23f7f657-1d80-4db3-a021-69321130e8b6"
          }
        ],
        "status": "registered",
        "code": {
          "coding": [
            {
              "code": "11502-2",
              "system": "http://loinc.org",
              "display": "Laboratory report"
            }
          ]
        },
        "subject": {
          "reference": "urn:uuid:bc4b50e8-38d6-49b5-9775-b63a4eb6ac3e",
          "display": "Θεμιστοκλής Λιναρδάκη"
        }
      }
    },
    {
      "fullUrl": "urn:uuid:bc4b50e8-38d6-49b5-9775-b63a4eb6ac3e",
      "resource": {
        "resourceType": "Patient",
        "id": "bc4b50e8-38d6-49b5-9775-b63a4eb6ac3e",
        "meta": {
          "security": [
            {
              "system": "http://terminology.hl7.org/CodeSystem/v3-ActReason",
              "code": "HTEST"
            },
            {
              "system": "http://terminology.hl7.org/CodeSystem/v3-ActReason",
              "code": "TRAIN"
            }
          ],
          "tag": [
            {
              "system": "https://synderai.net/fhir/CodeSystem/tags",
              "code": "synthetic",
              "display": "SYNDERAI Synthetic data"
            }
          ],
          "profile": [
            "http://hl7.eu/fhir/base/StructureDefinition/patient-eu-core"
          ]
        },
        "identifier": [
          {
            "type": {
              "coding": [
                {
                  "code": "PT",
                  "system": "http://terminology.hl7.org/CodeSystem/v2-0203"
                }
              ]
            },
            "system": "http://ec.europa.eu/identifier/eci",
            "value": "5962-476889-7"
          },
          {
            "type": {
              "coding": [
                {
                  "code": "MR",
                  "system": "http://terminology.hl7.org/CodeSystem/v2-0203"
                }
              ]
            },
            "system": "http://local.setting.eu/identifier",
            "value": "925e2603-2ef9-6bdf-1330-2ebf526636c4"
          }
        ],
        "name": [
          {
            "family": "Λιναρδάκη"
          },
          {
            "given": [
              "Θεμιστοκλής"
            ]
          },
          {
            "text": "Θεμιστοκλής Λιναρδάκη"
          }
        ],
        "address": [
          {
            "line": [
              "Αμαρύνθου 54-58"
            ],
            "use": "home",
            "type": "physical",
            "postalCode": "262 21",
            "city": "Πάτρα",
            "country": "Greece"
          }
        ],
        "telecom": [
          {
            "system": "phone",
            "value": "+302226364480"
          }
        ],
        "extension": [
          {
            "url": "http://hl7.org/fhir/StructureDefinition/patient-nationality",
            "valueCodeableConcept": {
              "coding": [
                {
                  "code": "GR",
                  "system": "http://hl7.org/fhir/ValueSet/country"
                }
              ]
            }
          }
        ],
        "text": {
          "status": "generated",
          "div": "<div xmlns=\"http://www.w3.org/1999/xhtml\"><table class=\"hl7__ips\"><tr><td>Θεμιστοκλής Λιναρδάκη</td><td>male</td><td>21-Jan-1974</td></tr></table></div>"
        },
        "gender": "male",
        "birthDate": "1974-01-21"
      }
    },
    {
      "fullUrl": "urn:uuid:03650f28-72ec-4b6f-8db9-fad61b19fd25",
      "resource": {
        "resourceType": "ServiceRequest",
        "id": "03650f28-72ec-4b6f-8db9-fad61b19fd25",
        "meta": {
          "profile": [
            "http://hl7.eu/fhir/laboratory/StructureDefinition/ServiceRequest-eu-lab"
          ]
        },
        "identifier": [
          {
            "system": "http://example.org",
            "value": "40620132-7794-4020-81bb-a6d1a7949f67"
          }
        ],
        "specimen": [
          {
            "reference": "urn:uuid:a57b3d78-236e-4622-8144-6f958eb7e0c9"
          },
          {
            "reference": "urn:uuid:2db750a3-b593-4d2a-9f1c-49c865caa7c8"
          },
          {
            "reference": "urn:uuid:652d142a-cd87-4225-9842-4cfe5417636f"
          }
        ],
        "reasonCode": [
          {
            "coding": [
              {
                "code": "237602007",
                "system": "http://snomed.info/sct",
                "display": "Metabolic syndrome X"
              }
            ]
          },
          {
            "coding": [
              {
                "code": "433144002",
                "system": "http://snomed.info/sct",
                "display": "Chronic kidney disease stage 3"
              }
            ]
          },
          {
            "coding": [
              {
                "code": "157141000119108",
                "system": "http://snomed.info/sct",
                "display": "Proteinuria due to type 2 diabetes mellitus"
              }
            ]
          },
          {
            "coding": [
              {
                "code": "431856006",
                "system": "http://snomed.info/sct",
                "display": "Chronic kidney disease stage 2"
              }
            ]
          },
          {
            "coding": [
              {
                "code": "90781000119102",
                "system": "http://snomed.info/sct",
                "display": "Microalbuminuria due to type 2 diabetes mellitus"
              }
            ]
          },
          {
            "coding": [
              {
                "code": "127013003",
                "system": "http://snomed.info/sct",
                "display": "Disorder of kidney due to diabetes mellitus"
              }
            ]
          },
          {
            "coding": [
              {
                "code": "431855005",
                "system": "http://snomed.info/sct",
                "display": "Chronic kidney disease stage 1"
              }
            ]
          },
          {
            "coding": [
              {
                "code": "59621000",
                "system": "http://snomed.info/sct",
                "display": "Essential hypertension"
              }
            ]
          },
          {
            "coding": [
              {
                "code": "15777000",
                "system": "http://snomed.info/sct",
                "display": "Prediabetes"
              }
            ]
          },
          {
            "coding": [
              {
                "code": "271737000",
                "system": "http://snomed.info/sct",
                "display": "Anemia"
              }
            ]
          }
        ],
        "status": "active",
        "intent": "order",
        "code": {
          "coding": [
            {
              "code": "108252007",
              "system": "http://snomed.info/sct",
              "display": "Laboratory procedure"
            }
          ]
        },
        "subject": {
          "reference": "urn:uuid:bc4b50e8-38d6-49b5-9775-b63a4eb6ac3e",
          "display": "Θεμιστοκλής Λιναρδάκη"
        },
        "requester": {
          "reference": "urn:uuid:71f014f9-b5cf-48f0-b9ac-8eb2258918d1"
        }
      }
    },
    {
      "fullUrl": "urn:uuid:71f014f9-b5cf-48f0-b9ac-8eb2258918d1",
      "resource": {
        "resourceType": "PractitionerRole",
        "id": "71f014f9-b5cf-48f0-b9ac-8eb2258918d1",
        "meta": {
          "profile": [
            "http://hl7.eu/fhir/base/StructureDefinition/practitionerRole-eu"
          ]
        },
        "text": {
          "status": "generated",
          "div": "<div xmlns=\"http://www.w3.org/1999/xhtml\">Provider Role Id: 71f014f9-b5cf-48f0-b9ac-8eb2258918d1</div>"
        },
        "organization": {
          "reference": "urn:uuid:77b7c6a3-105f-4224-bd17-4cd9d6b1dec4"
        }
      }
    },
    {
      "fullUrl": "urn:uuid:77b7c6a3-105f-4224-bd17-4cd9d6b1dec4",
      "resource": {
        "resourceType": "Organization",
        "id": "77b7c6a3-105f-4224-bd17-4cd9d6b1dec4",
        "meta": {
          "profile": [
            "http://hl7.eu/fhir/base/StructureDefinition/organization-eu"
          ]
        },
        "identifier": [
          {
            "assigner": {
              "display": "HL7 Europe"
            },
            "system": "urn:oid:2.16.840.1.113883.2.51.999",
            "value": "9bad0cde-b710-4001-bf5b-aa3c63967bc3"
          }
        ],
        "address": [
          {
            "line": [
              "211 Odós Filellinon"
            ],
            "city": "Patras",
            "postalCode": "262 21",
            "country": "Greece"
          }
        ],
        "text": {
          "status": "generated",
          "div": "<div xmlns=\"http://www.w3.org/1999/xhtml\">Provider Organization: Dr. Dimitris Economou</div>"
        },
        "name": "Dr. Dimitris Economou"
      }
    },
    {
      "fullUrl": "urn:uuid:a57b3d78-236e-4622-8144-6f958eb7e0c9",
      "resource": {
        "resourceType": "Specimen",
        "id": "a57b3d78-236e-4622-8144-6f958eb7e0c9",
        "meta": {
          "profile": [
            "http://hl7.eu/fhir/laboratory/StructureDefinition/Specimen-eu-lab"
          ]
        },
        "collection": {
          "collectedDateTime": "2017-10-18"
        },
        "text": {
          "status": "generated",
          "div": "<div xmlns=\"http://www.w3.org/1999/xhtml\"><table class=\"hl7__eu__lab__report\"><tr><th>Specimen</th><th>Collection Date</th></tr><tr><td>Acellular blood (serum or plasma) specimen</td><td><span class=\"nb\">18-Oct-2017</span></td></tr></table></div>"
        },
        "type": {
          "coding": [
            {
              "code": "122592007",
              "system": "http://snomed.info/sct",
              "display": "Acellular blood (serum or plasma) specimen"
            }
          ]
        }
      }
    },
    {
      "fullUrl": "urn:uuid:2db750a3-b593-4d2a-9f1c-49c865caa7c8",
      "resource": {
        "resourceType": "Specimen",
        "id": "2db750a3-b593-4d2a-9f1c-49c865caa7c8",
        "meta": {
          "profile": [
            "http://hl7.eu/fhir/laboratory/StructureDefinition/Specimen-eu-lab"
          ]
        },
        "collection": {
          "collectedDateTime": "2017-10-18"
        },
        "text": {
          "status": "generated",
          "div": "<div xmlns=\"http://www.w3.org/1999/xhtml\"><table class=\"hl7__eu__lab__report\"><tr><th>Specimen</th><th>Collection Date</th></tr><tr><td>Urine specimen</td><td><span class=\"nb\">18-Oct-2017</span></td></tr></table></div>"
        },
        "type": {
          "coding": [
            {
              "code": "122575003",
              "system": "http://snomed.info/sct",
              "display": "Urine specimen"
            }
          ]
        }
      }
    },
    {
      "fullUrl": "urn:uuid:652d142a-cd87-4225-9842-4cfe5417636f",
      "resource": {
        "resourceType": "Specimen",
        "id": "652d142a-cd87-4225-9842-4cfe5417636f",
        "meta": {
          "profile": [
            "http://hl7.eu/fhir/laboratory/StructureDefinition/Specimen-eu-lab"
          ]
        },
        "collection": {
          "collectedDateTime": "2017-10-18"
        },
        "text": {
          "status": "generated",
          "div": "<div xmlns=\"http://www.w3.org/1999/xhtml\"><table class=\"hl7__eu__lab__report\"><tr><th>Specimen</th><th>Collection Date</th></tr><tr><td>Whole blood specimen (specimen)</td><td><span class=\"nb\">18-Oct-2017</span></td></tr></table></div>"
        },
        "type": {
          "coding": [
            {
              "code": "258580003",
              "system": "http://snomed.info/sct",
              "display": "Whole blood specimen (specimen)"
            }
          ]
        }
      }
    },
    {
      "fullUrl": "urn:uuid:8718e756-ab85-4eef-8467-ea5378d7e1c0",
      "resource": {
        "resourceType": "Observation",
        "id": "8718e756-ab85-4eef-8467-ea5378d7e1c0",
        "meta": {
          "profile": [
            "http://hl7.eu/fhir/laboratory/StructureDefinition/Observation-resultslab-eu-lab"
          ]
        },
        "performer": [
          {
            "display": "The Central European Lab"
          }
        ],
        "category": [
          {
            "coding": [
              {
                "system": "http://terminology.hl7.org/CodeSystem/observation-category",
                "code": "laboratory"
              }
            ]
          }
        ],
        "code": {
          "coding": [
            {
              "code": "2345-7",
              "system": "http://loinc.org",
              "display": "Glucose [Mass/volume] in Serum or Plasma"
            }
          ],
          "text": "Glucose [Mass/volume] in Serum or Plasma"
        },
        "valueQuantity": {
          "system": "http://unitsofmeasure.org",
          "value": 64.5,
          "unit": "mg/dL",
          "code": "mg/dL"
        },
        "referenceRange": [
          {
            "low": {
              "value": 70,
              "code": "mg/dL",
              "system": "http://unitsofmeasure.org"
            }
          },
          {
            "high": {
              "value": 140,
              "code": "mg/dL",
              "system": "http://unitsofmeasure.org"
            }
          }
        ],
        "interpretation": [
          {
            "coding": [
              {
                "code": "L",
                "system": "http://terminology.hl7.org/CodeSystem/v3-ObservationInterpretation",
                "display": "Low"
              }
            ]
          }
        ],
        "text": {
          "status": "generated",
          "div": "<div xmlns=\"http://www.w3.org/1999/xhtml\"><table class=\"hl7__eu__lab__report\"><tr><th>Test</th><th>18-Oct-2017</th><th>Reference&#xA0;Range</th><th>Unit</th></tr><tr><td>Glucose [Mass/volume] in Serum or Plasma</td><td>64.5</td><td>70 - 140</td><td>L</td><td>mg/dL</td></tr></table></div>"
        },
        "status": "final",
        "subject": {
          "reference": "urn:uuid:bc4b50e8-38d6-49b5-9775-b63a4eb6ac3e",
          "display": "Θεμιστοκλής Λιναρδάκη"
        },
        "effectiveDateTime": "2017-10-18T06:16:00Z",
        "specimen": {
          "reference": "urn:uuid:a57b3d78-236e-4622-8144-6f958eb7e0c9"
        }
      }
    },
    {
      "fullUrl": "urn:uuid:9b0cc090-8511-435f-a943-376ab3f827f2",
      "resource": {
        "resourceType": "Observation",
        "id": "9b0cc090-8511-435f-a943-376ab3f827f2",
        "meta": {
          "profile": [
            "http://hl7.eu/fhir/laboratory/StructureDefinition/Observation-resultslab-eu-lab"
          ]
        },
        "performer": [
          {
            "display": "The Central European Lab"
          }
        ],
        "category": [
          {
            "coding": [
              {
                "system": "http://terminology.hl7.org/CodeSystem/observation-category",
                "code": "laboratory"
              }
            ]
          }
        ],
        "code": {
          "coding": [
            {
              "code": "3094-0",
              "system": "http://loinc.org",
              "display": "Urea nitrogen [Mass/volume] in Serum or Plasma"
            }
          ],
          "text": "Urea nitrogen [Mass/volume] in Serum or Plasma"
        },
        "valueQuantity": {
          "system": "http://unitsofmeasure.org",
          "value": 9.7,
          "unit": "mg/dL",
          "code": "mg/dL"
        },
        "referenceRange": [
          {
            "low": {
              "value": 7,
              "code": "mg/dL",
              "system": "http://unitsofmeasure.org"
            }
          },
          {
            "high": {
              "value": 20,
              "code": "mg/dL",
              "system": "http://unitsofmeasure.org"
            }
          }
        ],
        "text": {
          "status": "generated",
          "div": "<div xmlns=\"http://www.w3.org/1999/xhtml\"><table class=\"hl7__eu__lab__report\"><tr><th>Test</th><th>18-Oct-2017</th><th>Reference&#xA0;Range</th><th>Unit</th></tr><tr><td>Urea nitrogen [Mass/volume] in Serum or Plasma</td><td>9.7</td><td>7 - 20</td><td></td><td>mg/dL</td></tr></table></div>"
        },
        "status": "final",
        "subject": {
          "reference": "urn:uuid:bc4b50e8-38d6-49b5-9775-b63a4eb6ac3e",
          "display": "Θεμιστοκλής Λιναρδάκη"
        },
        "effectiveDateTime": "2017-10-18T06:16:00Z",
        "specimen": {
          "reference": "urn:uuid:a57b3d78-236e-4622-8144-6f958eb7e0c9"
        }
      }
    },
    {
      "fullUrl": "urn:uuid:b39543ce-b8b0-4595-8e60-4593f971b72e",
      "resource": {
        "resourceType": "Observation",
        "id": "b39543ce-b8b0-4595-8e60-4593f971b72e",
        "meta": {
          "profile": [
            "http://hl7.eu/fhir/laboratory/StructureDefinition/Observation-resultslab-eu-lab"
          ]
        },
        "performer": [
          {
            "display": "The Central European Lab"
          }
        ],
        "category": [
          {
            "coding": [
              {
                "system": "http://terminology.hl7.org/CodeSystem/observation-category",
                "code": "laboratory"
              }
            ]
          }
        ],
        "code": {
          "coding": [
            {
              "code": "2160-0",
              "system": "http://loinc.org",
              "display": "Creatinine [Mass/volume] in Serum or Plasma"
            }
          ],
          "text": "Creatinine [Mass/volume] in Serum or Plasma"
        },
        "valueQuantity": {
          "system": "http://unitsofmeasure.org",
          "value": 2,
          "unit": "mg/dL",
          "code": "mg/dL"
        },
        "referenceRange": [
          {
            "low": {
              "value": 0.9,
              "code": "mg/dL",
              "system": "http://unitsofmeasure.org"
            }
          },
          {
            "high": {
              "value": 1.3,
              "code": "mg/dL",
              "system": "http://unitsofmeasure.org"
            }
          }
        ],
        "interpretation": [
          {
            "coding": [
              {
                "code": "H",
                "system": "http://terminology.hl7.org/CodeSystem/v3-ObservationInterpretation",
                "display": "High"
              }
            ]
          }
        ],
        "text": {
          "status": "generated",
          "div": "<div xmlns=\"http://www.w3.org/1999/xhtml\"><table class=\"hl7__eu__lab__report\"><tr><th>Test</th><th>18-Oct-2017</th><th>Reference&#xA0;Range</th><th>Unit</th></tr><tr><td>Creatinine [Mass/volume] in Serum or Plasma</td><td>2.0</td><td>0.9 - 1.3</td><td>H</td><td>mg/dL</td></tr></table></div>"
        },
        "status": "final",
        "subject": {
          "reference": "urn:uuid:bc4b50e8-38d6-49b5-9775-b63a4eb6ac3e",
          "display": "Θεμιστοκλής Λιναρδάκη"
        },
        "effectiveDateTime": "2017-10-18T06:16:00Z",
        "specimen": {
          "reference": "urn:uuid:a57b3d78-236e-4622-8144-6f958eb7e0c9"
        }
      }
    },
    {
      "fullUrl": "urn:uuid:f49aae2b-8bb1-47b9-9a59-9ec2b234bf40",
      "resource": {
        "resourceType": "Observation",
        "id": "f49aae2b-8bb1-47b9-9a59-9ec2b234bf40",
        "meta": {
          "profile": [
            "http://hl7.eu/fhir/laboratory/StructureDefinition/Observation-resultslab-eu-lab"
          ]
        },
        "performer": [
          {
            "display": "The Central European Lab"
          }
        ],
        "category": [
          {
            "coding": [
              {
                "system": "http://terminology.hl7.org/CodeSystem/observation-category",
                "code": "laboratory"
              }
            ]
          }
        ],
        "code": {
          "coding": [
            {
              "code": "17861-6",
              "system": "http://loinc.org",
              "display": "Calcium [Mass/volume] in Serum or Plasma"
            }
          ],
          "text": "Calcium [Mass/volume] in Serum or Plasma"
        },
        "valueQuantity": {
          "system": "http://unitsofmeasure.org",
          "value": 9.1,
          "unit": "mg/dL",
          "code": "mg/dL"
        },
        "referenceRange": [
          {
            "low": {
              "value": 8.5,
              "code": "mg/dL",
              "system": "http://unitsofmeasure.org"
            }
          },
          {
            "high": {
              "value": 10.5,
              "code": "mg/dL",
              "system": "http://unitsofmeasure.org"
            }
          }
        ],
        "text": {
          "status": "generated",
          "div": "<div xmlns=\"http://www.w3.org/1999/xhtml\"><table class=\"hl7__eu__lab__report\"><tr><th>Test</th><th>18-Oct-2017</th><th>Reference&#xA0;Range</th><th>Unit</th></tr><tr><td>Calcium [Mass/volume] in Serum or Plasma</td><td>9.1</td><td>8.5 - 10.5</td><td></td><td>mg/dL</td></tr></table></div>"
        },
        "status": "final",
        "subject": {
          "reference": "urn:uuid:bc4b50e8-38d6-49b5-9775-b63a4eb6ac3e",
          "display": "Θεμιστοκλής Λιναρδάκη"
        },
        "effectiveDateTime": "2017-10-18T06:16:00Z",
        "specimen": {
          "reference": "urn:uuid:a57b3d78-236e-4622-8144-6f958eb7e0c9"
        }
      }
    },
    {
      "fullUrl": "urn:uuid:884c3f5e-14a0-45cd-9f41-c78d70eb7485",
      "resource": {
        "resourceType": "Observation",
        "id": "884c3f5e-14a0-45cd-9f41-c78d70eb7485",
        "meta": {
          "profile": [
            "http://hl7.eu/fhir/laboratory/StructureDefinition/Observation-resultslab-eu-lab"
          ]
        },
        "performer": [
          {
            "display": "The Central European Lab"
          }
        ],
        "category": [
          {
            "coding": [
              {
                "system": "http://terminology.hl7.org/CodeSystem/observation-category",
                "code": "laboratory"
              }
            ]
          }
        ],
        "code": {
          "coding": [
            {
              "code": "2951-2",
              "system": "http://loinc.org",
              "display": "Sodium [Moles/volume] in Serum or Plasma"
            }
          ],
          "text": "Sodium [Moles/volume] in Serum or Plasma"
        },
        "valueQuantity": {
          "system": "http://unitsofmeasure.org",
          "value": 142.8,
          "unit": "mmol/L",
          "code": "mmol/L"
        },
        "referenceRange": [
          {
            "low": {
              "value": 135,
              "code": "mmol/L",
              "system": "http://unitsofmeasure.org"
            }
          },
          {
            "high": {
              "value": 145,
              "code": "mmol/L",
              "system": "http://unitsofmeasure.org"
            }
          }
        ],
        "text": {
          "status": "generated",
          "div": "<div xmlns=\"http://www.w3.org/1999/xhtml\"><table class=\"hl7__eu__lab__report\"><tr><th>Test</th><th>18-Oct-2017</th><th>Reference&#xA0;Range</th><th>Unit</th></tr><tr><td>Sodium [Moles/volume] in Serum or Plasma</td><td>142.8</td><td>135 - 145</td><td></td><td>mmol/L</td></tr></table></div>"
        },
        "status": "final",
        "subject": {
          "reference": "urn:uuid:bc4b50e8-38d6-49b5-9775-b63a4eb6ac3e",
          "display": "Θεμιστοκλής Λιναρδάκη"
        },
        "effectiveDateTime": "2017-10-18T06:16:00Z",
        "specimen": {
          "reference": "urn:uuid:a57b3d78-236e-4622-8144-6f958eb7e0c9"
        }
      }
    },
    {
      "fullUrl": "urn:uuid:76985746-30eb-4452-90bc-a647b52a6545",
      "resource": {
        "resourceType": "Observation",
        "id": "76985746-30eb-4452-90bc-a647b52a6545",
        "meta": {
          "profile": [
            "http://hl7.eu/fhir/laboratory/StructureDefinition/Observation-resultslab-eu-lab"
          ]
        },
        "performer": [
          {
            "display": "The Central European Lab"
          }
        ],
        "category": [
          {
            "coding": [
              {
                "system": "http://terminology.hl7.org/CodeSystem/observation-category",
                "code": "laboratory"
              }
            ]
          }
        ],
        "code": {
          "coding": [
            {
              "code": "2823-3",
              "system": "http://loinc.org",
              "display": "Potassium [Moles/volume] in Serum or Plasma"
            }
          ],
          "text": "Potassium [Moles/volume] in Serum or Plasma"
        },
        "valueQuantity": {
          "system": "http://unitsofmeasure.org",
          "value": 4.1,
          "unit": "mmol/L",
          "code": "mmol/L"
        },
        "referenceRange": [
          {
            "low": {
              "value": 3.5,
              "code": "mmol/L",
              "system": "http://unitsofmeasure.org"
            }
          },
          {
            "high": {
              "value": 5,
              "code": "mmol/L",
              "system": "http://unitsofmeasure.org"
            }
          }
        ],
        "text": {
          "status": "generated",
          "div": "<div xmlns=\"http://www.w3.org/1999/xhtml\"><table class=\"hl7__eu__lab__report\"><tr><th>Test</th><th>18-Oct-2017</th><th>Reference&#xA0;Range</th><th>Unit</th></tr><tr><td>Potassium [Moles/volume] in Serum or Plasma</td><td>4.1</td><td>3.5 - 5</td><td></td><td>mmol/L</td></tr></table></div>"
        },
        "status": "final",
        "subject": {
          "reference": "urn:uuid:bc4b50e8-38d6-49b5-9775-b63a4eb6ac3e",
          "display": "Θεμιστοκλής Λιναρδάκη"
        },
        "effectiveDateTime": "2017-10-18T06:16:00Z",
        "specimen": {
          "reference": "urn:uuid:a57b3d78-236e-4622-8144-6f958eb7e0c9"
        }
      }
    },
    {
      "fullUrl": "urn:uuid:52177a77-fc36-42f1-94d0-8976d686df20",
      "resource": {
        "resourceType": "Observation",
        "id": "52177a77-fc36-42f1-94d0-8976d686df20",
        "meta": {
          "profile": [
            "http://hl7.eu/fhir/laboratory/StructureDefinition/Observation-resultslab-eu-lab"
          ]
        },
        "performer": [
          {
            "display": "The Central European Lab"
          }
        ],
        "category": [
          {
            "coding": [
              {
                "system": "http://terminology.hl7.org/CodeSystem/observation-category",
                "code": "laboratory"
              }
            ]
          }
        ],
        "code": {
          "coding": [
            {
              "code": "2075-0",
              "system": "http://loinc.org",
              "display": "Chloride [Moles/volume] in Serum or Plasma"
            }
          ],
          "text": "Chloride [Moles/volume] in Serum or Plasma"
        },
        "valueQuantity": {
          "system": "http://unitsofmeasure.org",
          "value": 105.6,
          "unit": "mmol/L",
          "code": "mmol/L"
        },
        "referenceRange": [
          {
            "low": {
              "value": 98,
              "code": "mmol/L",
              "system": "http://unitsofmeasure.org"
            }
          },
          {
            "high": {
              "value": 108,
              "code": "mmol/L",
              "system": "http://unitsofmeasure.org"
            }
          }
        ],
        "text": {
          "status": "generated",
          "div": "<div xmlns=\"http://www.w3.org/1999/xhtml\"><table class=\"hl7__eu__lab__report\"><tr><th>Test</th><th>18-Oct-2017</th><th>Reference&#xA0;Range</th><th>Unit</th></tr><tr><td>Chloride [Moles/volume] in Serum or Plasma</td><td>105.6</td><td>98 - 108</td><td></td><td>mmol/L</td></tr></table></div>"
        },
        "status": "final",
        "subject": {
          "reference": "urn:uuid:bc4b50e8-38d6-49b5-9775-b63a4eb6ac3e",
          "display": "Θεμιστοκλής Λιναρδάκη"
        },
        "effectiveDateTime": "2017-10-18T06:16:00Z",
        "specimen": {
          "reference": "urn:uuid:a57b3d78-236e-4622-8144-6f958eb7e0c9"
        }
      }
    },
    {
      "fullUrl": "urn:uuid:fb141913-5adb-499e-9165-75402dc1ea4f",
      "resource": {
        "resourceType": "Observation",
        "id": "fb141913-5adb-499e-9165-75402dc1ea4f",
        "meta": {
          "profile": [
            "http://hl7.eu/fhir/laboratory/StructureDefinition/Observation-resultslab-eu-lab"
          ]
        },
        "performer": [
          {
            "display": "The Central European Lab"
          }
        ],
        "category": [
          {
            "coding": [
              {
                "system": "http://terminology.hl7.org/CodeSystem/observation-category",
                "code": "laboratory"
              }
            ]
          }
        ],
        "code": {
          "coding": [
            {
              "code": "2028-9",
              "system": "http://loinc.org",
              "display": "Carbon dioxide, total [Moles/volume] in Serum or Plasma"
            }
          ],
          "text": "Carbon dioxide, total [Moles/volume] in Serum or Plasma"
        },
        "valueQuantity": {
          "system": "http://unitsofmeasure.org",
          "value": 27.7,
          "unit": "mmol/L",
          "code": "mmol/L"
        },
        "referenceRange": [
          {
            "low": {
              "value": 22,
              "code": "mmol/L",
              "system": "http://unitsofmeasure.org"
            }
          },
          {
            "high": {
              "value": 29,
              "code": "mmol/L",
              "system": "http://unitsofmeasure.org"
            }
          }
        ],
        "text": {
          "status": "generated",
          "div": "<div xmlns=\"http://www.w3.org/1999/xhtml\"><table class=\"hl7__eu__lab__report\"><tr><th>Test</th><th>18-Oct-2017</th><th>Reference&#xA0;Range</th><th>Unit</th></tr><tr><td>Carbon dioxide, total [Moles/volume] in Serum or Plasma</td><td>27.7</td><td>22 - 29</td><td></td><td>mmol/L</td></tr></table></div>"
        },
        "status": "final",
        "subject": {
          "reference": "urn:uuid:bc4b50e8-38d6-49b5-9775-b63a4eb6ac3e",
          "display": "Θεμιστοκλής Λιναρδάκη"
        },
        "effectiveDateTime": "2017-10-18T06:16:00Z",
        "specimen": {
          "reference": "urn:uuid:a57b3d78-236e-4622-8144-6f958eb7e0c9"
        }
      }
    },
    {
      "fullUrl": "urn:uuid:bdfe79c6-df82-4b0c-99d8-aebf457a1a4c",
      "resource": {
        "resourceType": "Observation",
        "id": "bdfe79c6-df82-4b0c-99d8-aebf457a1a4c",
        "meta": {
          "profile": [
            "http://hl7.eu/fhir/laboratory/StructureDefinition/Observation-resultslab-eu-lab"
          ]
        },
        "performer": [
          {
            "display": "The Central European Lab"
          }
        ],
        "category": [
          {
            "coding": [
              {
                "system": "http://terminology.hl7.org/CodeSystem/observation-category",
                "code": "laboratory"
              }
            ]
          }
        ],
        "code": {
          "coding": [
            {
              "code": "5767-9",
              "system": "http://loinc.org",
              "display": "Appearance of Urine"
            }
          ],
          "text": "Appearance of Urine"
        },
        "text": {
          "status": "generated",
          "div": "<div xmlns=\"http://www.w3.org/1999/xhtml\"><table class=\"hl7__eu__lab__report\"><tr><th>Test</th><th>18-Oct-2017</th><th>Reference&#xA0;Range</th><th>Unit</th></tr><tr><td>Appearance of Urine</td></tr></table></div>"
        },
        "status": "final",
        "subject": {
          "reference": "urn:uuid:bc4b50e8-38d6-49b5-9775-b63a4eb6ac3e",
          "display": "Θεμιστοκλής Λιναρδάκη"
        },
        "effectiveDateTime": "2017-10-18T06:16:00Z",
        "specimen": {
          "reference": "urn:uuid:2db750a3-b593-4d2a-9f1c-49c865caa7c8"
        }
      }
    },
    {
      "fullUrl": "urn:uuid:c41dae71-822f-4eec-afa3-7b6dffa317de",
      "resource": {
        "resourceType": "Observation",
        "id": "c41dae71-822f-4eec-afa3-7b6dffa317de",
        "meta": {
          "profile": [
            "http://hl7.eu/fhir/laboratory/StructureDefinition/Observation-resultslab-eu-lab"
          ]
        },
        "performer": [
          {
            "display": "The Central European Lab"
          }
        ],
        "category": [
          {
            "coding": [
              {
                "system": "http://terminology.hl7.org/CodeSystem/observation-category",
                "code": "laboratory"
              }
            ]
          }
        ],
        "code": {
          "coding": [
            {
              "code": "34533-0",
              "system": "http://loinc.org",
              "display": "Odor of Urine"
            }
          ],
          "text": "Odor of Urine"
        },
        "text": {
          "status": "generated",
          "div": "<div xmlns=\"http://www.w3.org/1999/xhtml\"><table class=\"hl7__eu__lab__report\"><tr><th>Test</th><th>18-Oct-2017</th><th>Reference&#xA0;Range</th><th>Unit</th></tr><tr><td>Odor of Urine</td></tr></table></div>"
        },
        "status": "final",
        "subject": {
          "reference": "urn:uuid:bc4b50e8-38d6-49b5-9775-b63a4eb6ac3e",
          "display": "Θεμιστοκλής Λιναρδάκη"
        },
        "effectiveDateTime": "2017-10-18T06:16:00Z",
        "specimen": {
          "reference": "urn:uuid:2db750a3-b593-4d2a-9f1c-49c865caa7c8"
        }
      }
    },
    {
      "fullUrl": "urn:uuid:342c0a8d-4b2e-4c53-a786-0b4f05356f4b",
      "resource": {
        "resourceType": "Observation",
        "id": "342c0a8d-4b2e-4c53-a786-0b4f05356f4b",
        "meta": {
          "profile": [
            "http://hl7.eu/fhir/laboratory/StructureDefinition/Observation-resultslab-eu-lab"
          ]
        },
        "performer": [
          {
            "display": "The Central European Lab"
          }
        ],
        "category": [
          {
            "coding": [
              {
                "system": "http://terminology.hl7.org/CodeSystem/observation-category",
                "code": "laboratory"
              }
            ]
          }
        ],
        "code": {
          "coding": [
            {
              "code": "32167-9",
              "system": "http://loinc.org",
              "display": "Clarity of Urine"
            }
          ],
          "text": "Clarity of Urine"
        },
        "text": {
          "status": "generated",
          "div": "<div xmlns=\"http://www.w3.org/1999/xhtml\"><table class=\"hl7__eu__lab__report\"><tr><th>Test</th><th>18-Oct-2017</th><th>Reference&#xA0;Range</th><th>Unit</th></tr><tr><td>Clarity of Urine</td></tr></table></div>"
        },
        "status": "final",
        "subject": {
          "reference": "urn:uuid:bc4b50e8-38d6-49b5-9775-b63a4eb6ac3e",
          "display": "Θεμιστοκλής Λιναρδάκη"
        },
        "effectiveDateTime": "2017-10-18T06:16:00Z",
        "specimen": {
          "reference": "urn:uuid:2db750a3-b593-4d2a-9f1c-49c865caa7c8"
        }
      }
    },
    {
      "fullUrl": "urn:uuid:bd0db17d-665d-43ba-a2d8-4b4af28b566a",
      "resource": {
        "resourceType": "Observation",
        "id": "bd0db17d-665d-43ba-a2d8-4b4af28b566a",
        "meta": {
          "profile": [
            "http://hl7.eu/fhir/laboratory/StructureDefinition/Observation-resultslab-eu-lab"
          ]
        },
        "performer": [
          {
            "display": "The Central European Lab"
          }
        ],
        "category": [
          {
            "coding": [
              {
                "system": "http://terminology.hl7.org/CodeSystem/observation-category",
                "code": "laboratory"
              }
            ]
          }
        ],
        "code": {
          "coding": [
            {
              "code": "5778-6",
              "system": "http://loinc.org",
              "display": "Color of Urine"
            }
          ],
          "text": "Color of Urine"
        },
        "text": {
          "status": "generated",
          "div": "<div xmlns=\"http://www.w3.org/1999/xhtml\"><table class=\"hl7__eu__lab__report\"><tr><th>Test</th><th>18-Oct-2017</th><th>Reference&#xA0;Range</th><th>Unit</th></tr><tr><td>Color of Urine</td></tr></table></div>"
        },
        "status": "final",
        "subject": {
          "reference": "urn:uuid:bc4b50e8-38d6-49b5-9775-b63a4eb6ac3e",
          "display": "Θεμιστοκλής Λιναρδάκη"
        },
        "effectiveDateTime": "2017-10-18T06:16:00Z",
        "specimen": {
          "reference": "urn:uuid:2db750a3-b593-4d2a-9f1c-49c865caa7c8"
        }
      }
    },
    {
      "fullUrl": "urn:uuid:e81bfc08-035d-4225-a7d0-01f1ed41b603",
      "resource": {
        "resourceType": "Observation",
        "id": "e81bfc08-035d-4225-a7d0-01f1ed41b603",
        "meta": {
          "profile": [
            "http://hl7.eu/fhir/laboratory/StructureDefinition/Observation-resultslab-eu-lab"
          ]
        },
        "performer": [
          {
            "display": "The Central European Lab"
          }
        ],
        "category": [
          {
            "coding": [
              {
                "system": "http://terminology.hl7.org/CodeSystem/observation-category",
                "code": "laboratory"
              }
            ]
          }
        ],
        "code": {
          "coding": [
            {
              "code": "5792-7",
              "system": "http://loinc.org",
              "display": "Glucose [Mass/volume] in Urine by Test strip"
            }
          ],
          "text": "Glucose [Mass/volume] in Urine by Test strip"
        },
        "valueQuantity": {
          "system": "http://unitsofmeasure.org",
          "value": 0.5,
          "unit": "mg/dL",
          "code": "mg/dL"
        },
        "referenceRange": [
          {
            "low": {
              "value": 0,
              "code": "mg/dL",
              "system": "http://unitsofmeasure.org"
            }
          },
          {
            "high": {
              "value": 0.8,
              "code": "mg/dL",
              "system": "http://unitsofmeasure.org"
            }
          }
        ],
        "text": {
          "status": "generated",
          "div": "<div xmlns=\"http://www.w3.org/1999/xhtml\"><table class=\"hl7__eu__lab__report\"><tr><th>Test</th><th>18-Oct-2017</th><th>Reference&#xA0;Range</th><th>Unit</th></tr><tr><td>Glucose [Mass/volume] in Urine by Test strip</td><td>0.5</td><td>0 - 0.8</td><td></td><td>mg/dL</td></tr></table></div>"
        },
        "status": "final",
        "subject": {
          "reference": "urn:uuid:bc4b50e8-38d6-49b5-9775-b63a4eb6ac3e",
          "display": "Θεμιστοκλής Λιναρδάκη"
        },
        "effectiveDateTime": "2017-10-18T06:16:00Z",
        "specimen": {
          "reference": "urn:uuid:2db750a3-b593-4d2a-9f1c-49c865caa7c8"
        }
      }
    },
    {
      "fullUrl": "urn:uuid:56ab0475-c1d6-4983-8ade-b9e3d4b3aa9b",
      "resource": {
        "resourceType": "Observation",
        "id": "56ab0475-c1d6-4983-8ade-b9e3d4b3aa9b",
        "meta": {
          "profile": [
            "http://hl7.eu/fhir/laboratory/StructureDefinition/Observation-resultslab-eu-lab"
          ]
        },
        "performer": [
          {
            "display": "The Central European Lab"
          }
        ],
        "category": [
          {
            "coding": [
              {
                "system": "http://terminology.hl7.org/CodeSystem/observation-category",
                "code": "laboratory"
              }
            ]
          }
        ],
        "code": {
          "coding": [
            {
              "code": "25428-4",
              "system": "http://loinc.org",
              "display": "Glucose [Presence] in Urine by Test strip"
            }
          ],
          "text": "Glucose [Presence] in Urine by Test strip"
        },
        "text": {
          "status": "generated",
          "div": "<div xmlns=\"http://www.w3.org/1999/xhtml\"><table class=\"hl7__eu__lab__report\"><tr><th>Test</th><th>18-Oct-2017</th><th>Reference&#xA0;Range</th><th>Unit</th></tr><tr><td>Glucose [Presence] in Urine by Test strip</td></tr></table></div>"
        },
        "status": "final",
        "subject": {
          "reference": "urn:uuid:bc4b50e8-38d6-49b5-9775-b63a4eb6ac3e",
          "display": "Θεμιστοκλής Λιναρδάκη"
        },
        "effectiveDateTime": "2017-10-18T06:16:00Z",
        "specimen": {
          "reference": "urn:uuid:2db750a3-b593-4d2a-9f1c-49c865caa7c8"
        }
      }
    },
    {
      "fullUrl": "urn:uuid:78128bf4-14fb-4b7c-91bd-7f176b937542",
      "resource": {
        "resourceType": "Observation",
        "id": "78128bf4-14fb-4b7c-91bd-7f176b937542",
        "meta": {
          "profile": [
            "http://hl7.eu/fhir/laboratory/StructureDefinition/Observation-resultslab-eu-lab"
          ]
        },
        "performer": [
          {
            "display": "The Central European Lab"
          }
        ],
        "category": [
          {
            "coding": [
              {
                "system": "http://terminology.hl7.org/CodeSystem/observation-category",
                "code": "laboratory"
              }
            ]
          }
        ],
        "code": {
          "coding": [
            {
              "code": "20505-4",
              "system": "http://loinc.org",
              "display": "Bilirubin.total [Mass/volume] in Urine by Test strip"
            }
          ],
          "text": "Bilirubin.total [Mass/volume] in Urine by Test strip"
        },
        "valueQuantity": {
          "system": "http://unitsofmeasure.org",
          "value": 1.2,
          "unit": "mg/dL",
          "code": "mg/dL"
        },
        "referenceRange": [
          {
            "low": {
              "value": 0.2,
              "code": "mg/dL",
              "system": "http://unitsofmeasure.org"
            }
          },
          {
            "high": {
              "value": 1,
              "code": "mg/dL",
              "system": "http://unitsofmeasure.org"
            }
          }
        ],
        "interpretation": [
          {
            "coding": [
              {
                "code": "H",
                "system": "http://terminology.hl7.org/CodeSystem/v3-ObservationInterpretation",
                "display": "High"
              }
            ]
          }
        ],
        "text": {
          "status": "generated",
          "div": "<div xmlns=\"http://www.w3.org/1999/xhtml\"><table class=\"hl7__eu__lab__report\"><tr><th>Test</th><th>18-Oct-2017</th><th>Reference&#xA0;Range</th><th>Unit</th></tr><tr><td>Bilirubin.total [Mass/volume] in Urine by Test strip</td><td>1.2</td><td>0.2 - 1</td><td>H</td><td>mg/dL</td></tr></table></div>"
        },
        "status": "final",
        "subject": {
          "reference": "urn:uuid:bc4b50e8-38d6-49b5-9775-b63a4eb6ac3e",
          "display": "Θεμιστοκλής Λιναρδάκη"
        },
        "effectiveDateTime": "2017-10-18T06:16:00Z",
        "specimen": {
          "reference": "urn:uuid:2db750a3-b593-4d2a-9f1c-49c865caa7c8"
        }
      }
    },
    {
      "fullUrl": "urn:uuid:7180d321-db08-48d4-a881-29caba38a6c1",
      "resource": {
        "resourceType": "Observation",
        "id": "7180d321-db08-48d4-a881-29caba38a6c1",
        "meta": {
          "profile": [
            "http://hl7.eu/fhir/laboratory/StructureDefinition/Observation-resultslab-eu-lab"
          ]
        },
        "performer": [
          {
            "display": "The Central European Lab"
          }
        ],
        "category": [
          {
            "coding": [
              {
                "system": "http://terminology.hl7.org/CodeSystem/observation-category",
                "code": "laboratory"
              }
            ]
          }
        ],
        "code": {
          "coding": [
            {
              "code": "5770-3",
              "system": "http://loinc.org",
              "display": "Bilirubin.total [Presence] in Urine by Test strip"
            }
          ],
          "text": "Bilirubin.total [Presence] in Urine by Test strip"
        },
        "text": {
          "status": "generated",
          "div": "<div xmlns=\"http://www.w3.org/1999/xhtml\"><table class=\"hl7__eu__lab__report\"><tr><th>Test</th><th>18-Oct-2017</th><th>Reference&#xA0;Range</th><th>Unit</th></tr><tr><td>Bilirubin.total [Presence] in Urine by Test strip</td></tr></table></div>"
        },
        "status": "final",
        "subject": {
          "reference": "urn:uuid:bc4b50e8-38d6-49b5-9775-b63a4eb6ac3e",
          "display": "Θεμιστοκλής Λιναρδάκη"
        },
        "effectiveDateTime": "2017-10-18T06:16:00Z",
        "specimen": {
          "reference": "urn:uuid:2db750a3-b593-4d2a-9f1c-49c865caa7c8"
        }
      }
    },
    {
      "fullUrl": "urn:uuid:144011ae-5864-41c1-be29-5338f506dc8c",
      "resource": {
        "resourceType": "Observation",
        "id": "144011ae-5864-41c1-be29-5338f506dc8c",
        "meta": {
          "profile": [
            "http://hl7.eu/fhir/laboratory/StructureDefinition/Observation-resultslab-eu-lab"
          ]
        },
        "performer": [
          {
            "display": "The Central European Lab"
          }
        ],
        "category": [
          {
            "coding": [
              {
                "system": "http://terminology.hl7.org/CodeSystem/observation-category",
                "code": "laboratory"
              }
            ]
          }
        ],
        "code": {
          "coding": [
            {
              "code": "5797-6",
              "system": "http://loinc.org",
              "display": "Ketones [Mass/volume] in Urine by Test strip"
            }
          ],
          "text": "Ketones [Mass/volume] in Urine by Test strip"
        },
        "valueQuantity": {
          "system": "http://unitsofmeasure.org",
          "value": 11.4,
          "unit": "mg/dL",
          "code": "mg/dL"
        },
        "referenceRange": [
          {
            "low": {
              "value": 0,
              "code": "mg/dL",
              "system": "http://unitsofmeasure.org"
            }
          },
          {
            "high": {
              "value": 5,
              "code": "mg/dL",
              "system": "http://unitsofmeasure.org"
            }
          }
        ],
        "interpretation": [
          {
            "coding": [
              {
                "code": "H",
                "system": "http://terminology.hl7.org/CodeSystem/v3-ObservationInterpretation",
                "display": "High"
              }
            ]
          }
        ],
        "text": {
          "status": "generated",
          "div": "<div xmlns=\"http://www.w3.org/1999/xhtml\"><table class=\"hl7__eu__lab__report\"><tr><th>Test</th><th>18-Oct-2017</th><th>Reference&#xA0;Range</th><th>Unit</th></tr><tr><td>Ketones [Mass/volume] in Urine by Test strip</td><td>11.4</td><td>0 - 5</td><td>H</td><td>mg/dL</td></tr></table></div>"
        },
        "status": "final",
        "subject": {
          "reference": "urn:uuid:bc4b50e8-38d6-49b5-9775-b63a4eb6ac3e",
          "display": "Θεμιστοκλής Λιναρδάκη"
        },
        "effectiveDateTime": "2017-10-18T06:16:00Z",
        "specimen": {
          "reference": "urn:uuid:2db750a3-b593-4d2a-9f1c-49c865caa7c8"
        }
      }
    },
    {
      "fullUrl": "urn:uuid:697e8513-51f1-46ba-95e7-8f5ad098c5c4",
      "resource": {
        "resourceType": "Observation",
        "id": "697e8513-51f1-46ba-95e7-8f5ad098c5c4",
        "meta": {
          "profile": [
            "http://hl7.eu/fhir/laboratory/StructureDefinition/Observation-resultslab-eu-lab"
          ]
        },
        "performer": [
          {
            "display": "The Central European Lab"
          }
        ],
        "category": [
          {
            "coding": [
              {
                "system": "http://terminology.hl7.org/CodeSystem/observation-category",
                "code": "laboratory"
              }
            ]
          }
        ],
        "code": {
          "coding": [
            {
              "code": "2514-8",
              "system": "http://loinc.org",
              "display": "Ketones [Presence] in Urine by Test strip"
            }
          ],
          "text": "Ketones [Presence] in Urine by Test strip"
        },
        "text": {
          "status": "generated",
          "div": "<div xmlns=\"http://www.w3.org/1999/xhtml\"><table class=\"hl7__eu__lab__report\"><tr><th>Test</th><th>18-Oct-2017</th><th>Reference&#xA0;Range</th><th>Unit</th></tr><tr><td>Ketones [Presence] in Urine by Test strip</td></tr></table></div>"
        },
        "status": "final",
        "subject": {
          "reference": "urn:uuid:bc4b50e8-38d6-49b5-9775-b63a4eb6ac3e",
          "display": "Θεμιστοκλής Λιναρδάκη"
        },
        "effectiveDateTime": "2017-10-18T06:16:00Z",
        "specimen": {
          "reference": "urn:uuid:2db750a3-b593-4d2a-9f1c-49c865caa7c8"
        }
      }
    },
    {
      "fullUrl": "urn:uuid:60b2298d-637f-4a80-b076-50ffcb589463",
      "resource": {
        "resourceType": "Observation",
        "id": "60b2298d-637f-4a80-b076-50ffcb589463",
        "meta": {
          "profile": [
            "http://hl7.eu/fhir/laboratory/StructureDefinition/Observation-resultslab-eu-lab"
          ]
        },
        "performer": [
          {
            "display": "The Central European Lab"
          }
        ],
        "category": [
          {
            "coding": [
              {
                "system": "http://terminology.hl7.org/CodeSystem/observation-category",
                "code": "laboratory"
              }
            ]
          }
        ],
        "code": {
          "coding": [
            {
              "code": "5811-5",
              "system": "http://loinc.org",
              "display": "Specific gravity of Urine by Test strip"
            }
          ],
          "text": "Specific gravity of Urine by Test strip"
        },
        "valueQuantity": {
          "system": "http://unitsofmeasure.org",
          "value": 1,
          "unit": "{nominal}",
          "code": "{nominal}"
        },
        "referenceRange": [
          {
            "low": {
              "value": 1.005,
              "code": "g/mL",
              "system": "http://unitsofmeasure.org"
            }
          },
          {
            "high": {
              "value": 1.03,
              "code": "g/mL",
              "system": "http://unitsofmeasure.org"
            }
          }
        ],
        "interpretation": [
          {
            "coding": [
              {
                "code": "L",
                "system": "http://terminology.hl7.org/CodeSystem/v3-ObservationInterpretation",
                "display": "Low"
              }
            ]
          }
        ],
        "text": {
          "status": "generated",
          "div": "<div xmlns=\"http://www.w3.org/1999/xhtml\"><table class=\"hl7__eu__lab__report\"><tr><th>Test</th><th>18-Oct-2017</th><th>Reference&#xA0;Range</th><th>Unit</th></tr><tr><td>Specific gravity of Urine by Test strip</td><td>1.0</td><td>1.005 - 1.03</td><td>L</td><td>{nominal}</td></tr></table></div>"
        },
        "status": "final",
        "subject": {
          "reference": "urn:uuid:bc4b50e8-38d6-49b5-9775-b63a4eb6ac3e",
          "display": "Θεμιστοκλής Λιναρδάκη"
        },
        "effectiveDateTime": "2017-10-18T06:16:00Z",
        "specimen": {
          "reference": "urn:uuid:2db750a3-b593-4d2a-9f1c-49c865caa7c8"
        }
      }
    },
    {
      "fullUrl": "urn:uuid:0cba99bd-830e-457d-8107-81c5f7246d76",
      "resource": {
        "resourceType": "Observation",
        "id": "0cba99bd-830e-457d-8107-81c5f7246d76",
        "meta": {
          "profile": [
            "http://hl7.eu/fhir/laboratory/StructureDefinition/Observation-resultslab-eu-lab"
          ]
        },
        "performer": [
          {
            "display": "The Central European Lab"
          }
        ],
        "category": [
          {
            "coding": [
              {
                "system": "http://terminology.hl7.org/CodeSystem/observation-category",
                "code": "laboratory"
              }
            ]
          }
        ],
        "code": {
          "coding": [
            {
              "code": "5803-2",
              "system": "http://loinc.org",
              "display": "pH of Urine by Test strip"
            }
          ],
          "text": "pH of Urine by Test strip"
        },
        "valueQuantity": {
          "system": "http://unitsofmeasure.org",
          "value": 6.8,
          "unit": "pH",
          "code": "pH"
        },
        "referenceRange": [
          {
            "low": {
              "value": 4.6,
              "code": "pH",
              "system": "http://unitsofmeasure.org"
            }
          },
          {
            "high": {
              "value": 7,
              "code": "pH",
              "system": "http://unitsofmeasure.org"
            }
          }
        ],
        "text": {
          "status": "generated",
          "div": "<div xmlns=\"http://www.w3.org/1999/xhtml\"><table class=\"hl7__eu__lab__report\"><tr><th>Test</th><th>18-Oct-2017</th><th>Reference&#xA0;Range</th><th>Unit</th></tr><tr><td>pH of Urine by Test strip</td><td>6.8</td><td>4.6 - 7</td><td></td><td>pH</td></tr></table></div>"
        },
        "status": "final",
        "subject": {
          "reference": "urn:uuid:bc4b50e8-38d6-49b5-9775-b63a4eb6ac3e",
          "display": "Θεμιστοκλής Λιναρδάκη"
        },
        "effectiveDateTime": "2017-10-18T06:16:00Z",
        "specimen": {
          "reference": "urn:uuid:2db750a3-b593-4d2a-9f1c-49c865caa7c8"
        }
      }
    },
    {
      "fullUrl": "urn:uuid:515a6513-6cd8-4230-a42b-a26340a89be3",
      "resource": {
        "resourceType": "Observation",
        "id": "515a6513-6cd8-4230-a42b-a26340a89be3",
        "meta": {
          "profile": [
            "http://hl7.eu/fhir/laboratory/StructureDefinition/Observation-resultslab-eu-lab"
          ]
        },
        "performer": [
          {
            "display": "The Central European Lab"
          }
        ],
        "category": [
          {
            "coding": [
              {
                "system": "http://terminology.hl7.org/CodeSystem/observation-category",
                "code": "laboratory"
              }
            ]
          }
        ],
        "code": {
          "coding": [
            {
              "code": "5804-0",
              "system": "http://loinc.org",
              "display": "Protein [Mass/volume] in Urine by Test strip"
            }
          ],
          "text": "Protein [Mass/volume] in Urine by Test strip"
        },
        "valueQuantity": {
          "system": "http://unitsofmeasure.org",
          "value": 265.7,
          "unit": "mg/dL",
          "code": "mg/dL"
        },
        "referenceRange": [
          {
            "low": {
              "value": 0,
              "code": "mg/dL",
              "system": "http://unitsofmeasure.org"
            }
          },
          {
            "high": {
              "value": 150,
              "code": "mg/dL",
              "system": "http://unitsofmeasure.org"
            }
          }
        ],
        "interpretation": [
          {
            "coding": [
              {
                "code": "H",
                "system": "http://terminology.hl7.org/CodeSystem/v3-ObservationInterpretation",
                "display": "High"
              }
            ]
          }
        ],
        "text": {
          "status": "generated",
          "div": "<div xmlns=\"http://www.w3.org/1999/xhtml\"><table class=\"hl7__eu__lab__report\"><tr><th>Test</th><th>18-Oct-2017</th><th>Reference&#xA0;Range</th><th>Unit</th></tr><tr><td>Protein [Mass/volume] in Urine by Test strip</td><td>265.7</td><td>0 - 150</td><td>H</td><td>mg/dL</td></tr></table></div>"
        },
        "status": "final",
        "subject": {
          "reference": "urn:uuid:bc4b50e8-38d6-49b5-9775-b63a4eb6ac3e",
          "display": "Θεμιστοκλής Λιναρδάκη"
        },
        "effectiveDateTime": "2017-10-18T06:16:00Z",
        "specimen": {
          "reference": "urn:uuid:2db750a3-b593-4d2a-9f1c-49c865caa7c8"
        }
      }
    },
    {
      "fullUrl": "urn:uuid:47fd2cec-73af-4da5-860b-96c84655a253",
      "resource": {
        "resourceType": "Observation",
        "id": "47fd2cec-73af-4da5-860b-96c84655a253",
        "meta": {
          "profile": [
            "http://hl7.eu/fhir/laboratory/StructureDefinition/Observation-resultslab-eu-lab"
          ]
        },
        "performer": [
          {
            "display": "The Central European Lab"
          }
        ],
        "category": [
          {
            "coding": [
              {
                "system": "http://terminology.hl7.org/CodeSystem/observation-category",
                "code": "laboratory"
              }
            ]
          }
        ],
        "code": {
          "coding": [
            {
              "code": "20454-5",
              "system": "http://loinc.org",
              "display": "Protein [Presence] in Urine by Test strip"
            }
          ],
          "text": "Protein [Presence] in Urine by Test strip"
        },
        "text": {
          "status": "generated",
          "div": "<div xmlns=\"http://www.w3.org/1999/xhtml\"><table class=\"hl7__eu__lab__report\"><tr><th>Test</th><th>18-Oct-2017</th><th>Reference&#xA0;Range</th><th>Unit</th></tr><tr><td>Protein [Presence] in Urine by Test strip</td></tr></table></div>"
        },
        "status": "final",
        "subject": {
          "reference": "urn:uuid:bc4b50e8-38d6-49b5-9775-b63a4eb6ac3e",
          "display": "Θεμιστοκλής Λιναρδάκη"
        },
        "effectiveDateTime": "2017-10-18T06:16:00Z",
        "specimen": {
          "reference": "urn:uuid:2db750a3-b593-4d2a-9f1c-49c865caa7c8"
        }
      }
    },
    {
      "fullUrl": "urn:uuid:d7915143-b04e-4c0a-bb89-0478f8800b0f",
      "resource": {
        "resourceType": "Observation",
        "id": "d7915143-b04e-4c0a-bb89-0478f8800b0f",
        "meta": {
          "profile": [
            "http://hl7.eu/fhir/laboratory/StructureDefinition/Observation-resultslab-eu-lab"
          ]
        },
        "performer": [
          {
            "display": "The Central European Lab"
          }
        ],
        "category": [
          {
            "coding": [
              {
                "system": "http://terminology.hl7.org/CodeSystem/observation-category",
                "code": "laboratory"
              }
            ]
          }
        ],
        "code": {
          "coding": [
            {
              "code": "5802-4",
              "system": "http://loinc.org",
              "display": "Nitrite [Presence] in Urine by Test strip"
            }
          ],
          "text": "Nitrite [Presence] in Urine by Test strip"
        },
        "text": {
          "status": "generated",
          "div": "<div xmlns=\"http://www.w3.org/1999/xhtml\"><table class=\"hl7__eu__lab__report\"><tr><th>Test</th><th>18-Oct-2017</th><th>Reference&#xA0;Range</th><th>Unit</th></tr><tr><td>Nitrite [Presence] in Urine by Test strip</td></tr></table></div>"
        },
        "status": "final",
        "subject": {
          "reference": "urn:uuid:bc4b50e8-38d6-49b5-9775-b63a4eb6ac3e",
          "display": "Θεμιστοκλής Λιναρδάκη"
        },
        "effectiveDateTime": "2017-10-18T06:16:00Z",
        "specimen": {
          "reference": "urn:uuid:2db750a3-b593-4d2a-9f1c-49c865caa7c8"
        }
      }
    },
    {
      "fullUrl": "urn:uuid:6329c7fb-f27a-4cdc-a215-642b1d4741a6",
      "resource": {
        "resourceType": "Observation",
        "id": "6329c7fb-f27a-4cdc-a215-642b1d4741a6",
        "meta": {
          "profile": [
            "http://hl7.eu/fhir/laboratory/StructureDefinition/Observation-resultslab-eu-lab"
          ]
        },
        "performer": [
          {
            "display": "The Central European Lab"
          }
        ],
        "category": [
          {
            "coding": [
              {
                "system": "http://terminology.hl7.org/CodeSystem/observation-category",
                "code": "laboratory"
              }
            ]
          }
        ],
        "code": {
          "coding": [
            {
              "code": "5794-3",
              "system": "http://loinc.org",
              "display": "Hemoglobin [Presence] in Urine by Test strip"
            }
          ],
          "text": "Hemoglobin [Presence] in Urine by Test strip"
        },
        "text": {
          "status": "generated",
          "div": "<div xmlns=\"http://www.w3.org/1999/xhtml\"><table class=\"hl7__eu__lab__report\"><tr><th>Test</th><th>18-Oct-2017</th><th>Reference&#xA0;Range</th><th>Unit</th></tr><tr><td>Hemoglobin [Presence] in Urine by Test strip</td></tr></table></div>"
        },
        "status": "final",
        "subject": {
          "reference": "urn:uuid:bc4b50e8-38d6-49b5-9775-b63a4eb6ac3e",
          "display": "Θεμιστοκλής Λιναρδάκη"
        },
        "effectiveDateTime": "2017-10-18T06:16:00Z",
        "specimen": {
          "reference": "urn:uuid:2db750a3-b593-4d2a-9f1c-49c865caa7c8"
        }
      }
    },
    {
      "fullUrl": "urn:uuid:7a7fdca3-79a4-4678-ae3d-4e4898c7982b",
      "resource": {
        "resourceType": "Observation",
        "id": "7a7fdca3-79a4-4678-ae3d-4e4898c7982b",
        "meta": {
          "profile": [
            "http://hl7.eu/fhir/laboratory/StructureDefinition/Observation-resultslab-eu-lab"
          ]
        },
        "performer": [
          {
            "display": "The Central European Lab"
          }
        ],
        "category": [
          {
            "coding": [
              {
                "system": "http://terminology.hl7.org/CodeSystem/observation-category",
                "code": "laboratory"
              }
            ]
          }
        ],
        "code": {
          "coding": [
            {
              "code": "5799-2",
              "system": "http://loinc.org",
              "display": "Leukocyte esterase [Presence] in Urine by Test strip"
            }
          ],
          "text": "Leukocyte esterase [Presence] in Urine by Test strip"
        },
        "text": {
          "status": "generated",
          "div": "<div xmlns=\"http://www.w3.org/1999/xhtml\"><table class=\"hl7__eu__lab__report\"><tr><th>Test</th><th>18-Oct-2017</th><th>Reference&#xA0;Range</th><th>Unit</th></tr><tr><td>Leukocyte esterase [Presence] in Urine by Test strip</td></tr></table></div>"
        },
        "status": "final",
        "subject": {
          "reference": "urn:uuid:bc4b50e8-38d6-49b5-9775-b63a4eb6ac3e",
          "display": "Θεμιστοκλής Λιναρδάκη"
        },
        "effectiveDateTime": "2017-10-18T06:16:00Z",
        "specimen": {
          "reference": "urn:uuid:2db750a3-b593-4d2a-9f1c-49c865caa7c8"
        }
      }
    },
    {
      "fullUrl": "urn:uuid:e811e078-b1f5-4eef-b907-5abe8cf2ac61",
      "resource": {
        "resourceType": "Observation",
        "id": "e811e078-b1f5-4eef-b907-5abe8cf2ac61",
        "meta": {
          "profile": [
            "http://hl7.eu/fhir/laboratory/StructureDefinition/Observation-resultslab-eu-lab"
          ]
        },
        "performer": [
          {
            "display": "The Central European Lab"
          }
        ],
        "category": [
          {
            "coding": [
              {
                "system": "http://terminology.hl7.org/CodeSystem/observation-category",
                "code": "laboratory"
              }
            ]
          }
        ],
        "code": {
          "coding": [
            {
              "code": "4548-4",
              "system": "http://loinc.org",
              "display": "Hemoglobin A1c/Hemoglobin.total in Blood"
            }
          ],
          "text": "Hemoglobin A1c/Hemoglobin.total in Blood"
        },
        "valueQuantity": {
          "system": "http://unitsofmeasure.org",
          "value": 2.9,
          "unit": "%",
          "code": "%"
        },
        "referenceRange": [
          {
            "low": {
              "value": 4.3,
              "code": "%",
              "system": "http://unitsofmeasure.org"
            }
          },
          {
            "high": {
              "value": 6.4,
              "code": "%",
              "system": "http://unitsofmeasure.org"
            }
          }
        ],
        "interpretation": [
          {
            "coding": [
              {
                "code": "L",
                "system": "http://terminology.hl7.org/CodeSystem/v3-ObservationInterpretation",
                "display": "Low"
              }
            ]
          }
        ],
        "text": {
          "status": "generated",
          "div": "<div xmlns=\"http://www.w3.org/1999/xhtml\"><table class=\"hl7__eu__lab__report\"><tr><th>Test</th><th>18-Oct-2017</th><th>Reference&#xA0;Range</th><th>Unit</th></tr><tr><td>Hemoglobin A1c/Hemoglobin.total in Blood</td><td>2.9</td><td>4.3 - 6.4</td><td>L</td><td>%</td></tr></table></div>"
        },
        "status": "final",
        "subject": {
          "reference": "urn:uuid:bc4b50e8-38d6-49b5-9775-b63a4eb6ac3e",
          "display": "Θεμιστοκλής Λιναρδάκη"
        },
        "effectiveDateTime": "2017-10-18T06:16:00Z",
        "specimen": {
          "reference": "urn:uuid:652d142a-cd87-4225-9842-4cfe5417636f"
        }
      }
    },
    {
      "fullUrl": "urn:uuid:dce71e05-5251-47e0-a06f-966abcc857f7",
      "resource": {
        "resourceType": "Observation",
        "id": "dce71e05-5251-47e0-a06f-966abcc857f7",
        "meta": {
          "profile": [
            "http://hl7.eu/fhir/laboratory/StructureDefinition/Observation-resultslab-eu-lab"
          ]
        },
        "performer": [
          {
            "display": "The Central European Lab"
          }
        ],
        "category": [
          {
            "coding": [
              {
                "system": "http://terminology.hl7.org/CodeSystem/observation-category",
                "code": "laboratory"
              }
            ]
          }
        ],
        "code": {
          "coding": [
            {
              "code": "2339-0",
              "system": "http://loinc.org",
              "display": "Glucose [Mass/volume] in Blood"
            }
          ],
          "text": "Glucose [Mass/volume] in Blood"
        },
        "valueQuantity": {
          "system": "http://unitsofmeasure.org",
          "value": 64.5,
          "unit": "mg/dL",
          "code": "mg/dL"
        },
        "referenceRange": [
          {
            "low": {
              "value": 70,
              "code": "mg/dL",
              "system": "http://unitsofmeasure.org"
            }
          },
          {
            "high": {
              "value": 140,
              "code": "mg/dL",
              "system": "http://unitsofmeasure.org"
            }
          }
        ],
        "interpretation": [
          {
            "coding": [
              {
                "code": "L",
                "system": "http://terminology.hl7.org/CodeSystem/v3-ObservationInterpretation",
                "display": "Low"
              }
            ]
          }
        ],
        "text": {
          "status": "generated",
          "div": "<div xmlns=\"http://www.w3.org/1999/xhtml\"><table class=\"hl7__eu__lab__report\"><tr><th>Test</th><th>18-Oct-2017</th><th>Reference&#xA0;Range</th><th>Unit</th></tr><tr><td>Glucose [Mass/volume] in Blood</td><td>64.5</td><td>70 - 140</td><td>L</td><td>mg/dL</td></tr></table></div>"
        },
        "status": "final",
        "subject": {
          "reference": "urn:uuid:bc4b50e8-38d6-49b5-9775-b63a4eb6ac3e",
          "display": "Θεμιστοκλής Λιναρδάκη"
        },
        "effectiveDateTime": "2017-10-18T06:16:00Z",
        "specimen": {
          "reference": "urn:uuid:652d142a-cd87-4225-9842-4cfe5417636f"
        }
      }
    },
    {
      "fullUrl": "urn:uuid:5b7bf0a1-efb9-459b-8416-278f05293a1e",
      "resource": {
        "resourceType": "Observation",
        "id": "5b7bf0a1-efb9-459b-8416-278f05293a1e",
        "meta": {
          "profile": [
            "http://hl7.eu/fhir/laboratory/StructureDefinition/Observation-resultslab-eu-lab"
          ]
        },
        "performer": [
          {
            "display": "The Central European Lab"
          }
        ],
        "category": [
          {
            "coding": [
              {
                "system": "http://terminology.hl7.org/CodeSystem/observation-category",
                "code": "laboratory"
              }
            ]
          }
        ],
        "code": {
          "coding": [
            {
              "code": "6299-2",
              "system": "http://loinc.org",
              "display": "Urea nitrogen [Mass/volume] in Blood"
            }
          ],
          "text": "Urea nitrogen [Mass/volume] in Blood"
        },
        "valueQuantity": {
          "system": "http://unitsofmeasure.org",
          "value": 9.7,
          "unit": "mg/dL",
          "code": "mg/dL"
        },
        "referenceRange": [
          {
            "low": {
              "value": 7,
              "code": "mg/dL",
              "system": "http://unitsofmeasure.org"
            }
          },
          {
            "high": {
              "value": 20,
              "code": "mg/dL",
              "system": "http://unitsofmeasure.org"
            }
          }
        ],
        "text": {
          "status": "generated",
          "div": "<div xmlns=\"http://www.w3.org/1999/xhtml\"><table class=\"hl7__eu__lab__report\"><tr><th>Test</th><th>18-Oct-2017</th><th>Reference&#xA0;Range</th><th>Unit</th></tr><tr><td>Urea nitrogen [Mass/volume] in Blood</td><td>9.7</td><td>7 - 20</td><td></td><td>mg/dL</td></tr></table></div>"
        },
        "status": "final",
        "subject": {
          "reference": "urn:uuid:bc4b50e8-38d6-49b5-9775-b63a4eb6ac3e",
          "display": "Θεμιστοκλής Λιναρδάκη"
        },
        "effectiveDateTime": "2017-10-18T06:16:00Z",
        "specimen": {
          "reference": "urn:uuid:652d142a-cd87-4225-9842-4cfe5417636f"
        }
      }
    },
    {
      "fullUrl": "urn:uuid:bf799c48-041f-433d-b7b3-6ab310bcf614",
      "resource": {
        "resourceType": "Observation",
        "id": "bf799c48-041f-433d-b7b3-6ab310bcf614",
        "meta": {
          "profile": [
            "http://hl7.eu/fhir/laboratory/StructureDefinition/Observation-resultslab-eu-lab"
          ]
        },
        "performer": [
          {
            "display": "The Central European Lab"
          }
        ],
        "category": [
          {
            "coding": [
              {
                "system": "http://terminology.hl7.org/CodeSystem/observation-category",
                "code": "laboratory"
              }
            ]
          }
        ],
        "code": {
          "coding": [
            {
              "code": "38483-4",
              "system": "http://loinc.org",
              "display": "Creatinine [Mass/volume] in Blood"
            }
          ],
          "text": "Creatinine [Mass/volume] in Blood"
        },
        "valueQuantity": {
          "system": "http://unitsofmeasure.org",
          "value": 6.1,
          "unit": "mg/dL",
          "code": "mg/dL"
        },
        "referenceRange": [
          {
            "low": {
              "value": 0.6,
              "code": "mg/dL",
              "system": "http://unitsofmeasure.org"
            }
          },
          {
            "high": {
              "value": 1.3,
              "code": "mg/dL",
              "system": "http://unitsofmeasure.org"
            }
          }
        ],
        "interpretation": [
          {
            "coding": [
              {
                "code": "H",
                "system": "http://terminology.hl7.org/CodeSystem/v3-ObservationInterpretation",
                "display": "High"
              }
            ]
          }
        ],
        "text": {
          "status": "generated",
          "div": "<div xmlns=\"http://www.w3.org/1999/xhtml\"><table class=\"hl7__eu__lab__report\"><tr><th>Test</th><th>18-Oct-2017</th><th>Reference&#xA0;Range</th><th>Unit</th></tr><tr><td>Creatinine [Mass/volume] in Blood</td><td>6.1</td><td>0.6 - 1.3</td><td>H</td><td>mg/dL</td></tr></table></div>"
        },
        "status": "final",
        "subject": {
          "reference": "urn:uuid:bc4b50e8-38d6-49b5-9775-b63a4eb6ac3e",
          "display": "Θεμιστοκλής Λιναρδάκη"
        },
        "effectiveDateTime": "2017-10-18T06:16:00Z",
        "specimen": {
          "reference": "urn:uuid:652d142a-cd87-4225-9842-4cfe5417636f"
        }
      }
    },
    {
      "fullUrl": "urn:uuid:18648100-44b6-43d7-93db-c2a7b93da4e0",
      "resource": {
        "resourceType": "Observation",
        "id": "18648100-44b6-43d7-93db-c2a7b93da4e0",
        "meta": {
          "profile": [
            "http://hl7.eu/fhir/laboratory/StructureDefinition/Observation-resultslab-eu-lab"
          ]
        },
        "performer": [
          {
            "display": "The Central European Lab"
          }
        ],
        "category": [
          {
            "coding": [
              {
                "system": "http://terminology.hl7.org/CodeSystem/observation-category",
                "code": "laboratory"
              }
            ]
          }
        ],
        "code": {
          "coding": [
            {
              "code": "49765-1",
              "system": "http://loinc.org",
              "display": "Calcium [Mass/volume] in Blood"
            }
          ],
          "text": "Calcium [Mass/volume] in Blood"
        },
        "valueQuantity": {
          "system": "http://unitsofmeasure.org",
          "value": 9.1,
          "unit": "mg/dL",
          "code": "mg/dL"
        },
        "referenceRange": [
          {
            "low": {
              "value": 8.5,
              "code": "mg/dL",
              "system": "http://unitsofmeasure.org"
            }
          },
          {
            "high": {
              "value": 10.5,
              "code": "mg/dL",
              "system": "http://unitsofmeasure.org"
            }
          }
        ],
        "text": {
          "status": "generated",
          "div": "<div xmlns=\"http://www.w3.org/1999/xhtml\"><table class=\"hl7__eu__lab__report\"><tr><th>Test</th><th>18-Oct-2017</th><th>Reference&#xA0;Range</th><th>Unit</th></tr><tr><td>Calcium [Mass/volume] in Blood</td><td>9.1</td><td>8.5 - 10.5</td><td></td><td>mg/dL</td></tr></table></div>"
        },
        "status": "final",
        "subject": {
          "reference": "urn:uuid:bc4b50e8-38d6-49b5-9775-b63a4eb6ac3e",
          "display": "Θεμιστοκλής Λιναρδάκη"
        },
        "effectiveDateTime": "2017-10-18T06:16:00Z",
        "specimen": {
          "reference": "urn:uuid:652d142a-cd87-4225-9842-4cfe5417636f"
        }
      }
    },
    {
      "fullUrl": "urn:uuid:65164150-76cd-440b-8044-9cb1bb80e83c",
      "resource": {
        "resourceType": "Observation",
        "id": "65164150-76cd-440b-8044-9cb1bb80e83c",
        "meta": {
          "profile": [
            "http://hl7.eu/fhir/laboratory/StructureDefinition/Observation-resultslab-eu-lab"
          ]
        },
        "performer": [
          {
            "display": "The Central European Lab"
          }
        ],
        "category": [
          {
            "coding": [
              {
                "system": "http://terminology.hl7.org/CodeSystem/observation-category",
                "code": "laboratory"
              }
            ]
          }
        ],
        "code": {
          "coding": [
            {
              "code": "2947-0",
              "system": "http://loinc.org",
              "display": "Sodium [Moles/volume] in Blood"
            }
          ],
          "text": "Sodium [Moles/volume] in Blood"
        },
        "valueQuantity": {
          "system": "http://unitsofmeasure.org",
          "value": 142.8,
          "unit": "mmol/L",
          "code": "mmol/L"
        },
        "referenceRange": [
          {
            "low": {
              "value": 135,
              "code": "mmol/L",
              "system": "http://unitsofmeasure.org"
            }
          },
          {
            "high": {
              "value": 145,
              "code": "mmol/L",
              "system": "http://unitsofmeasure.org"
            }
          }
        ],
        "text": {
          "status": "generated",
          "div": "<div xmlns=\"http://www.w3.org/1999/xhtml\"><table class=\"hl7__eu__lab__report\"><tr><th>Test</th><th>18-Oct-2017</th><th>Reference&#xA0;Range</th><th>Unit</th></tr><tr><td>Sodium [Moles/volume] in Blood</td><td>142.8</td><td>135 - 145</td><td></td><td>mmol/L</td></tr></table></div>"
        },
        "status": "final",
        "subject": {
          "reference": "urn:uuid:bc4b50e8-38d6-49b5-9775-b63a4eb6ac3e",
          "display": "Θεμιστοκλής Λιναρδάκη"
        },
        "effectiveDateTime": "2017-10-18T06:16:00Z",
        "specimen": {
          "reference": "urn:uuid:652d142a-cd87-4225-9842-4cfe5417636f"
        }
      }
    },
    {
      "fullUrl": "urn:uuid:b370f351-97e3-49a4-bd39-1afe778255af",
      "resource": {
        "resourceType": "Observation",
        "id": "b370f351-97e3-49a4-bd39-1afe778255af",
        "meta": {
          "profile": [
            "http://hl7.eu/fhir/laboratory/StructureDefinition/Observation-resultslab-eu-lab"
          ]
        },
        "performer": [
          {
            "display": "The Central European Lab"
          }
        ],
        "category": [
          {
            "coding": [
              {
                "system": "http://terminology.hl7.org/CodeSystem/observation-category",
                "code": "laboratory"
              }
            ]
          }
        ],
        "code": {
          "coding": [
            {
              "code": "6298-4",
              "system": "http://loinc.org",
              "display": "Potassium [Moles/volume] in Blood"
            }
          ],
          "text": "Potassium [Moles/volume] in Blood"
        },
        "valueQuantity": {
          "system": "http://unitsofmeasure.org",
          "value": 4.1,
          "unit": "mmol/L",
          "code": "mmol/L"
        },
        "referenceRange": [
          {
            "low": {
              "value": 3.5,
              "code": "mmol/L",
              "system": "http://unitsofmeasure.org"
            }
          },
          {
            "high": {
              "value": 5.3,
              "code": "mmol/L",
              "system": "http://unitsofmeasure.org"
            }
          }
        ],
        "text": {
          "status": "generated",
          "div": "<div xmlns=\"http://www.w3.org/1999/xhtml\"><table class=\"hl7__eu__lab__report\"><tr><th>Test</th><th>18-Oct-2017</th><th>Reference&#xA0;Range</th><th>Unit</th></tr><tr><td>Potassium [Moles/volume] in Blood</td><td>4.1</td><td>3.5 - 5.3</td><td></td><td>mmol/L</td></tr></table></div>"
        },
        "status": "final",
        "subject": {
          "reference": "urn:uuid:bc4b50e8-38d6-49b5-9775-b63a4eb6ac3e",
          "display": "Θεμιστοκλής Λιναρδάκη"
        },
        "effectiveDateTime": "2017-10-18T06:16:00Z",
        "specimen": {
          "reference": "urn:uuid:652d142a-cd87-4225-9842-4cfe5417636f"
        }
      }
    },
    {
      "fullUrl": "urn:uuid:cf8a635a-4815-4e0a-82b8-34fd860e044d",
      "resource": {
        "resourceType": "Observation",
        "id": "cf8a635a-4815-4e0a-82b8-34fd860e044d",
        "meta": {
          "profile": [
            "http://hl7.eu/fhir/laboratory/StructureDefinition/Observation-resultslab-eu-lab"
          ]
        },
        "performer": [
          {
            "display": "The Central European Lab"
          }
        ],
        "category": [
          {
            "coding": [
              {
                "system": "http://terminology.hl7.org/CodeSystem/observation-category",
                "code": "laboratory"
              }
            ]
          }
        ],
        "code": {
          "coding": [
            {
              "code": "2069-3",
              "system": "http://loinc.org",
              "display": "Chloride [Moles/volume] in Blood"
            }
          ],
          "text": "Chloride [Moles/volume] in Blood"
        },
        "valueQuantity": {
          "system": "http://unitsofmeasure.org",
          "value": 105.6,
          "unit": "mmol/L",
          "code": "mmol/L"
        },
        "referenceRange": [
          {
            "low": {
              "value": 98,
              "code": "mmol/L",
              "system": "http://unitsofmeasure.org"
            }
          },
          {
            "high": {
              "value": 110,
              "code": "mmol/L",
              "system": "http://unitsofmeasure.org"
            }
          }
        ],
        "text": {
          "status": "generated",
          "div": "<div xmlns=\"http://www.w3.org/1999/xhtml\"><table class=\"hl7__eu__lab__report\"><tr><th>Test</th><th>18-Oct-2017</th><th>Reference&#xA0;Range</th><th>Unit</th></tr><tr><td>Chloride [Moles/volume] in Blood</td><td>105.6</td><td>98 - 110</td><td></td><td>mmol/L</td></tr></table></div>"
        },
        "status": "final",
        "subject": {
          "reference": "urn:uuid:bc4b50e8-38d6-49b5-9775-b63a4eb6ac3e",
          "display": "Θεμιστοκλής Λιναρδάκη"
        },
        "effectiveDateTime": "2017-10-18T06:16:00Z",
        "specimen": {
          "reference": "urn:uuid:652d142a-cd87-4225-9842-4cfe5417636f"
        }
      }
    },
    {
      "fullUrl": "urn:uuid:23f7f657-1d80-4db3-a021-69321130e8b6",
      "resource": {
        "resourceType": "Observation",
        "id": "23f7f657-1d80-4db3-a021-69321130e8b6",
        "meta": {
          "profile": [
            "http://hl7.eu/fhir/laboratory/StructureDefinition/Observation-resultslab-eu-lab"
          ]
        },
        "performer": [
          {
            "display": "The Central European Lab"
          }
        ],
        "category": [
          {
            "coding": [
              {
                "system": "http://terminology.hl7.org/CodeSystem/observation-category",
                "code": "laboratory"
              }
            ]
          }
        ],
        "code": {
          "coding": [
            {
              "code": "20565-8",
              "system": "http://loinc.org",
              "display": "Carbon dioxide, total [Moles/volume] in Blood"
            }
          ],
          "text": "Carbon dioxide, total [Moles/volume] in Blood"
        },
        "valueQuantity": {
          "system": "http://unitsofmeasure.org",
          "value": 27.7,
          "unit": "mmol/L",
          "code": "mmol/L"
        },
        "referenceRange": [
          {
            "low": {
              "value": 22,
              "code": "mmol/L",
              "system": "http://unitsofmeasure.org"
            }
          },
          {
            "high": {
              "value": 29,
              "code": "mmol/L",
              "system": "http://unitsofmeasure.org"
            }
          }
        ],
        "text": {
          "status": "generated",
          "div": "<div xmlns=\"http://www.w3.org/1999/xhtml\"><table class=\"hl7__eu__lab__report\"><tr><th>Test</th><th>18-Oct-2017</th><th>Reference&#xA0;Range</th><th>Unit</th></tr><tr><td>Carbon dioxide, total [Moles/volume] in Blood</td><td>27.7</td><td>22 - 29</td><td></td><td>mmol/L</td></tr></table></div>"
        },
        "status": "final",
        "subject": {
          "reference": "urn:uuid:bc4b50e8-38d6-49b5-9775-b63a4eb6ac3e",
          "display": "Θεμιστοκλής Λιναρδάκη"
        },
        "effectiveDateTime": "2017-10-18T06:16:00Z",
        "specimen": {
          "reference": "urn:uuid:652d142a-cd87-4225-9842-4cfe5417636f"
        }
      }
    },
    {
      "fullUrl": "urn:uuid:34d05603-d791-43f0-9f38-3a9979ddc93d",
      "resource": {
        "resourceType": "Device",
        "id": "34d05603-d791-43f0-9f38-3a9979ddc93d",
        "deviceName": [
          {
            "name": "SYNDERAI Synthetic Generator",
            "type": "manufacturer-name"
          }
        ],
        "version": [
          {
            "value": "5.0"
          }
        ],
        "text": {
          "status": "generated",
          "div": "<div xmlns=\"http://www.w3.org/1999/xhtml\">SYNDERAI Synthetic Generator v5.0</div>"
        },
        "status": "active\"",
        "distinctIdentifier": "synderai-generator-50",
        "manufacturer": "SYNDERAI Project"
      }
    },
    {
      "fullUrl": "urn:uuid:edc828b4-10a5-4812-b03f-b0ef51441f9c",
      "resource": {
        "resourceType": "Provenance",
        "id": "edc828b4-10a5-4812-b03f-b0ef51441f9c",
        "target": [
          {
            "reference": "Patient/bc4b50e8-38d6-49b5-9775-b63a4eb6ac3e"
          },
          {
            "reference": "Bundle/fa95e319-009f-4923-83d1-6e1e613fcd78"
          },
          {
            "reference": "Composition/ed890915-f808-460b-b40f-34325f574bbc"
          },
          {
            "reference": "PractitionerRole/a1960478-ff8d-4cab-834e-05f633ce752c"
          },
          {
            "reference": "Practitioner/3cd9d7dd-4ff4-4f40-b5d5-5e561a38f9c3"
          },
          {
            "reference": "PractitionerRole/71f014f9-b5cf-48f0-b9ac-8eb2258918d1"
          },
          {
            "reference": "Organization/77b7c6a3-105f-4224-bd17-4cd9d6b1dec4"
          }
        ],
        "activity": {
          "text": "Synthetic Example Data Generation"
        },
        "policy": [
          "https://synderai.net/synderai-synthetic-data-policy"
        ],
        "agent": [
          {
            "type": {
              "text": "author"
            },
            "who": {
              "reference": "Device/34d05603-d791-43f0-9f38-3a9979ddc93d"
            }
          }
        ],
        "reason": [
          {
            "text": "Interoperability Testing and Training (non-clinical use)"
          }
        ],
        "text": {
          "status": "generated",
          "div": "<div xmlns=\"http://www.w3.org/1999/xhtml\">Provenance for SYNDERAI Synthetic Example Data Resource</div>"
        },
        "recorded": "2017-10-18T08:16:00Z"
      }
    },
    {
      "fullUrl": "urn:uuid:a1960478-ff8d-4cab-834e-05f633ce752c",
      "resource": {
        "resourceType": "PractitionerRole",
        "id": "a1960478-ff8d-4cab-834e-05f633ce752c",
        "meta": {
          "profile": [
            "http://hl7.eu/fhir/base/StructureDefinition/practitionerRole-eu"
          ]
        },
        "text": {
          "status": "generated",
          "div": "<div xmlns=\"http://www.w3.org/1999/xhtml\">Laboratory Role Id: a1960478-ff8d-4cab-834e-05f633ce752c</div>"
        },
        "practitioner": {
          "reference": "urn:uuid:3cd9d7dd-4ff4-4f40-b5d5-5e561a38f9c3"
        }
      }
    },
    {
      "fullUrl": "urn:uuid:3cd9d7dd-4ff4-4f40-b5d5-5e561a38f9c3",
      "resource": {
        "resourceType": "Practitioner",
        "id": "3cd9d7dd-4ff4-4f40-b5d5-5e561a38f9c3",
        "meta": {
          "profile": [
            "http://hl7.eu/fhir/base/StructureDefinition/practitioner-eu"
          ]
        },
        "identifier": [
          {
            "assigner": {
              "display": "HL7 Europe"
            },
            "system": "urn:oid:2.16.840.1.113883.2.51.999",
            "value": "8b82eecc-deb1-4dfc-beb0-1437d64eab9d"
          }
        ],
        "name": [
          {
            "prefix": [
              "dr"
            ],
            "given": [
              "Ex"
            ],
            "family": "Ample"
          }
        ],
        "address": [
          {
            "line": [
              "Laboratoire Central Européenne",
              "Boulevard du Jardin Botanique 32"
            ],
            "postalCode": "1000",
            "city": "Brussels",
            "country": "Belgium"
          }
        ],
        "text": {
          "status": "generated",
          "div": "<div xmlns=\"http://www.w3.org/1999/xhtml\">Laboratory: Laboratoire Central Européenne, 1000 Brussels, Belgium</div>"
        }
      }
    }
  ],
  "type": "document",
  "timestamp": "2017-10-18T08:16:00Z"
}
