{
  "resourceType": "Bundle",
  "id": "456cbc5d-06a2-46b3-9bae-bc8e22757136",
  "meta": {
    "profile": [
      "http://hl7.eu/fhir/laboratory/StructureDefinition/Bundle-eu-lab"
    ]
  },
  "identifier": {
    "assigner": {
      "display": "HL7 Europe"
    },
    "system": "urn:oid:2.16.840.1.113883.2.51.999",
    "value": "40e939a8-9f54-4702-8086-5930fe97233b"
  },
  "entry": [
    {
      "fullUrl": "urn:uuid:ccdaf027-ac99-4f2a-b246-07783de10be0",
      "resource": {
        "resourceType": "Composition",
        "id": "ccdaf027-ac99-4f2a-b246-07783de10be0",
        "meta": {
          "profile": [
            "http://hl7.eu/fhir/laboratory/StructureDefinition/Composition-eu-lab"
          ]
        },
        "identifier": {
          "assigner": {
            "display": "HL7 Europe"
          },
          "system": "urn:oid:2.16.840.1.113883.2.51.999",
          "value": "e439dd8e-df8c-4670-afe6-e1989fc60054"
        },
        "author": [
          {
            "reference": "urn:uuid:8259c33a-c4a6-4100-9d1d-77237106e2f5"
          }
        ],
        "category": [
          {
            "coding": [
              {
                "code": "26436-6",
                "system": "http://loinc.org",
                "display": "Laboratory studies (set)"
              }
            ]
          }
        ],
        "type": {
          "coding": [
            {
              "code": "11502-2",
              "system": "http://loinc.org",
              "display": "Laboratory report"
            }
          ],
          "text": "Laboratory Report"
        },
        "section": [
          {
            "code": {
              "coding": [
                {
                  "code": "26436-6",
                  "system": "http://loinc.org",
                  "display": "Laboratory studies (set)"
                }
              ],
              "text": "Laboratory studies"
            },
            "section": [
              {
                "code": {
                  "coding": [
                    {
                      "code": "$18719-5",
                      "system": "http://loinc.org",
                      "display": "Chemistry studies (set)"
                    }
                  ],
                  "text": "Chemistry"
                },
                "entry": [
                  {
                    "reference": "urn:uuid:a064bc4d-cb89-46c6-81b0-d3bc916a4d8e"
                  },
                  {
                    "reference": "urn:uuid:e01013ab-49a4-42e2-a7aa-393cb3709967"
                  },
                  {
                    "reference": "urn:uuid:64f88417-dc00-409e-9fa6-b6717293a102"
                  },
                  {
                    "reference": "urn:uuid:cc8f1a3c-8657-4486-adba-727823d77ca2"
                  },
                  {
                    "reference": "urn:uuid:94ff3981-827c-4983-93b9-996f9a45d2bd"
                  },
                  {
                    "reference": "urn:uuid:3fd5a575-e4dd-4938-9437-2214d9d9967a"
                  },
                  {
                    "reference": "urn:uuid:151177b9-5eb4-4857-88df-550e6536a3ef"
                  },
                  {
                    "reference": "urn:uuid:d22630e4-9d95-4437-93e2-116dce3d7e12"
                  },
                  {
                    "reference": "urn:uuid:4a167bf4-d3f8-4b4f-9afa-ae85ce38d817"
                  },
                  {
                    "reference": "urn:uuid:30987b42-faff-4445-81d1-893572d706a7"
                  },
                  {
                    "reference": "urn:uuid:b5adae08-23a8-47a1-b363-2836695b7a67"
                  },
                  {
                    "reference": "urn:uuid:a18d164d-d4d8-4f30-8ccf-35d9ad7a3297"
                  },
                  {
                    "reference": "urn:uuid:a6783317-a969-4669-8a11-df3bca758e24"
                  },
                  {
                    "reference": "urn:uuid:5c3e3208-5a5b-4db6-92b2-814212172819"
                  },
                  {
                    "reference": "urn:uuid:b445e203-2755-4d10-9a0f-6a3699000473"
                  },
                  {
                    "reference": "urn:uuid:fef00242-3a2b-494b-ba45-c731fb14f44a"
                  }
                ],
                "text": {
                  "status": "generated",
                  "div": "<div xmlns=\"http://www.w3.org/1999/xhtml\"><h3>Chemistry</h3><table class=\"hl7__eu__lab__report\"><thead><tr><th>Test</th><th>25-NOV-2016</th><th>Reference&#xA0;Range</th><th>Unit</th></tr></thead><tbody><tr><td>Glucose [Mass/volume] in Blood</td><td>82.3</td><td>70 - 140</td><td>mg/dL</td></tr><tr><td>Urea nitrogen [Mass/volume] in Blood</td><td>15.5</td><td>7 - 30</td><td>mg/dL</td></tr><tr><td>Creatinine [Mass/volume] in Blood</td><td><strong>2.6 H</strong></td><td>0.5 - 1.3</td><td>mg/dL</td></tr><tr><td>Calcium [Mass/volume] in Blood</td><td>9.2</td><td>8.6 - 10.2</td><td>mg/dL</td></tr><tr><td>Sodium [Moles/volume] in Blood</td><td>138.5</td><td>135 - 145</td><td>mmol/L</td></tr><tr><td>Potassium [Moles/volume] in Blood</td><td>4.5</td><td>3.5 - 5.1</td><td>mmol/L</td></tr><tr><td>Chloride [Moles/volume] in Blood</td><td>101.1</td><td>98 - 114</td><td>mmol/L</td></tr><tr><td>Carbon dioxide, total [Moles/volume] in Blood</td><td><strong>21.5 L</strong></td><td>22 - 32</td><td>mmol/L</td></tr><tr><td>Protein [Mass/volume] in Serum or Plasma</td><td>7.1</td><td>6 - 8.3</td><td>g/dL</td></tr><tr><td>Albumin [Mass/volume] in Serum or Plasma</td><td>4.4</td><td>3.5 - 5.5</td><td>g/dL</td></tr><tr><td>Globulin [Mass/volume] in Serum by calculation</td><td>2.9</td><td>2 - 3.5</td><td>g/L</td></tr><tr><td>Bilirubin.total [Mass/volume] in Serum or Plasma</td><td>0.4</td><td>0.3 - 1.2</td><td>mg/dL</td></tr><tr><td>Alkaline phosphatase [Enzymatic activity/volume] in Serum or Plasma</td><td>99.3</td><td>44 - 142</td><td>U/L</td></tr><tr><td>Alanine aminotransferase [Enzymatic activity/volume] in Serum or Plasma</td><td><strong>46.4 H</strong></td><td>7 - 40</td><td>U/L</td></tr><tr><td>Aspartate aminotransferase [Enzymatic activity/volume] in Serum or Plasma</td><td>11.8</td><td>10 - 40</td><td>U/L</td></tr><tr><td>Ketones [Presence] in Urine by Test strip</td><td>Urine ketone test = +++</td><td></td><td></td></tr></tbody></table></div>"
                },
                "title": "Chemistry"
              },
              {
                "code": {
                  "coding": [
                    {
                      "code": "$18729-4",
                      "system": "http://loinc.org",
                      "display": "Urinalysis studies (set)"
                    }
                  ],
                  "text": "Urinalysis"
                },
                "entry": [
                  {
                    "reference": "urn:uuid:29528719-89ab-4e80-a29b-fcaea2834656"
                  },
                  {
                    "reference": "urn:uuid:e874aa44-89e3-4c5e-97a4-c6607f9d674f"
                  },
                  {
                    "reference": "urn:uuid:87543bf4-1129-418b-a2b5-1bce0cd34152"
                  },
                  {
                    "reference": "urn:uuid:13b38daa-09fa-4384-9c55-0ccd0570fe71"
                  },
                  {
                    "reference": "urn:uuid:d3b149a1-e03a-439e-9d37-c32f0460d5f0"
                  },
                  {
                    "reference": "urn:uuid:8de1f77c-1473-46a8-a919-38e3edfd84b7"
                  },
                  {
                    "reference": "urn:uuid:ecddb250-3cd3-4466-a929-b43a0d27d749"
                  },
                  {
                    "reference": "urn:uuid:efa1d4cf-54a4-4768-a88a-6ab0b26af2f8"
                  },
                  {
                    "reference": "urn:uuid:fcdad76a-9044-489a-b588-2fb1ea3f3e3c"
                  },
                  {
                    "reference": "urn:uuid:477dccfe-631f-45bd-9215-26af19e85fcd"
                  },
                  {
                    "reference": "urn:uuid:4c34ab27-c7b3-41f1-9c58-ccf4259fc437"
                  },
                  {
                    "reference": "urn:uuid:4eb1e0e3-1418-4572-9c65-a1c355fdc596"
                  }
                ],
                "text": {
                  "status": "generated",
                  "div": "<div xmlns=\"http://www.w3.org/1999/xhtml\"><h3>Urinalysis</h3><table class=\"hl7__eu__lab__report\"><thead><tr><th>Test</th><th>25-NOV-2016</th><th>Reference&#xA0;Range</th><th>Unit</th></tr></thead><tbody><tr><td>Glucose [Mass/volume] in Urine by Test strip</td><td><strong>0.9 H</strong></td><td>0.8 - 0</td><td>mg/dL</td></tr><tr><td>Glucose [Presence] in Urine by Test strip</td><td>++</td><td></td><td></td></tr><tr><td>Bilirubin.total [Mass/volume] in Urine by Test strip</td><td>1.0</td><td>0 - 1.5</td><td>mg/dL</td></tr><tr><td>Bilirubin.total [Presence] in Urine by Test strip</td><td>Finding of bilirubin in urine</td><td></td><td></td></tr><tr><td>Ketones [Mass/volume] in Urine by Test strip</td><td><strong>13.2 H</strong></td><td>0 - 8</td><td>mg/dL</td></tr><tr><td>Specific gravity of Urine by Test strip</td><td><strong>1.0 L</strong></td><td>1.01 - 1.03</td><td>{nominal}</td></tr><tr><td>pH of Urine by Test strip</td><td>5.3</td><td>4.6 - 7.5</td><td>pH</td></tr><tr><td>Protein [Mass/volume] in Urine by Test strip</td><td><strong>254.1 H</strong></td><td>0 - 14</td><td>mg/dL</td></tr><tr><td>Protein [Presence] in Urine by Test strip</td><td>Urine protein test = +++</td><td></td><td></td></tr><tr><td>Nitrite [Presence] in Urine by Test strip</td><td>Urine nitrite negative</td><td></td><td></td></tr><tr><td>Hemoglobin [Presence] in Urine by Test strip</td><td>Urine blood test = negative</td><td></td><td></td></tr><tr><td>Leukocyte esterase [Presence] in Urine by Test strip</td><td>Urine leukocyte test negative</td><td></td><td></td></tr></tbody></table></div>"
                },
                "title": "Urinalysis"
              },
              {
                "code": {
                  "coding": [
                    {
                      "code": "$LP7846-1",
                      "system": "http://loinc.org",
                      "display": "Specimen information"
                    }
                  ],
                  "text": "Specimen information"
                },
                "entry": [
                  {
                    "reference": "urn:uuid:d074d65a-6c3d-4011-ba07-97e8c3f1aaa6"
                  },
                  {
                    "reference": "urn:uuid:73a58f0f-3cb1-476a-a017-14b863484e83"
                  },
                  {
                    "reference": "urn:uuid:8ee31a77-d61d-42f1-8c4a-12107b0f97e4"
                  },
                  {
                    "reference": "urn:uuid:0190a2e1-c4ff-4a20-8cc6-de857d3cde38"
                  }
                ],
                "text": {
                  "status": "generated",
                  "div": "<div xmlns=\"http://www.w3.org/1999/xhtml\"><h3>Specimen information</h3><table class=\"hl7__eu__lab__report\"><thead><tr><th>Test</th><th>25-NOV-2016</th><th>Specimen</th><th></th></tr></thead><tbody><tr><td>Appearance of Urine</td><td>Cloudy urine</td><td>Urine</td><td></td></tr><tr><td>Odor of Urine</td><td>Urine smell ammoniacal</td><td>Urine</td><td></td></tr><tr><td>Clarity of Urine</td><td>Translucent</td><td>Urine</td><td></td></tr><tr><td>Color of Urine</td><td>Brown color</td><td>Urine</td><td></td></tr></tbody></table></div>"
                },
                "title": "Specimen information"
              }
            ],
            "title": "Laboratory Report"
          },
          {
            "text": {
              "status": "generated",
              "div": "<div xmlns=\"http://www.w3.org/1999/xhtml\"><h3>Annotation</h3><table class=\"hl7__eu__lab__report\"><tr><th>Conclusion and Recommendations based on this report and previous findings known to us</th></tr><tr><td>The patient shows elevated serum creatinine, low CO₂, and mild ALT elevation, suggesting possible renal impairment with mild metabolic acidosis and some hepatic involvement. Urinalysis reveals significant proteinuria, glycosuria, and ketonuria, with low specific gravity and abnormal appearance, indicating possible nephrotic syndrome or diabetic nephropathy. No evidence of urinary tract infection. Recommend further evaluation of renal and hepatic function and assessment for diabetes mellitus.</td></tr></table></div>"
            },
            "code": {
              "coding": [
                {
                  "system": "http://loinc.org",
                  "code": "48767-8",
                  "display": "Annotation comment"
                }
              ]
            },
            "title": "Annotation comment"
          }
        ],
        "status": "final",
        "subject": {
          "reference": "urn:uuid:13ebdda7-8034-411d-b998-065c7a68044f",
          "display": "Maria Nohlmans"
        },
        "date": "2016-11-25T05:35:39Z",
        "title": "Laboratory Report",
        "confidentiality": "N"
      }
    },
    {
      "fullUrl": "urn:uuid:a9b234f2-2fcf-4802-a06b-81c28b8a492c",
      "resource": {
        "resourceType": "DiagnosticReport",
        "id": "a9b234f2-2fcf-4802-a06b-81c28b8a492c",
        "meta": {
          "profile": [
            "http://hl7.eu/fhir/laboratory/StructureDefinition/DiagnosticReport-eu-lab"
          ]
        },
        "identifier": [
          {
            "assigner": {
              "display": "HL7 Europe"
            },
            "system": "urn:oid:2.16.840.1.113883.2.51.999",
            "value": "f07c0e8d-a5e6-4854-91d4-2ee4795d4fd0"
          }
        ],
        "extension": [
          {
            "url": "http://hl7.org/fhir/5.0/StructureDefinition/extension-DiagnosticReport.composition",
            "valueReference": {
              "reference": "urn:uuid:e439dd8e-df8c-4670-afe6-e1989fc60054"
            }
          }
        ],
        "category": [
          {
            "coding": [
              {
                "code": "26436-6",
                "system": "http://loinc.org",
                "display": "Laboratory studies (set)"
              }
            ]
          }
        ],
        "specimen": [
          {
            "reference": "urn:uuid:75ad4bba-f739-4d16-bbe9-ea188a0f84d8"
          },
          {
            "reference": "urn:uuid:802e8378-7290-46c7-80f3-db6347b5ff23"
          },
          {
            "reference": "urn:uuid:b7b4d6f3-c24b-43bf-8ed2-f6a58ffa6d1c"
          },
          {
            "reference": "urn:uuid:8f325641-c4b1-4dcb-8545-592f5d68d166"
          }
        ],
        "result": [
          {
            "reference": "urn:uuid:a064bc4d-cb89-46c6-81b0-d3bc916a4d8e"
          },
          {
            "reference": "urn:uuid:e01013ab-49a4-42e2-a7aa-393cb3709967"
          },
          {
            "reference": "urn:uuid:64f88417-dc00-409e-9fa6-b6717293a102"
          },
          {
            "reference": "urn:uuid:cc8f1a3c-8657-4486-adba-727823d77ca2"
          },
          {
            "reference": "urn:uuid:94ff3981-827c-4983-93b9-996f9a45d2bd"
          },
          {
            "reference": "urn:uuid:3fd5a575-e4dd-4938-9437-2214d9d9967a"
          },
          {
            "reference": "urn:uuid:151177b9-5eb4-4857-88df-550e6536a3ef"
          },
          {
            "reference": "urn:uuid:d22630e4-9d95-4437-93e2-116dce3d7e12"
          },
          {
            "reference": "urn:uuid:4a167bf4-d3f8-4b4f-9afa-ae85ce38d817"
          },
          {
            "reference": "urn:uuid:30987b42-faff-4445-81d1-893572d706a7"
          },
          {
            "reference": "urn:uuid:b5adae08-23a8-47a1-b363-2836695b7a67"
          },
          {
            "reference": "urn:uuid:a18d164d-d4d8-4f30-8ccf-35d9ad7a3297"
          },
          {
            "reference": "urn:uuid:a6783317-a969-4669-8a11-df3bca758e24"
          },
          {
            "reference": "urn:uuid:5c3e3208-5a5b-4db6-92b2-814212172819"
          },
          {
            "reference": "urn:uuid:b445e203-2755-4d10-9a0f-6a3699000473"
          },
          {
            "reference": "urn:uuid:d074d65a-6c3d-4011-ba07-97e8c3f1aaa6"
          },
          {
            "reference": "urn:uuid:73a58f0f-3cb1-476a-a017-14b863484e83"
          },
          {
            "reference": "urn:uuid:8ee31a77-d61d-42f1-8c4a-12107b0f97e4"
          },
          {
            "reference": "urn:uuid:0190a2e1-c4ff-4a20-8cc6-de857d3cde38"
          },
          {
            "reference": "urn:uuid:29528719-89ab-4e80-a29b-fcaea2834656"
          },
          {
            "reference": "urn:uuid:e874aa44-89e3-4c5e-97a4-c6607f9d674f"
          },
          {
            "reference": "urn:uuid:87543bf4-1129-418b-a2b5-1bce0cd34152"
          },
          {
            "reference": "urn:uuid:13b38daa-09fa-4384-9c55-0ccd0570fe71"
          },
          {
            "reference": "urn:uuid:d3b149a1-e03a-439e-9d37-c32f0460d5f0"
          },
          {
            "reference": "urn:uuid:fef00242-3a2b-494b-ba45-c731fb14f44a"
          },
          {
            "reference": "urn:uuid:8de1f77c-1473-46a8-a919-38e3edfd84b7"
          },
          {
            "reference": "urn:uuid:ecddb250-3cd3-4466-a929-b43a0d27d749"
          },
          {
            "reference": "urn:uuid:efa1d4cf-54a4-4768-a88a-6ab0b26af2f8"
          },
          {
            "reference": "urn:uuid:fcdad76a-9044-489a-b588-2fb1ea3f3e3c"
          },
          {
            "reference": "urn:uuid:477dccfe-631f-45bd-9215-26af19e85fcd"
          },
          {
            "reference": "urn:uuid:4c34ab27-c7b3-41f1-9c58-ccf4259fc437"
          },
          {
            "reference": "urn:uuid:4eb1e0e3-1418-4572-9c65-a1c355fdc596"
          }
        ],
        "status": "registered",
        "code": {
          "coding": [
            {
              "code": "11502-2",
              "system": "http://loinc.org",
              "display": "Laboratory report"
            }
          ]
        },
        "subject": {
          "reference": "urn:uuid:13ebdda7-8034-411d-b998-065c7a68044f",
          "display": "Maria Nohlmans"
        }
      }
    },
    {
      "fullUrl": "urn:uuid:13ebdda7-8034-411d-b998-065c7a68044f",
      "resource": {
        "resourceType": "Patient",
        "id": "13ebdda7-8034-411d-b998-065c7a68044f",
        "meta": {
          "security": [
            {
              "system": "http://terminology.hl7.org/CodeSystem/v3-ActReason",
              "code": "HTEST"
            },
            {
              "system": "http://terminology.hl7.org/CodeSystem/v3-ActReason",
              "code": "TRAIN"
            }
          ],
          "tag": [
            {
              "system": "https://synderai.net/fhir/CodeSystem/tags",
              "code": "synthetic",
              "display": "SYNDERAI Synthetic data"
            }
          ],
          "profile": [
            "http://hl7.eu/fhir/base/StructureDefinition/patient-eu-core"
          ]
        },
        "identifier": [
          {
            "type": {
              "coding": [
                {
                  "code": "PT",
                  "system": "http://terminology.hl7.org/CodeSystem/v2-0203"
                }
              ]
            },
            "system": "http://ec.europa.eu/identifier/eci",
            "value": "6886-506417-1"
          },
          {
            "type": {
              "coding": [
                {
                  "code": "MR",
                  "system": "http://terminology.hl7.org/CodeSystem/v2-0203"
                }
              ]
            },
            "system": "http://local.setting.eu/identifier",
            "value": "2cb21ed6-b617-b1f3-2290-589a710de5ee"
          }
        ],
        "name": [
          {
            "family": "Nohlmans"
          },
          {
            "given": [
              "Maria"
            ]
          },
          {
            "text": "Maria Nohlmans"
          }
        ],
        "address": [
          {
            "line": [
              "Alfons-Wulff-Weg 1"
            ],
            "use": "home",
            "type": "physical",
            "postalCode": "25813",
            "city": "Husum",
            "country": "Germany"
          }
        ],
        "telecom": [
          {
            "system": "phone",
            "value": "+49(0)1911 105501"
          }
        ],
        "extension": [
          {
            "url": "http://hl7.org/fhir/StructureDefinition/patient-nationality",
            "valueCodeableConcept": {
              "coding": [
                {
                  "code": "DE",
                  "system": "http://hl7.org/fhir/ValueSet/country"
                }
              ]
            }
          }
        ],
        "text": {
          "status": "generated",
          "div": "<div xmlns=\"http://www.w3.org/1999/xhtml\"><table class=\"hl7__ips\"><tr><td>Maria Nohlmans</td><td>female</td><td>11-Jun-1947</td></tr></table></div>"
        },
        "gender": "female",
        "birthDate": "1947-06-11"
      }
    },
    {
      "fullUrl": "urn:uuid:cd580a0b-5e00-4365-973e-40382f61d188",
      "resource": {
        "resourceType": "ServiceRequest",
        "id": "cd580a0b-5e00-4365-973e-40382f61d188",
        "meta": {
          "profile": [
            "http://hl7.eu/fhir/laboratory/StructureDefinition/ServiceRequest-eu-lab"
          ]
        },
        "identifier": [
          {
            "system": "http://example.org",
            "value": "218636eb-ff09-489a-8b98-4209c54f2db5"
          }
        ],
        "specimen": [
          {
            "reference": "urn:uuid:75ad4bba-f739-4d16-bbe9-ea188a0f84d8"
          },
          {
            "reference": "urn:uuid:802e8378-7290-46c7-80f3-db6347b5ff23"
          },
          {
            "reference": "urn:uuid:b7b4d6f3-c24b-43bf-8ed2-f6a58ffa6d1c"
          },
          {
            "reference": "urn:uuid:8f325641-c4b1-4dcb-8545-592f5d68d166"
          }
        ],
        "reasonCode": [
          {
            "coding": [
              {
                "code": "401314000",
                "system": "http://snomed.info/sct",
                "display": "Acute non-ST segment elevation myocardial infarction"
              }
            ]
          },
          {
            "coding": [
              {
                "code": "157141000119108",
                "system": "http://snomed.info/sct",
                "display": "Proteinuria due to type 2 diabetes mellitus"
              }
            ]
          },
          {
            "coding": [
              {
                "code": "237602007",
                "system": "http://snomed.info/sct",
                "display": "Metabolic syndrome X"
              }
            ]
          },
          {
            "coding": [
              {
                "code": "90781000119102",
                "system": "http://snomed.info/sct",
                "display": "Microalbuminuria due to type 2 diabetes mellitus"
              }
            ]
          },
          {
            "coding": [
              {
                "code": "127013003",
                "system": "http://snomed.info/sct",
                "display": "Disorder of kidney due to diabetes mellitus"
              }
            ]
          },
          {
            "coding": [
              {
                "code": "59621000",
                "system": "http://snomed.info/sct",
                "display": "Essential hypertension"
              }
            ]
          },
          {
            "coding": [
              {
                "code": "271737000",
                "system": "http://snomed.info/sct",
                "display": "Anemia"
              }
            ]
          },
          {
            "coding": [
              {
                "code": "15777000",
                "system": "http://snomed.info/sct",
                "display": "Prediabetes"
              }
            ]
          }
        ],
        "status": "active",
        "intent": "order",
        "code": {
          "coding": [
            {
              "code": "108252007",
              "system": "http://snomed.info/sct",
              "display": "Laboratory procedure"
            }
          ]
        },
        "subject": {
          "reference": "urn:uuid:13ebdda7-8034-411d-b998-065c7a68044f",
          "display": "Maria Nohlmans"
        },
        "requester": {
          "reference": "urn:uuid:ec810135-5da2-4331-8b7b-0cb15b429e43"
        }
      }
    },
    {
      "fullUrl": "urn:uuid:ec810135-5da2-4331-8b7b-0cb15b429e43",
      "resource": {
        "resourceType": "PractitionerRole",
        "id": "ec810135-5da2-4331-8b7b-0cb15b429e43",
        "meta": {
          "profile": [
            "http://hl7.eu/fhir/base/StructureDefinition/practitionerRole-eu"
          ]
        },
        "text": {
          "status": "generated",
          "div": "<div xmlns=\"http://www.w3.org/1999/xhtml\">Provider Role Id: ec810135-5da2-4331-8b7b-0cb15b429e43</div>"
        },
        "organization": {
          "reference": "urn:uuid:4fbb930a-7bd0-4a90-ad1c-0143a9525a32"
        }
      }
    },
    {
      "fullUrl": "urn:uuid:4fbb930a-7bd0-4a90-ad1c-0143a9525a32",
      "resource": {
        "resourceType": "Organization",
        "id": "4fbb930a-7bd0-4a90-ad1c-0143a9525a32",
        "meta": {
          "profile": [
            "http://hl7.eu/fhir/base/StructureDefinition/organization-eu"
          ]
        },
        "identifier": [
          {
            "assigner": {
              "display": "HL7 Europe"
            },
            "system": "urn:oid:2.16.840.1.113883.2.51.999",
            "value": "1da75f9e-05e3-44d9-afc2-cecb622d1356"
          }
        ],
        "address": [
          {
            "line": [
              "Brinckmannstraße 35"
            ],
            "city": "Husum",
            "postalCode": "25813",
            "country": "Germany"
          }
        ],
        "text": {
          "status": "generated",
          "div": "<div xmlns=\"http://www.w3.org/1999/xhtml\">Provider Organization: Dr. Wolfram Hussels Kieferorthopäde</div>"
        },
        "name": "Dr. Wolfram Hussels Kieferorthopäde"
      }
    },
    {
      "fullUrl": "urn:uuid:75ad4bba-f739-4d16-bbe9-ea188a0f84d8",
      "resource": {
        "resourceType": "Specimen",
        "id": "75ad4bba-f739-4d16-bbe9-ea188a0f84d8",
        "meta": {
          "profile": [
            "http://hl7.eu/fhir/laboratory/StructureDefinition/Specimen-eu-lab"
          ]
        },
        "collection": {
          "collectedDateTime": "2016-11-25"
        },
        "text": {
          "status": "generated",
          "div": "<div xmlns=\"http://www.w3.org/1999/xhtml\"><table class=\"hl7__eu__lab__report\"><tr><th>Specimen</th><th>Collection Date</th></tr><tr><td>Whole blood specimen (specimen)</td><td><span class=\"nb\">25-Nov-2016</span></td></tr></table></div>"
        },
        "type": {
          "coding": [
            {
              "code": "258580003",
              "system": "http://snomed.info/sct",
              "display": "Whole blood specimen (specimen)"
            }
          ]
        }
      }
    },
    {
      "fullUrl": "urn:uuid:802e8378-7290-46c7-80f3-db6347b5ff23",
      "resource": {
        "resourceType": "Specimen",
        "id": "802e8378-7290-46c7-80f3-db6347b5ff23",
        "meta": {
          "profile": [
            "http://hl7.eu/fhir/laboratory/StructureDefinition/Specimen-eu-lab"
          ]
        },
        "collection": {
          "collectedDateTime": "2016-11-25"
        },
        "text": {
          "status": "generated",
          "div": "<div xmlns=\"http://www.w3.org/1999/xhtml\"><table class=\"hl7__eu__lab__report\"><tr><th>Specimen</th><th>Collection Date</th></tr><tr><td>Acellular blood (serum or plasma) specimen</td><td><span class=\"nb\">25-Nov-2016</span></td></tr></table></div>"
        },
        "type": {
          "coding": [
            {
              "code": "122592007",
              "system": "http://snomed.info/sct",
              "display": "Acellular blood (serum or plasma) specimen"
            }
          ]
        }
      }
    },
    {
      "fullUrl": "urn:uuid:b7b4d6f3-c24b-43bf-8ed2-f6a58ffa6d1c",
      "resource": {
        "resourceType": "Specimen",
        "id": "b7b4d6f3-c24b-43bf-8ed2-f6a58ffa6d1c",
        "meta": {
          "profile": [
            "http://hl7.eu/fhir/laboratory/StructureDefinition/Specimen-eu-lab"
          ]
        },
        "collection": {
          "collectedDateTime": "2016-11-25"
        },
        "text": {
          "status": "generated",
          "div": "<div xmlns=\"http://www.w3.org/1999/xhtml\"><table class=\"hl7__eu__lab__report\"><tr><th>Specimen</th><th>Collection Date</th></tr><tr><td>Serum specimen</td><td><span class=\"nb\">25-Nov-2016</span></td></tr></table></div>"
        },
        "type": {
          "coding": [
            {
              "code": "119364003",
              "system": "http://snomed.info/sct",
              "display": "Serum specimen"
            }
          ]
        }
      }
    },
    {
      "fullUrl": "urn:uuid:8f325641-c4b1-4dcb-8545-592f5d68d166",
      "resource": {
        "resourceType": "Specimen",
        "id": "8f325641-c4b1-4dcb-8545-592f5d68d166",
        "meta": {
          "profile": [
            "http://hl7.eu/fhir/laboratory/StructureDefinition/Specimen-eu-lab"
          ]
        },
        "collection": {
          "collectedDateTime": "2016-11-25"
        },
        "text": {
          "status": "generated",
          "div": "<div xmlns=\"http://www.w3.org/1999/xhtml\"><table class=\"hl7__eu__lab__report\"><tr><th>Specimen</th><th>Collection Date</th></tr><tr><td>Urine specimen</td><td><span class=\"nb\">25-Nov-2016</span></td></tr></table></div>"
        },
        "type": {
          "coding": [
            {
              "code": "122575003",
              "system": "http://snomed.info/sct",
              "display": "Urine specimen"
            }
          ]
        }
      }
    },
    {
      "fullUrl": "urn:uuid:a064bc4d-cb89-46c6-81b0-d3bc916a4d8e",
      "resource": {
        "resourceType": "Observation",
        "id": "a064bc4d-cb89-46c6-81b0-d3bc916a4d8e",
        "meta": {
          "profile": [
            "http://hl7.eu/fhir/laboratory/StructureDefinition/Observation-resultslab-eu-lab"
          ]
        },
        "performer": [
          {
            "display": "The Central European Lab"
          }
        ],
        "category": [
          {
            "coding": [
              {
                "system": "http://terminology.hl7.org/CodeSystem/observation-category",
                "code": "laboratory"
              }
            ]
          }
        ],
        "code": {
          "coding": [
            {
              "code": "2339-0",
              "system": "http://loinc.org",
              "display": "Glucose [Mass/volume] in Blood"
            }
          ],
          "text": "Glucose [Mass/volume] in Blood"
        },
        "valueQuantity": {
          "system": "http://unitsofmeasure.org",
          "value": 82.3,
          "unit": "mg/dL",
          "code": "mg/dL"
        },
        "referenceRange": [
          {
            "low": {
              "value": 70,
              "code": "mg/dL",
              "system": "http://unitsofmeasure.org"
            }
          },
          {
            "high": {
              "value": 140,
              "code": "mg/dL",
              "system": "http://unitsofmeasure.org"
            }
          }
        ],
        "text": {
          "status": "generated",
          "div": "<div xmlns=\"http://www.w3.org/1999/xhtml\"><table class=\"hl7__eu__lab__report\"><tr><th>Test</th><th>25-Nov-2016</th><th>Reference&#xA0;Range</th><th>Unit</th></tr><tr><td>Glucose [Mass/volume] in Blood</td><td>82.3</td><td>70 - 140</td><td></td><td>mg/dL</td></tr></table></div>"
        },
        "status": "final",
        "subject": {
          "reference": "urn:uuid:13ebdda7-8034-411d-b998-065c7a68044f",
          "display": "Maria Nohlmans"
        },
        "effectiveDateTime": "2016-11-25T04:35:39Z",
        "specimen": {
          "reference": "urn:uuid:75ad4bba-f739-4d16-bbe9-ea188a0f84d8"
        }
      }
    },
    {
      "fullUrl": "urn:uuid:e01013ab-49a4-42e2-a7aa-393cb3709967",
      "resource": {
        "resourceType": "Observation",
        "id": "e01013ab-49a4-42e2-a7aa-393cb3709967",
        "meta": {
          "profile": [
            "http://hl7.eu/fhir/laboratory/StructureDefinition/Observation-resultslab-eu-lab"
          ]
        },
        "performer": [
          {
            "display": "The Central European Lab"
          }
        ],
        "category": [
          {
            "coding": [
              {
                "system": "http://terminology.hl7.org/CodeSystem/observation-category",
                "code": "laboratory"
              }
            ]
          }
        ],
        "code": {
          "coding": [
            {
              "code": "6299-2",
              "system": "http://loinc.org",
              "display": "Urea nitrogen [Mass/volume] in Blood"
            }
          ],
          "text": "Urea nitrogen [Mass/volume] in Blood"
        },
        "valueQuantity": {
          "system": "http://unitsofmeasure.org",
          "value": 15.5,
          "unit": "mg/dL",
          "code": "mg/dL"
        },
        "referenceRange": [
          {
            "low": {
              "value": 7,
              "code": "mg/dL",
              "system": "http://unitsofmeasure.org"
            }
          },
          {
            "high": {
              "value": 30,
              "code": "mg/dL",
              "system": "http://unitsofmeasure.org"
            }
          }
        ],
        "text": {
          "status": "generated",
          "div": "<div xmlns=\"http://www.w3.org/1999/xhtml\"><table class=\"hl7__eu__lab__report\"><tr><th>Test</th><th>25-Nov-2016</th><th>Reference&#xA0;Range</th><th>Unit</th></tr><tr><td>Urea nitrogen [Mass/volume] in Blood</td><td>15.5</td><td>7 - 30</td><td></td><td>mg/dL</td></tr></table></div>"
        },
        "status": "final",
        "subject": {
          "reference": "urn:uuid:13ebdda7-8034-411d-b998-065c7a68044f",
          "display": "Maria Nohlmans"
        },
        "effectiveDateTime": "2016-11-25T04:35:39Z",
        "specimen": {
          "reference": "urn:uuid:75ad4bba-f739-4d16-bbe9-ea188a0f84d8"
        }
      }
    },
    {
      "fullUrl": "urn:uuid:64f88417-dc00-409e-9fa6-b6717293a102",
      "resource": {
        "resourceType": "Observation",
        "id": "64f88417-dc00-409e-9fa6-b6717293a102",
        "meta": {
          "profile": [
            "http://hl7.eu/fhir/laboratory/StructureDefinition/Observation-resultslab-eu-lab"
          ]
        },
        "performer": [
          {
            "display": "The Central European Lab"
          }
        ],
        "category": [
          {
            "coding": [
              {
                "system": "http://terminology.hl7.org/CodeSystem/observation-category",
                "code": "laboratory"
              }
            ]
          }
        ],
        "code": {
          "coding": [
            {
              "code": "38483-4",
              "system": "http://loinc.org",
              "display": "Creatinine [Mass/volume] in Blood"
            }
          ],
          "text": "Creatinine [Mass/volume] in Blood"
        },
        "valueQuantity": {
          "system": "http://unitsofmeasure.org",
          "value": 2.6,
          "unit": "mg/dL",
          "code": "mg/dL"
        },
        "referenceRange": [
          {
            "low": {
              "value": 0.5,
              "code": "mg/dL",
              "system": "http://unitsofmeasure.org"
            }
          },
          {
            "high": {
              "value": 1.3,
              "code": "mg/dL",
              "system": "http://unitsofmeasure.org"
            }
          }
        ],
        "interpretation": [
          {
            "coding": [
              {
                "code": "H",
                "system": "http://terminology.hl7.org/CodeSystem/v3-ObservationInterpretation",
                "display": "High"
              }
            ]
          }
        ],
        "text": {
          "status": "generated",
          "div": "<div xmlns=\"http://www.w3.org/1999/xhtml\"><table class=\"hl7__eu__lab__report\"><tr><th>Test</th><th>25-Nov-2016</th><th>Reference&#xA0;Range</th><th>Unit</th></tr><tr><td>Creatinine [Mass/volume] in Blood</td><td>2.6</td><td>0.5 - 1.3</td><td>H</td><td>mg/dL</td></tr></table></div>"
        },
        "status": "final",
        "subject": {
          "reference": "urn:uuid:13ebdda7-8034-411d-b998-065c7a68044f",
          "display": "Maria Nohlmans"
        },
        "effectiveDateTime": "2016-11-25T04:35:39Z",
        "specimen": {
          "reference": "urn:uuid:75ad4bba-f739-4d16-bbe9-ea188a0f84d8"
        }
      }
    },
    {
      "fullUrl": "urn:uuid:cc8f1a3c-8657-4486-adba-727823d77ca2",
      "resource": {
        "resourceType": "Observation",
        "id": "cc8f1a3c-8657-4486-adba-727823d77ca2",
        "meta": {
          "profile": [
            "http://hl7.eu/fhir/laboratory/StructureDefinition/Observation-resultslab-eu-lab"
          ]
        },
        "performer": [
          {
            "display": "The Central European Lab"
          }
        ],
        "category": [
          {
            "coding": [
              {
                "system": "http://terminology.hl7.org/CodeSystem/observation-category",
                "code": "laboratory"
              }
            ]
          }
        ],
        "code": {
          "coding": [
            {
              "code": "49765-1",
              "system": "http://loinc.org",
              "display": "Calcium [Mass/volume] in Blood"
            }
          ],
          "text": "Calcium [Mass/volume] in Blood"
        },
        "valueQuantity": {
          "system": "http://unitsofmeasure.org",
          "value": 9.2,
          "unit": "mg/dL",
          "code": "mg/dL"
        },
        "referenceRange": [
          {
            "low": {
              "value": 8.6,
              "code": "mg/dL",
              "system": "http://unitsofmeasure.org"
            }
          },
          {
            "high": {
              "value": 10.2,
              "code": "mg/dL",
              "system": "http://unitsofmeasure.org"
            }
          }
        ],
        "text": {
          "status": "generated",
          "div": "<div xmlns=\"http://www.w3.org/1999/xhtml\"><table class=\"hl7__eu__lab__report\"><tr><th>Test</th><th>25-Nov-2016</th><th>Reference&#xA0;Range</th><th>Unit</th></tr><tr><td>Calcium [Mass/volume] in Blood</td><td>9.2</td><td>8.6 - 10.2</td><td></td><td>mg/dL</td></tr></table></div>"
        },
        "status": "final",
        "subject": {
          "reference": "urn:uuid:13ebdda7-8034-411d-b998-065c7a68044f",
          "display": "Maria Nohlmans"
        },
        "effectiveDateTime": "2016-11-25T04:35:39Z",
        "specimen": {
          "reference": "urn:uuid:75ad4bba-f739-4d16-bbe9-ea188a0f84d8"
        }
      }
    },
    {
      "fullUrl": "urn:uuid:94ff3981-827c-4983-93b9-996f9a45d2bd",
      "resource": {
        "resourceType": "Observation",
        "id": "94ff3981-827c-4983-93b9-996f9a45d2bd",
        "meta": {
          "profile": [
            "http://hl7.eu/fhir/laboratory/StructureDefinition/Observation-resultslab-eu-lab"
          ]
        },
        "performer": [
          {
            "display": "The Central European Lab"
          }
        ],
        "category": [
          {
            "coding": [
              {
                "system": "http://terminology.hl7.org/CodeSystem/observation-category",
                "code": "laboratory"
              }
            ]
          }
        ],
        "code": {
          "coding": [
            {
              "code": "2947-0",
              "system": "http://loinc.org",
              "display": "Sodium [Moles/volume] in Blood"
            }
          ],
          "text": "Sodium [Moles/volume] in Blood"
        },
        "valueQuantity": {
          "system": "http://unitsofmeasure.org",
          "value": 138.5,
          "unit": "mmol/L",
          "code": "mmol/L"
        },
        "referenceRange": [
          {
            "low": {
              "value": 135,
              "code": "mmol/L",
              "system": "http://unitsofmeasure.org"
            }
          },
          {
            "high": {
              "value": 145,
              "code": "mmol/L",
              "system": "http://unitsofmeasure.org"
            }
          }
        ],
        "text": {
          "status": "generated",
          "div": "<div xmlns=\"http://www.w3.org/1999/xhtml\"><table class=\"hl7__eu__lab__report\"><tr><th>Test</th><th>25-Nov-2016</th><th>Reference&#xA0;Range</th><th>Unit</th></tr><tr><td>Sodium [Moles/volume] in Blood</td><td>138.5</td><td>135 - 145</td><td></td><td>mmol/L</td></tr></table></div>"
        },
        "status": "final",
        "subject": {
          "reference": "urn:uuid:13ebdda7-8034-411d-b998-065c7a68044f",
          "display": "Maria Nohlmans"
        },
        "effectiveDateTime": "2016-11-25T04:35:39Z",
        "specimen": {
          "reference": "urn:uuid:75ad4bba-f739-4d16-bbe9-ea188a0f84d8"
        }
      }
    },
    {
      "fullUrl": "urn:uuid:3fd5a575-e4dd-4938-9437-2214d9d9967a",
      "resource": {
        "resourceType": "Observation",
        "id": "3fd5a575-e4dd-4938-9437-2214d9d9967a",
        "meta": {
          "profile": [
            "http://hl7.eu/fhir/laboratory/StructureDefinition/Observation-resultslab-eu-lab"
          ]
        },
        "performer": [
          {
            "display": "The Central European Lab"
          }
        ],
        "category": [
          {
            "coding": [
              {
                "system": "http://terminology.hl7.org/CodeSystem/observation-category",
                "code": "laboratory"
              }
            ]
          }
        ],
        "code": {
          "coding": [
            {
              "code": "6298-4",
              "system": "http://loinc.org",
              "display": "Potassium [Moles/volume] in Blood"
            }
          ],
          "text": "Potassium [Moles/volume] in Blood"
        },
        "valueQuantity": {
          "system": "http://unitsofmeasure.org",
          "value": 4.5,
          "unit": "mmol/L",
          "code": "mmol/L"
        },
        "referenceRange": [
          {
            "low": {
              "value": 3.5,
              "code": "mmol/L",
              "system": "http://unitsofmeasure.org"
            }
          },
          {
            "high": {
              "value": 5.1,
              "code": "mmol/L",
              "system": "http://unitsofmeasure.org"
            }
          }
        ],
        "text": {
          "status": "generated",
          "div": "<div xmlns=\"http://www.w3.org/1999/xhtml\"><table class=\"hl7__eu__lab__report\"><tr><th>Test</th><th>25-Nov-2016</th><th>Reference&#xA0;Range</th><th>Unit</th></tr><tr><td>Potassium [Moles/volume] in Blood</td><td>4.5</td><td>3.5 - 5.1</td><td></td><td>mmol/L</td></tr></table></div>"
        },
        "status": "final",
        "subject": {
          "reference": "urn:uuid:13ebdda7-8034-411d-b998-065c7a68044f",
          "display": "Maria Nohlmans"
        },
        "effectiveDateTime": "2016-11-25T04:35:39Z",
        "specimen": {
          "reference": "urn:uuid:75ad4bba-f739-4d16-bbe9-ea188a0f84d8"
        }
      }
    },
    {
      "fullUrl": "urn:uuid:151177b9-5eb4-4857-88df-550e6536a3ef",
      "resource": {
        "resourceType": "Observation",
        "id": "151177b9-5eb4-4857-88df-550e6536a3ef",
        "meta": {
          "profile": [
            "http://hl7.eu/fhir/laboratory/StructureDefinition/Observation-resultslab-eu-lab"
          ]
        },
        "performer": [
          {
            "display": "The Central European Lab"
          }
        ],
        "category": [
          {
            "coding": [
              {
                "system": "http://terminology.hl7.org/CodeSystem/observation-category",
                "code": "laboratory"
              }
            ]
          }
        ],
        "code": {
          "coding": [
            {
              "code": "2069-3",
              "system": "http://loinc.org",
              "display": "Chloride [Moles/volume] in Blood"
            }
          ],
          "text": "Chloride [Moles/volume] in Blood"
        },
        "valueQuantity": {
          "system": "http://unitsofmeasure.org",
          "value": 101.1,
          "unit": "mmol/L",
          "code": "mmol/L"
        },
        "referenceRange": [
          {
            "low": {
              "value": 98,
              "code": "mmol/L",
              "system": "http://unitsofmeasure.org"
            }
          },
          {
            "high": {
              "value": 114,
              "code": "mmol/L",
              "system": "http://unitsofmeasure.org"
            }
          }
        ],
        "text": {
          "status": "generated",
          "div": "<div xmlns=\"http://www.w3.org/1999/xhtml\"><table class=\"hl7__eu__lab__report\"><tr><th>Test</th><th>25-Nov-2016</th><th>Reference&#xA0;Range</th><th>Unit</th></tr><tr><td>Chloride [Moles/volume] in Blood</td><td>101.1</td><td>98 - 114</td><td></td><td>mmol/L</td></tr></table></div>"
        },
        "status": "final",
        "subject": {
          "reference": "urn:uuid:13ebdda7-8034-411d-b998-065c7a68044f",
          "display": "Maria Nohlmans"
        },
        "effectiveDateTime": "2016-11-25T04:35:39Z",
        "specimen": {
          "reference": "urn:uuid:75ad4bba-f739-4d16-bbe9-ea188a0f84d8"
        }
      }
    },
    {
      "fullUrl": "urn:uuid:d22630e4-9d95-4437-93e2-116dce3d7e12",
      "resource": {
        "resourceType": "Observation",
        "id": "d22630e4-9d95-4437-93e2-116dce3d7e12",
        "meta": {
          "profile": [
            "http://hl7.eu/fhir/laboratory/StructureDefinition/Observation-resultslab-eu-lab"
          ]
        },
        "performer": [
          {
            "display": "The Central European Lab"
          }
        ],
        "category": [
          {
            "coding": [
              {
                "system": "http://terminology.hl7.org/CodeSystem/observation-category",
                "code": "laboratory"
              }
            ]
          }
        ],
        "code": {
          "coding": [
            {
              "code": "20565-8",
              "system": "http://loinc.org",
              "display": "Carbon dioxide, total [Moles/volume] in Blood"
            }
          ],
          "text": "Carbon dioxide, total [Moles/volume] in Blood"
        },
        "valueQuantity": {
          "system": "http://unitsofmeasure.org",
          "value": 21.5,
          "unit": "mmol/L",
          "code": "mmol/L"
        },
        "referenceRange": [
          {
            "low": {
              "value": 22,
              "code": "mmol/L",
              "system": "http://unitsofmeasure.org"
            }
          },
          {
            "high": {
              "value": 32,
              "code": "mmol/L",
              "system": "http://unitsofmeasure.org"
            }
          }
        ],
        "interpretation": [
          {
            "coding": [
              {
                "code": "L",
                "system": "http://terminology.hl7.org/CodeSystem/v3-ObservationInterpretation",
                "display": "Low"
              }
            ]
          }
        ],
        "text": {
          "status": "generated",
          "div": "<div xmlns=\"http://www.w3.org/1999/xhtml\"><table class=\"hl7__eu__lab__report\"><tr><th>Test</th><th>25-Nov-2016</th><th>Reference&#xA0;Range</th><th>Unit</th></tr><tr><td>Carbon dioxide, total [Moles/volume] in Blood</td><td>21.5</td><td>22 - 32</td><td>L</td><td>mmol/L</td></tr></table></div>"
        },
        "status": "final",
        "subject": {
          "reference": "urn:uuid:13ebdda7-8034-411d-b998-065c7a68044f",
          "display": "Maria Nohlmans"
        },
        "effectiveDateTime": "2016-11-25T04:35:39Z",
        "specimen": {
          "reference": "urn:uuid:75ad4bba-f739-4d16-bbe9-ea188a0f84d8"
        }
      }
    },
    {
      "fullUrl": "urn:uuid:4a167bf4-d3f8-4b4f-9afa-ae85ce38d817",
      "resource": {
        "resourceType": "Observation",
        "id": "4a167bf4-d3f8-4b4f-9afa-ae85ce38d817",
        "meta": {
          "profile": [
            "http://hl7.eu/fhir/laboratory/StructureDefinition/Observation-resultslab-eu-lab"
          ]
        },
        "performer": [
          {
            "display": "The Central European Lab"
          }
        ],
        "category": [
          {
            "coding": [
              {
                "system": "http://terminology.hl7.org/CodeSystem/observation-category",
                "code": "laboratory"
              }
            ]
          }
        ],
        "code": {
          "coding": [
            {
              "code": "2885-2",
              "system": "http://loinc.org",
              "display": "Protein [Mass/volume] in Serum or Plasma"
            }
          ],
          "text": "Protein [Mass/volume] in Serum or Plasma"
        },
        "valueQuantity": {
          "system": "http://unitsofmeasure.org",
          "value": 7.1,
          "unit": "g/dL",
          "code": "g/dL"
        },
        "referenceRange": [
          {
            "low": {
              "value": 6,
              "code": "g/dL",
              "system": "http://unitsofmeasure.org"
            }
          },
          {
            "high": {
              "value": 8.3,
              "code": "g/dL",
              "system": "http://unitsofmeasure.org"
            }
          }
        ],
        "text": {
          "status": "generated",
          "div": "<div xmlns=\"http://www.w3.org/1999/xhtml\"><table class=\"hl7__eu__lab__report\"><tr><th>Test</th><th>25-Nov-2016</th><th>Reference&#xA0;Range</th><th>Unit</th></tr><tr><td>Protein [Mass/volume] in Serum or Plasma</td><td>7.1</td><td>6 - 8.3</td><td></td><td>g/dL</td></tr></table></div>"
        },
        "status": "final",
        "subject": {
          "reference": "urn:uuid:13ebdda7-8034-411d-b998-065c7a68044f",
          "display": "Maria Nohlmans"
        },
        "effectiveDateTime": "2016-11-25T04:35:39Z",
        "specimen": {
          "reference": "urn:uuid:802e8378-7290-46c7-80f3-db6347b5ff23"
        }
      }
    },
    {
      "fullUrl": "urn:uuid:30987b42-faff-4445-81d1-893572d706a7",
      "resource": {
        "resourceType": "Observation",
        "id": "30987b42-faff-4445-81d1-893572d706a7",
        "meta": {
          "profile": [
            "http://hl7.eu/fhir/laboratory/StructureDefinition/Observation-resultslab-eu-lab"
          ]
        },
        "performer": [
          {
            "display": "The Central European Lab"
          }
        ],
        "category": [
          {
            "coding": [
              {
                "system": "http://terminology.hl7.org/CodeSystem/observation-category",
                "code": "laboratory"
              }
            ]
          }
        ],
        "code": {
          "coding": [
            {
              "code": "1751-7",
              "system": "http://loinc.org",
              "display": "Albumin [Mass/volume] in Serum or Plasma"
            }
          ],
          "text": "Albumin [Mass/volume] in Serum or Plasma"
        },
        "valueQuantity": {
          "system": "http://unitsofmeasure.org",
          "value": 4.4,
          "unit": "g/dL",
          "code": "g/dL"
        },
        "referenceRange": [
          {
            "low": {
              "value": 3.5,
              "code": "g/dL",
              "system": "http://unitsofmeasure.org"
            }
          },
          {
            "high": {
              "value": 5.5,
              "code": "g/dL",
              "system": "http://unitsofmeasure.org"
            }
          }
        ],
        "text": {
          "status": "generated",
          "div": "<div xmlns=\"http://www.w3.org/1999/xhtml\"><table class=\"hl7__eu__lab__report\"><tr><th>Test</th><th>25-Nov-2016</th><th>Reference&#xA0;Range</th><th>Unit</th></tr><tr><td>Albumin [Mass/volume] in Serum or Plasma</td><td>4.4</td><td>3.5 - 5.5</td><td></td><td>g/dL</td></tr></table></div>"
        },
        "status": "final",
        "subject": {
          "reference": "urn:uuid:13ebdda7-8034-411d-b998-065c7a68044f",
          "display": "Maria Nohlmans"
        },
        "effectiveDateTime": "2016-11-25T04:35:39Z",
        "specimen": {
          "reference": "urn:uuid:802e8378-7290-46c7-80f3-db6347b5ff23"
        }
      }
    },
    {
      "fullUrl": "urn:uuid:b5adae08-23a8-47a1-b363-2836695b7a67",
      "resource": {
        "resourceType": "Observation",
        "id": "b5adae08-23a8-47a1-b363-2836695b7a67",
        "meta": {
          "profile": [
            "http://hl7.eu/fhir/laboratory/StructureDefinition/Observation-resultslab-eu-lab"
          ]
        },
        "performer": [
          {
            "display": "The Central European Lab"
          }
        ],
        "category": [
          {
            "coding": [
              {
                "system": "http://terminology.hl7.org/CodeSystem/observation-category",
                "code": "laboratory"
              }
            ]
          }
        ],
        "code": {
          "coding": [
            {
              "code": "10834-0",
              "system": "http://loinc.org",
              "display": "Globulin [Mass/volume] in Serum by calculation"
            }
          ],
          "text": "Globulin [Mass/volume] in Serum by calculation"
        },
        "valueQuantity": {
          "system": "http://unitsofmeasure.org",
          "value": 2.9,
          "unit": "g/L",
          "code": "g/L"
        },
        "referenceRange": [
          {
            "low": {
              "value": 2,
              "code": "g/L",
              "system": "http://unitsofmeasure.org"
            }
          },
          {
            "high": {
              "value": 3.5,
              "code": "g/L",
              "system": "http://unitsofmeasure.org"
            }
          }
        ],
        "text": {
          "status": "generated",
          "div": "<div xmlns=\"http://www.w3.org/1999/xhtml\"><table class=\"hl7__eu__lab__report\"><tr><th>Test</th><th>25-Nov-2016</th><th>Reference&#xA0;Range</th><th>Unit</th></tr><tr><td>Globulin [Mass/volume] in Serum by calculation</td><td>2.9</td><td>2 - 3.5</td><td></td><td>g/L</td></tr></table></div>"
        },
        "status": "final",
        "subject": {
          "reference": "urn:uuid:13ebdda7-8034-411d-b998-065c7a68044f",
          "display": "Maria Nohlmans"
        },
        "effectiveDateTime": "2016-11-25T04:35:39Z",
        "specimen": {
          "reference": "urn:uuid:b7b4d6f3-c24b-43bf-8ed2-f6a58ffa6d1c"
        }
      }
    },
    {
      "fullUrl": "urn:uuid:a18d164d-d4d8-4f30-8ccf-35d9ad7a3297",
      "resource": {
        "resourceType": "Observation",
        "id": "a18d164d-d4d8-4f30-8ccf-35d9ad7a3297",
        "meta": {
          "profile": [
            "http://hl7.eu/fhir/laboratory/StructureDefinition/Observation-resultslab-eu-lab"
          ]
        },
        "performer": [
          {
            "display": "The Central European Lab"
          }
        ],
        "category": [
          {
            "coding": [
              {
                "system": "http://terminology.hl7.org/CodeSystem/observation-category",
                "code": "laboratory"
              }
            ]
          }
        ],
        "code": {
          "coding": [
            {
              "code": "1975-2",
              "system": "http://loinc.org",
              "display": "Bilirubin.total [Mass/volume] in Serum or Plasma"
            }
          ],
          "text": "Bilirubin.total [Mass/volume] in Serum or Plasma"
        },
        "valueQuantity": {
          "system": "http://unitsofmeasure.org",
          "value": 0.4,
          "unit": "mg/dL",
          "code": "mg/dL"
        },
        "referenceRange": [
          {
            "low": {
              "value": 0.3,
              "code": "mg/dL",
              "system": "http://unitsofmeasure.org"
            }
          },
          {
            "high": {
              "value": 1.2,
              "code": "mg/dL",
              "system": "http://unitsofmeasure.org"
            }
          }
        ],
        "text": {
          "status": "generated",
          "div": "<div xmlns=\"http://www.w3.org/1999/xhtml\"><table class=\"hl7__eu__lab__report\"><tr><th>Test</th><th>25-Nov-2016</th><th>Reference&#xA0;Range</th><th>Unit</th></tr><tr><td>Bilirubin.total [Mass/volume] in Serum or Plasma</td><td>0.4</td><td>0.3 - 1.2</td><td></td><td>mg/dL</td></tr></table></div>"
        },
        "status": "final",
        "subject": {
          "reference": "urn:uuid:13ebdda7-8034-411d-b998-065c7a68044f",
          "display": "Maria Nohlmans"
        },
        "effectiveDateTime": "2016-11-25T04:35:39Z",
        "specimen": {
          "reference": "urn:uuid:802e8378-7290-46c7-80f3-db6347b5ff23"
        }
      }
    },
    {
      "fullUrl": "urn:uuid:a6783317-a969-4669-8a11-df3bca758e24",
      "resource": {
        "resourceType": "Observation",
        "id": "a6783317-a969-4669-8a11-df3bca758e24",
        "meta": {
          "profile": [
            "http://hl7.eu/fhir/laboratory/StructureDefinition/Observation-resultslab-eu-lab"
          ]
        },
        "performer": [
          {
            "display": "The Central European Lab"
          }
        ],
        "category": [
          {
            "coding": [
              {
                "system": "http://terminology.hl7.org/CodeSystem/observation-category",
                "code": "laboratory"
              }
            ]
          }
        ],
        "code": {
          "coding": [
            {
              "code": "6768-6",
              "system": "http://loinc.org",
              "display": "Alkaline phosphatase [Enzymatic activity/volume] in Serum or Plasma"
            }
          ],
          "text": "Alkaline phosphatase [Enzymatic activity/volume] in Serum or Plasma"
        },
        "valueQuantity": {
          "system": "http://unitsofmeasure.org",
          "value": 99.3,
          "unit": "U/L",
          "code": "U/L"
        },
        "referenceRange": [
          {
            "low": {
              "value": 44,
              "code": "U/L",
              "system": "http://unitsofmeasure.org"
            }
          },
          {
            "high": {
              "value": 142,
              "code": "U/L",
              "system": "http://unitsofmeasure.org"
            }
          }
        ],
        "text": {
          "status": "generated",
          "div": "<div xmlns=\"http://www.w3.org/1999/xhtml\"><table class=\"hl7__eu__lab__report\"><tr><th>Test</th><th>25-Nov-2016</th><th>Reference&#xA0;Range</th><th>Unit</th></tr><tr><td>Alkaline phosphatase [Enzymatic activity/volume] in Serum or Plasma</td><td>99.3</td><td>44 - 142</td><td></td><td>U/L</td></tr></table></div>"
        },
        "status": "final",
        "subject": {
          "reference": "urn:uuid:13ebdda7-8034-411d-b998-065c7a68044f",
          "display": "Maria Nohlmans"
        },
        "effectiveDateTime": "2016-11-25T04:35:39Z",
        "specimen": {
          "reference": "urn:uuid:802e8378-7290-46c7-80f3-db6347b5ff23"
        }
      }
    },
    {
      "fullUrl": "urn:uuid:5c3e3208-5a5b-4db6-92b2-814212172819",
      "resource": {
        "resourceType": "Observation",
        "id": "5c3e3208-5a5b-4db6-92b2-814212172819",
        "meta": {
          "profile": [
            "http://hl7.eu/fhir/laboratory/StructureDefinition/Observation-resultslab-eu-lab"
          ]
        },
        "performer": [
          {
            "display": "The Central European Lab"
          }
        ],
        "category": [
          {
            "coding": [
              {
                "system": "http://terminology.hl7.org/CodeSystem/observation-category",
                "code": "laboratory"
              }
            ]
          }
        ],
        "code": {
          "coding": [
            {
              "code": "1742-6",
              "system": "http://loinc.org",
              "display": "Alanine aminotransferase [Enzymatic activity/volume] in Serum or Plasma"
            }
          ],
          "text": "Alanine aminotransferase [Enzymatic activity/volume] in Serum or Plasma"
        },
        "valueQuantity": {
          "system": "http://unitsofmeasure.org",
          "value": 46.4,
          "unit": "U/L",
          "code": "U/L"
        },
        "referenceRange": [
          {
            "low": {
              "value": 7,
              "code": "U/L",
              "system": "http://unitsofmeasure.org"
            }
          },
          {
            "high": {
              "value": 40,
              "code": "U/L",
              "system": "http://unitsofmeasure.org"
            }
          }
        ],
        "interpretation": [
          {
            "coding": [
              {
                "code": "H",
                "system": "http://terminology.hl7.org/CodeSystem/v3-ObservationInterpretation",
                "display": "High"
              }
            ]
          }
        ],
        "text": {
          "status": "generated",
          "div": "<div xmlns=\"http://www.w3.org/1999/xhtml\"><table class=\"hl7__eu__lab__report\"><tr><th>Test</th><th>25-Nov-2016</th><th>Reference&#xA0;Range</th><th>Unit</th></tr><tr><td>Alanine aminotransferase [Enzymatic activity/volume] in Serum or Plasma</td><td>46.4</td><td>7 - 40</td><td>H</td><td>U/L</td></tr></table></div>"
        },
        "status": "final",
        "subject": {
          "reference": "urn:uuid:13ebdda7-8034-411d-b998-065c7a68044f",
          "display": "Maria Nohlmans"
        },
        "effectiveDateTime": "2016-11-25T04:35:39Z",
        "specimen": {
          "reference": "urn:uuid:802e8378-7290-46c7-80f3-db6347b5ff23"
        }
      }
    },
    {
      "fullUrl": "urn:uuid:b445e203-2755-4d10-9a0f-6a3699000473",
      "resource": {
        "resourceType": "Observation",
        "id": "b445e203-2755-4d10-9a0f-6a3699000473",
        "meta": {
          "profile": [
            "http://hl7.eu/fhir/laboratory/StructureDefinition/Observation-resultslab-eu-lab"
          ]
        },
        "performer": [
          {
            "display": "The Central European Lab"
          }
        ],
        "category": [
          {
            "coding": [
              {
                "system": "http://terminology.hl7.org/CodeSystem/observation-category",
                "code": "laboratory"
              }
            ]
          }
        ],
        "code": {
          "coding": [
            {
              "code": "1920-8",
              "system": "http://loinc.org",
              "display": "Aspartate aminotransferase [Enzymatic activity/volume] in Serum or Plasma"
            }
          ],
          "text": "Aspartate aminotransferase [Enzymatic activity/volume] in Serum or Plasma"
        },
        "valueQuantity": {
          "system": "http://unitsofmeasure.org",
          "value": 11.8,
          "unit": "U/L",
          "code": "U/L"
        },
        "referenceRange": [
          {
            "low": {
              "value": 10,
              "code": "U/L",
              "system": "http://unitsofmeasure.org"
            }
          },
          {
            "high": {
              "value": 40,
              "code": "U/L",
              "system": "http://unitsofmeasure.org"
            }
          }
        ],
        "text": {
          "status": "generated",
          "div": "<div xmlns=\"http://www.w3.org/1999/xhtml\"><table class=\"hl7__eu__lab__report\"><tr><th>Test</th><th>25-Nov-2016</th><th>Reference&#xA0;Range</th><th>Unit</th></tr><tr><td>Aspartate aminotransferase [Enzymatic activity/volume] in Serum or Plasma</td><td>11.8</td><td>10 - 40</td><td></td><td>U/L</td></tr></table></div>"
        },
        "status": "final",
        "subject": {
          "reference": "urn:uuid:13ebdda7-8034-411d-b998-065c7a68044f",
          "display": "Maria Nohlmans"
        },
        "effectiveDateTime": "2016-11-25T04:35:39Z",
        "specimen": {
          "reference": "urn:uuid:802e8378-7290-46c7-80f3-db6347b5ff23"
        }
      }
    },
    {
      "fullUrl": "urn:uuid:d074d65a-6c3d-4011-ba07-97e8c3f1aaa6",
      "resource": {
        "resourceType": "Observation",
        "id": "d074d65a-6c3d-4011-ba07-97e8c3f1aaa6",
        "meta": {
          "profile": [
            "http://hl7.eu/fhir/laboratory/StructureDefinition/Observation-resultslab-eu-lab"
          ]
        },
        "performer": [
          {
            "display": "The Central European Lab"
          }
        ],
        "category": [
          {
            "coding": [
              {
                "system": "http://terminology.hl7.org/CodeSystem/observation-category",
                "code": "laboratory"
              }
            ]
          }
        ],
        "code": {
          "coding": [
            {
              "code": "5767-9",
              "system": "http://loinc.org",
              "display": "Appearance of Urine"
            }
          ],
          "text": "Appearance of Urine"
        },
        "text": {
          "status": "generated",
          "div": "<div xmlns=\"http://www.w3.org/1999/xhtml\"><table class=\"hl7__eu__lab__report\"><tr><th>Test</th><th>25-Nov-2016</th><th>Reference&#xA0;Range</th><th>Unit</th></tr><tr><td>Appearance of Urine</td></tr></table></div>"
        },
        "status": "final",
        "subject": {
          "reference": "urn:uuid:13ebdda7-8034-411d-b998-065c7a68044f",
          "display": "Maria Nohlmans"
        },
        "effectiveDateTime": "2016-11-25T04:35:39Z",
        "specimen": {
          "reference": "urn:uuid:8f325641-c4b1-4dcb-8545-592f5d68d166"
        }
      }
    },
    {
      "fullUrl": "urn:uuid:73a58f0f-3cb1-476a-a017-14b863484e83",
      "resource": {
        "resourceType": "Observation",
        "id": "73a58f0f-3cb1-476a-a017-14b863484e83",
        "meta": {
          "profile": [
            "http://hl7.eu/fhir/laboratory/StructureDefinition/Observation-resultslab-eu-lab"
          ]
        },
        "performer": [
          {
            "display": "The Central European Lab"
          }
        ],
        "category": [
          {
            "coding": [
              {
                "system": "http://terminology.hl7.org/CodeSystem/observation-category",
                "code": "laboratory"
              }
            ]
          }
        ],
        "code": {
          "coding": [
            {
              "code": "34533-0",
              "system": "http://loinc.org",
              "display": "Odor of Urine"
            }
          ],
          "text": "Odor of Urine"
        },
        "text": {
          "status": "generated",
          "div": "<div xmlns=\"http://www.w3.org/1999/xhtml\"><table class=\"hl7__eu__lab__report\"><tr><th>Test</th><th>25-Nov-2016</th><th>Reference&#xA0;Range</th><th>Unit</th></tr><tr><td>Odor of Urine</td></tr></table></div>"
        },
        "status": "final",
        "subject": {
          "reference": "urn:uuid:13ebdda7-8034-411d-b998-065c7a68044f",
          "display": "Maria Nohlmans"
        },
        "effectiveDateTime": "2016-11-25T04:35:39Z",
        "specimen": {
          "reference": "urn:uuid:8f325641-c4b1-4dcb-8545-592f5d68d166"
        }
      }
    },
    {
      "fullUrl": "urn:uuid:8ee31a77-d61d-42f1-8c4a-12107b0f97e4",
      "resource": {
        "resourceType": "Observation",
        "id": "8ee31a77-d61d-42f1-8c4a-12107b0f97e4",
        "meta": {
          "profile": [
            "http://hl7.eu/fhir/laboratory/StructureDefinition/Observation-resultslab-eu-lab"
          ]
        },
        "performer": [
          {
            "display": "The Central European Lab"
          }
        ],
        "category": [
          {
            "coding": [
              {
                "system": "http://terminology.hl7.org/CodeSystem/observation-category",
                "code": "laboratory"
              }
            ]
          }
        ],
        "code": {
          "coding": [
            {
              "code": "32167-9",
              "system": "http://loinc.org",
              "display": "Clarity of Urine"
            }
          ],
          "text": "Clarity of Urine"
        },
        "text": {
          "status": "generated",
          "div": "<div xmlns=\"http://www.w3.org/1999/xhtml\"><table class=\"hl7__eu__lab__report\"><tr><th>Test</th><th>25-Nov-2016</th><th>Reference&#xA0;Range</th><th>Unit</th></tr><tr><td>Clarity of Urine</td></tr></table></div>"
        },
        "status": "final",
        "subject": {
          "reference": "urn:uuid:13ebdda7-8034-411d-b998-065c7a68044f",
          "display": "Maria Nohlmans"
        },
        "effectiveDateTime": "2016-11-25T04:35:39Z",
        "specimen": {
          "reference": "urn:uuid:8f325641-c4b1-4dcb-8545-592f5d68d166"
        }
      }
    },
    {
      "fullUrl": "urn:uuid:0190a2e1-c4ff-4a20-8cc6-de857d3cde38",
      "resource": {
        "resourceType": "Observation",
        "id": "0190a2e1-c4ff-4a20-8cc6-de857d3cde38",
        "meta": {
          "profile": [
            "http://hl7.eu/fhir/laboratory/StructureDefinition/Observation-resultslab-eu-lab"
          ]
        },
        "performer": [
          {
            "display": "The Central European Lab"
          }
        ],
        "category": [
          {
            "coding": [
              {
                "system": "http://terminology.hl7.org/CodeSystem/observation-category",
                "code": "laboratory"
              }
            ]
          }
        ],
        "code": {
          "coding": [
            {
              "code": "5778-6",
              "system": "http://loinc.org",
              "display": "Color of Urine"
            }
          ],
          "text": "Color of Urine"
        },
        "text": {
          "status": "generated",
          "div": "<div xmlns=\"http://www.w3.org/1999/xhtml\"><table class=\"hl7__eu__lab__report\"><tr><th>Test</th><th>25-Nov-2016</th><th>Reference&#xA0;Range</th><th>Unit</th></tr><tr><td>Color of Urine</td></tr></table></div>"
        },
        "status": "final",
        "subject": {
          "reference": "urn:uuid:13ebdda7-8034-411d-b998-065c7a68044f",
          "display": "Maria Nohlmans"
        },
        "effectiveDateTime": "2016-11-25T04:35:39Z",
        "specimen": {
          "reference": "urn:uuid:8f325641-c4b1-4dcb-8545-592f5d68d166"
        }
      }
    },
    {
      "fullUrl": "urn:uuid:29528719-89ab-4e80-a29b-fcaea2834656",
      "resource": {
        "resourceType": "Observation",
        "id": "29528719-89ab-4e80-a29b-fcaea2834656",
        "meta": {
          "profile": [
            "http://hl7.eu/fhir/laboratory/StructureDefinition/Observation-resultslab-eu-lab"
          ]
        },
        "performer": [
          {
            "display": "The Central European Lab"
          }
        ],
        "category": [
          {
            "coding": [
              {
                "system": "http://terminology.hl7.org/CodeSystem/observation-category",
                "code": "laboratory"
              }
            ]
          }
        ],
        "code": {
          "coding": [
            {
              "code": "5792-7",
              "system": "http://loinc.org",
              "display": "Glucose [Mass/volume] in Urine by Test strip"
            }
          ],
          "text": "Glucose [Mass/volume] in Urine by Test strip"
        },
        "valueQuantity": {
          "system": "http://unitsofmeasure.org",
          "value": 0.9,
          "unit": "mg/dL",
          "code": "mg/dL"
        },
        "referenceRange": [
          {
            "low": {
              "value": 0.8,
              "code": "mg/dL",
              "system": "http://unitsofmeasure.org"
            }
          },
          {
            "high": {
              "value": 0,
              "code": "mg/dL",
              "system": "http://unitsofmeasure.org"
            }
          }
        ],
        "interpretation": [
          {
            "coding": [
              {
                "code": "H",
                "system": "http://terminology.hl7.org/CodeSystem/v3-ObservationInterpretation",
                "display": "High"
              }
            ]
          }
        ],
        "text": {
          "status": "generated",
          "div": "<div xmlns=\"http://www.w3.org/1999/xhtml\"><table class=\"hl7__eu__lab__report\"><tr><th>Test</th><th>25-Nov-2016</th><th>Reference&#xA0;Range</th><th>Unit</th></tr><tr><td>Glucose [Mass/volume] in Urine by Test strip</td><td>0.9</td><td>0.8 - 0</td><td>H</td><td>mg/dL</td></tr></table></div>"
        },
        "status": "final",
        "subject": {
          "reference": "urn:uuid:13ebdda7-8034-411d-b998-065c7a68044f",
          "display": "Maria Nohlmans"
        },
        "effectiveDateTime": "2016-11-25T04:35:39Z",
        "specimen": {
          "reference": "urn:uuid:8f325641-c4b1-4dcb-8545-592f5d68d166"
        }
      }
    },
    {
      "fullUrl": "urn:uuid:e874aa44-89e3-4c5e-97a4-c6607f9d674f",
      "resource": {
        "resourceType": "Observation",
        "id": "e874aa44-89e3-4c5e-97a4-c6607f9d674f",
        "meta": {
          "profile": [
            "http://hl7.eu/fhir/laboratory/StructureDefinition/Observation-resultslab-eu-lab"
          ]
        },
        "performer": [
          {
            "display": "The Central European Lab"
          }
        ],
        "category": [
          {
            "coding": [
              {
                "system": "http://terminology.hl7.org/CodeSystem/observation-category",
                "code": "laboratory"
              }
            ]
          }
        ],
        "code": {
          "coding": [
            {
              "code": "25428-4",
              "system": "http://loinc.org",
              "display": "Glucose [Presence] in Urine by Test strip"
            }
          ],
          "text": "Glucose [Presence] in Urine by Test strip"
        },
        "text": {
          "status": "generated",
          "div": "<div xmlns=\"http://www.w3.org/1999/xhtml\"><table class=\"hl7__eu__lab__report\"><tr><th>Test</th><th>25-Nov-2016</th><th>Reference&#xA0;Range</th><th>Unit</th></tr><tr><td>Glucose [Presence] in Urine by Test strip</td></tr></table></div>"
        },
        "status": "final",
        "subject": {
          "reference": "urn:uuid:13ebdda7-8034-411d-b998-065c7a68044f",
          "display": "Maria Nohlmans"
        },
        "effectiveDateTime": "2016-11-25T04:35:39Z",
        "specimen": {
          "reference": "urn:uuid:8f325641-c4b1-4dcb-8545-592f5d68d166"
        }
      }
    },
    {
      "fullUrl": "urn:uuid:87543bf4-1129-418b-a2b5-1bce0cd34152",
      "resource": {
        "resourceType": "Observation",
        "id": "87543bf4-1129-418b-a2b5-1bce0cd34152",
        "meta": {
          "profile": [
            "http://hl7.eu/fhir/laboratory/StructureDefinition/Observation-resultslab-eu-lab"
          ]
        },
        "performer": [
          {
            "display": "The Central European Lab"
          }
        ],
        "category": [
          {
            "coding": [
              {
                "system": "http://terminology.hl7.org/CodeSystem/observation-category",
                "code": "laboratory"
              }
            ]
          }
        ],
        "code": {
          "coding": [
            {
              "code": "20505-4",
              "system": "http://loinc.org",
              "display": "Bilirubin.total [Mass/volume] in Urine by Test strip"
            }
          ],
          "text": "Bilirubin.total [Mass/volume] in Urine by Test strip"
        },
        "valueQuantity": {
          "system": "http://unitsofmeasure.org",
          "value": 1,
          "unit": "mg/dL",
          "code": "mg/dL"
        },
        "referenceRange": [
          {
            "low": {
              "value": 0,
              "code": "mg/dL",
              "system": "http://unitsofmeasure.org"
            }
          },
          {
            "high": {
              "value": 1.5,
              "code": "mg/dL",
              "system": "http://unitsofmeasure.org"
            }
          }
        ],
        "text": {
          "status": "generated",
          "div": "<div xmlns=\"http://www.w3.org/1999/xhtml\"><table class=\"hl7__eu__lab__report\"><tr><th>Test</th><th>25-Nov-2016</th><th>Reference&#xA0;Range</th><th>Unit</th></tr><tr><td>Bilirubin.total [Mass/volume] in Urine by Test strip</td><td>1.0</td><td>0 - 1.5</td><td></td><td>mg/dL</td></tr></table></div>"
        },
        "status": "final",
        "subject": {
          "reference": "urn:uuid:13ebdda7-8034-411d-b998-065c7a68044f",
          "display": "Maria Nohlmans"
        },
        "effectiveDateTime": "2016-11-25T04:35:39Z",
        "specimen": {
          "reference": "urn:uuid:8f325641-c4b1-4dcb-8545-592f5d68d166"
        }
      }
    },
    {
      "fullUrl": "urn:uuid:13b38daa-09fa-4384-9c55-0ccd0570fe71",
      "resource": {
        "resourceType": "Observation",
        "id": "13b38daa-09fa-4384-9c55-0ccd0570fe71",
        "meta": {
          "profile": [
            "http://hl7.eu/fhir/laboratory/StructureDefinition/Observation-resultslab-eu-lab"
          ]
        },
        "performer": [
          {
            "display": "The Central European Lab"
          }
        ],
        "category": [
          {
            "coding": [
              {
                "system": "http://terminology.hl7.org/CodeSystem/observation-category",
                "code": "laboratory"
              }
            ]
          }
        ],
        "code": {
          "coding": [
            {
              "code": "5770-3",
              "system": "http://loinc.org",
              "display": "Bilirubin.total [Presence] in Urine by Test strip"
            }
          ],
          "text": "Bilirubin.total [Presence] in Urine by Test strip"
        },
        "text": {
          "status": "generated",
          "div": "<div xmlns=\"http://www.w3.org/1999/xhtml\"><table class=\"hl7__eu__lab__report\"><tr><th>Test</th><th>25-Nov-2016</th><th>Reference&#xA0;Range</th><th>Unit</th></tr><tr><td>Bilirubin.total [Presence] in Urine by Test strip</td></tr></table></div>"
        },
        "status": "final",
        "subject": {
          "reference": "urn:uuid:13ebdda7-8034-411d-b998-065c7a68044f",
          "display": "Maria Nohlmans"
        },
        "effectiveDateTime": "2016-11-25T04:35:39Z",
        "specimen": {
          "reference": "urn:uuid:8f325641-c4b1-4dcb-8545-592f5d68d166"
        }
      }
    },
    {
      "fullUrl": "urn:uuid:d3b149a1-e03a-439e-9d37-c32f0460d5f0",
      "resource": {
        "resourceType": "Observation",
        "id": "d3b149a1-e03a-439e-9d37-c32f0460d5f0",
        "meta": {
          "profile": [
            "http://hl7.eu/fhir/laboratory/StructureDefinition/Observation-resultslab-eu-lab"
          ]
        },
        "performer": [
          {
            "display": "The Central European Lab"
          }
        ],
        "category": [
          {
            "coding": [
              {
                "system": "http://terminology.hl7.org/CodeSystem/observation-category",
                "code": "laboratory"
              }
            ]
          }
        ],
        "code": {
          "coding": [
            {
              "code": "5797-6",
              "system": "http://loinc.org",
              "display": "Ketones [Mass/volume] in Urine by Test strip"
            }
          ],
          "text": "Ketones [Mass/volume] in Urine by Test strip"
        },
        "valueQuantity": {
          "system": "http://unitsofmeasure.org",
          "value": 13.2,
          "unit": "mg/dL",
          "code": "mg/dL"
        },
        "referenceRange": [
          {
            "low": {
              "value": 0,
              "code": "mg/dL",
              "system": "http://unitsofmeasure.org"
            }
          },
          {
            "high": {
              "value": 8,
              "code": "mg/dL",
              "system": "http://unitsofmeasure.org"
            }
          }
        ],
        "interpretation": [
          {
            "coding": [
              {
                "code": "H",
                "system": "http://terminology.hl7.org/CodeSystem/v3-ObservationInterpretation",
                "display": "High"
              }
            ]
          }
        ],
        "text": {
          "status": "generated",
          "div": "<div xmlns=\"http://www.w3.org/1999/xhtml\"><table class=\"hl7__eu__lab__report\"><tr><th>Test</th><th>25-Nov-2016</th><th>Reference&#xA0;Range</th><th>Unit</th></tr><tr><td>Ketones [Mass/volume] in Urine by Test strip</td><td>13.2</td><td>0 - 8</td><td>H</td><td>mg/dL</td></tr></table></div>"
        },
        "status": "final",
        "subject": {
          "reference": "urn:uuid:13ebdda7-8034-411d-b998-065c7a68044f",
          "display": "Maria Nohlmans"
        },
        "effectiveDateTime": "2016-11-25T04:35:39Z",
        "specimen": {
          "reference": "urn:uuid:8f325641-c4b1-4dcb-8545-592f5d68d166"
        }
      }
    },
    {
      "fullUrl": "urn:uuid:fef00242-3a2b-494b-ba45-c731fb14f44a",
      "resource": {
        "resourceType": "Observation",
        "id": "fef00242-3a2b-494b-ba45-c731fb14f44a",
        "meta": {
          "profile": [
            "http://hl7.eu/fhir/laboratory/StructureDefinition/Observation-resultslab-eu-lab"
          ]
        },
        "performer": [
          {
            "display": "The Central European Lab"
          }
        ],
        "category": [
          {
            "coding": [
              {
                "system": "http://terminology.hl7.org/CodeSystem/observation-category",
                "code": "laboratory"
              }
            ]
          }
        ],
        "code": {
          "coding": [
            {
              "code": "2514-8",
              "system": "http://loinc.org",
              "display": "Ketones [Presence] in Urine by Test strip"
            }
          ],
          "text": "Ketones [Presence] in Urine by Test strip"
        },
        "text": {
          "status": "generated",
          "div": "<div xmlns=\"http://www.w3.org/1999/xhtml\"><table class=\"hl7__eu__lab__report\"><tr><th>Test</th><th>25-Nov-2016</th><th>Reference&#xA0;Range</th><th>Unit</th></tr><tr><td>Ketones [Presence] in Urine by Test strip</td></tr></table></div>"
        },
        "status": "final",
        "subject": {
          "reference": "urn:uuid:13ebdda7-8034-411d-b998-065c7a68044f",
          "display": "Maria Nohlmans"
        },
        "effectiveDateTime": "2016-11-25T04:35:39Z",
        "specimen": {
          "reference": "urn:uuid:8f325641-c4b1-4dcb-8545-592f5d68d166"
        }
      }
    },
    {
      "fullUrl": "urn:uuid:8de1f77c-1473-46a8-a919-38e3edfd84b7",
      "resource": {
        "resourceType": "Observation",
        "id": "8de1f77c-1473-46a8-a919-38e3edfd84b7",
        "meta": {
          "profile": [
            "http://hl7.eu/fhir/laboratory/StructureDefinition/Observation-resultslab-eu-lab"
          ]
        },
        "performer": [
          {
            "display": "The Central European Lab"
          }
        ],
        "category": [
          {
            "coding": [
              {
                "system": "http://terminology.hl7.org/CodeSystem/observation-category",
                "code": "laboratory"
              }
            ]
          }
        ],
        "code": {
          "coding": [
            {
              "code": "5811-5",
              "system": "http://loinc.org",
              "display": "Specific gravity of Urine by Test strip"
            }
          ],
          "text": "Specific gravity of Urine by Test strip"
        },
        "valueQuantity": {
          "system": "http://unitsofmeasure.org",
          "value": 1,
          "unit": "{nominal}",
          "code": "{nominal}"
        },
        "referenceRange": [
          {
            "low": {
              "value": 1.01,
              "code": "g/mL",
              "system": "http://unitsofmeasure.org"
            }
          },
          {
            "high": {
              "value": 1.03,
              "code": "g/mL",
              "system": "http://unitsofmeasure.org"
            }
          }
        ],
        "interpretation": [
          {
            "coding": [
              {
                "code": "L",
                "system": "http://terminology.hl7.org/CodeSystem/v3-ObservationInterpretation",
                "display": "Low"
              }
            ]
          }
        ],
        "text": {
          "status": "generated",
          "div": "<div xmlns=\"http://www.w3.org/1999/xhtml\"><table class=\"hl7__eu__lab__report\"><tr><th>Test</th><th>25-Nov-2016</th><th>Reference&#xA0;Range</th><th>Unit</th></tr><tr><td>Specific gravity of Urine by Test strip</td><td>1.0</td><td>1.01 - 1.03</td><td>L</td><td>{nominal}</td></tr></table></div>"
        },
        "status": "final",
        "subject": {
          "reference": "urn:uuid:13ebdda7-8034-411d-b998-065c7a68044f",
          "display": "Maria Nohlmans"
        },
        "effectiveDateTime": "2016-11-25T04:35:39Z",
        "specimen": {
          "reference": "urn:uuid:8f325641-c4b1-4dcb-8545-592f5d68d166"
        }
      }
    },
    {
      "fullUrl": "urn:uuid:ecddb250-3cd3-4466-a929-b43a0d27d749",
      "resource": {
        "resourceType": "Observation",
        "id": "ecddb250-3cd3-4466-a929-b43a0d27d749",
        "meta": {
          "profile": [
            "http://hl7.eu/fhir/laboratory/StructureDefinition/Observation-resultslab-eu-lab"
          ]
        },
        "performer": [
          {
            "display": "The Central European Lab"
          }
        ],
        "category": [
          {
            "coding": [
              {
                "system": "http://terminology.hl7.org/CodeSystem/observation-category",
                "code": "laboratory"
              }
            ]
          }
        ],
        "code": {
          "coding": [
            {
              "code": "5803-2",
              "system": "http://loinc.org",
              "display": "pH of Urine by Test strip"
            }
          ],
          "text": "pH of Urine by Test strip"
        },
        "valueQuantity": {
          "system": "http://unitsofmeasure.org",
          "value": 5.3,
          "unit": "pH",
          "code": "pH"
        },
        "referenceRange": [
          {
            "low": {
              "value": 4.6,
              "code": "pH",
              "system": "http://unitsofmeasure.org"
            }
          },
          {
            "high": {
              "value": 7.5,
              "code": "pH",
              "system": "http://unitsofmeasure.org"
            }
          }
        ],
        "text": {
          "status": "generated",
          "div": "<div xmlns=\"http://www.w3.org/1999/xhtml\"><table class=\"hl7__eu__lab__report\"><tr><th>Test</th><th>25-Nov-2016</th><th>Reference&#xA0;Range</th><th>Unit</th></tr><tr><td>pH of Urine by Test strip</td><td>5.3</td><td>4.6 - 7.5</td><td></td><td>pH</td></tr></table></div>"
        },
        "status": "final",
        "subject": {
          "reference": "urn:uuid:13ebdda7-8034-411d-b998-065c7a68044f",
          "display": "Maria Nohlmans"
        },
        "effectiveDateTime": "2016-11-25T04:35:39Z",
        "specimen": {
          "reference": "urn:uuid:8f325641-c4b1-4dcb-8545-592f5d68d166"
        }
      }
    },
    {
      "fullUrl": "urn:uuid:efa1d4cf-54a4-4768-a88a-6ab0b26af2f8",
      "resource": {
        "resourceType": "Observation",
        "id": "efa1d4cf-54a4-4768-a88a-6ab0b26af2f8",
        "meta": {
          "profile": [
            "http://hl7.eu/fhir/laboratory/StructureDefinition/Observation-resultslab-eu-lab"
          ]
        },
        "performer": [
          {
            "display": "The Central European Lab"
          }
        ],
        "category": [
          {
            "coding": [
              {
                "system": "http://terminology.hl7.org/CodeSystem/observation-category",
                "code": "laboratory"
              }
            ]
          }
        ],
        "code": {
          "coding": [
            {
              "code": "5804-0",
              "system": "http://loinc.org",
              "display": "Protein [Mass/volume] in Urine by Test strip"
            }
          ],
          "text": "Protein [Mass/volume] in Urine by Test strip"
        },
        "valueQuantity": {
          "system": "http://unitsofmeasure.org",
          "value": 254.1,
          "unit": "mg/dL",
          "code": "mg/dL"
        },
        "referenceRange": [
          {
            "low": {
              "value": 0,
              "code": "mg/dL",
              "system": "http://unitsofmeasure.org"
            }
          },
          {
            "high": {
              "value": 14,
              "code": "mg/dL",
              "system": "http://unitsofmeasure.org"
            }
          }
        ],
        "interpretation": [
          {
            "coding": [
              {
                "code": "H",
                "system": "http://terminology.hl7.org/CodeSystem/v3-ObservationInterpretation",
                "display": "High"
              }
            ]
          }
        ],
        "text": {
          "status": "generated",
          "div": "<div xmlns=\"http://www.w3.org/1999/xhtml\"><table class=\"hl7__eu__lab__report\"><tr><th>Test</th><th>25-Nov-2016</th><th>Reference&#xA0;Range</th><th>Unit</th></tr><tr><td>Protein [Mass/volume] in Urine by Test strip</td><td>254.1</td><td>0 - 14</td><td>H</td><td>mg/dL</td></tr></table></div>"
        },
        "status": "final",
        "subject": {
          "reference": "urn:uuid:13ebdda7-8034-411d-b998-065c7a68044f",
          "display": "Maria Nohlmans"
        },
        "effectiveDateTime": "2016-11-25T04:35:39Z",
        "specimen": {
          "reference": "urn:uuid:8f325641-c4b1-4dcb-8545-592f5d68d166"
        }
      }
    },
    {
      "fullUrl": "urn:uuid:fcdad76a-9044-489a-b588-2fb1ea3f3e3c",
      "resource": {
        "resourceType": "Observation",
        "id": "fcdad76a-9044-489a-b588-2fb1ea3f3e3c",
        "meta": {
          "profile": [
            "http://hl7.eu/fhir/laboratory/StructureDefinition/Observation-resultslab-eu-lab"
          ]
        },
        "performer": [
          {
            "display": "The Central European Lab"
          }
        ],
        "category": [
          {
            "coding": [
              {
                "system": "http://terminology.hl7.org/CodeSystem/observation-category",
                "code": "laboratory"
              }
            ]
          }
        ],
        "code": {
          "coding": [
            {
              "code": "20454-5",
              "system": "http://loinc.org",
              "display": "Protein [Presence] in Urine by Test strip"
            }
          ],
          "text": "Protein [Presence] in Urine by Test strip"
        },
        "text": {
          "status": "generated",
          "div": "<div xmlns=\"http://www.w3.org/1999/xhtml\"><table class=\"hl7__eu__lab__report\"><tr><th>Test</th><th>25-Nov-2016</th><th>Reference&#xA0;Range</th><th>Unit</th></tr><tr><td>Protein [Presence] in Urine by Test strip</td></tr></table></div>"
        },
        "status": "final",
        "subject": {
          "reference": "urn:uuid:13ebdda7-8034-411d-b998-065c7a68044f",
          "display": "Maria Nohlmans"
        },
        "effectiveDateTime": "2016-11-25T04:35:39Z",
        "specimen": {
          "reference": "urn:uuid:8f325641-c4b1-4dcb-8545-592f5d68d166"
        }
      }
    },
    {
      "fullUrl": "urn:uuid:477dccfe-631f-45bd-9215-26af19e85fcd",
      "resource": {
        "resourceType": "Observation",
        "id": "477dccfe-631f-45bd-9215-26af19e85fcd",
        "meta": {
          "profile": [
            "http://hl7.eu/fhir/laboratory/StructureDefinition/Observation-resultslab-eu-lab"
          ]
        },
        "performer": [
          {
            "display": "The Central European Lab"
          }
        ],
        "category": [
          {
            "coding": [
              {
                "system": "http://terminology.hl7.org/CodeSystem/observation-category",
                "code": "laboratory"
              }
            ]
          }
        ],
        "code": {
          "coding": [
            {
              "code": "5802-4",
              "system": "http://loinc.org",
              "display": "Nitrite [Presence] in Urine by Test strip"
            }
          ],
          "text": "Nitrite [Presence] in Urine by Test strip"
        },
        "text": {
          "status": "generated",
          "div": "<div xmlns=\"http://www.w3.org/1999/xhtml\"><table class=\"hl7__eu__lab__report\"><tr><th>Test</th><th>25-Nov-2016</th><th>Reference&#xA0;Range</th><th>Unit</th></tr><tr><td>Nitrite [Presence] in Urine by Test strip</td></tr></table></div>"
        },
        "status": "final",
        "subject": {
          "reference": "urn:uuid:13ebdda7-8034-411d-b998-065c7a68044f",
          "display": "Maria Nohlmans"
        },
        "effectiveDateTime": "2016-11-25T04:35:39Z",
        "specimen": {
          "reference": "urn:uuid:8f325641-c4b1-4dcb-8545-592f5d68d166"
        }
      }
    },
    {
      "fullUrl": "urn:uuid:4c34ab27-c7b3-41f1-9c58-ccf4259fc437",
      "resource": {
        "resourceType": "Observation",
        "id": "4c34ab27-c7b3-41f1-9c58-ccf4259fc437",
        "meta": {
          "profile": [
            "http://hl7.eu/fhir/laboratory/StructureDefinition/Observation-resultslab-eu-lab"
          ]
        },
        "performer": [
          {
            "display": "The Central European Lab"
          }
        ],
        "category": [
          {
            "coding": [
              {
                "system": "http://terminology.hl7.org/CodeSystem/observation-category",
                "code": "laboratory"
              }
            ]
          }
        ],
        "code": {
          "coding": [
            {
              "code": "5794-3",
              "system": "http://loinc.org",
              "display": "Hemoglobin [Presence] in Urine by Test strip"
            }
          ],
          "text": "Hemoglobin [Presence] in Urine by Test strip"
        },
        "text": {
          "status": "generated",
          "div": "<div xmlns=\"http://www.w3.org/1999/xhtml\"><table class=\"hl7__eu__lab__report\"><tr><th>Test</th><th>25-Nov-2016</th><th>Reference&#xA0;Range</th><th>Unit</th></tr><tr><td>Hemoglobin [Presence] in Urine by Test strip</td></tr></table></div>"
        },
        "status": "final",
        "subject": {
          "reference": "urn:uuid:13ebdda7-8034-411d-b998-065c7a68044f",
          "display": "Maria Nohlmans"
        },
        "effectiveDateTime": "2016-11-25T04:35:39Z",
        "specimen": {
          "reference": "urn:uuid:8f325641-c4b1-4dcb-8545-592f5d68d166"
        }
      }
    },
    {
      "fullUrl": "urn:uuid:4eb1e0e3-1418-4572-9c65-a1c355fdc596",
      "resource": {
        "resourceType": "Observation",
        "id": "4eb1e0e3-1418-4572-9c65-a1c355fdc596",
        "meta": {
          "profile": [
            "http://hl7.eu/fhir/laboratory/StructureDefinition/Observation-resultslab-eu-lab"
          ]
        },
        "performer": [
          {
            "display": "The Central European Lab"
          }
        ],
        "category": [
          {
            "coding": [
              {
                "system": "http://terminology.hl7.org/CodeSystem/observation-category",
                "code": "laboratory"
              }
            ]
          }
        ],
        "code": {
          "coding": [
            {
              "code": "5799-2",
              "system": "http://loinc.org",
              "display": "Leukocyte esterase [Presence] in Urine by Test strip"
            }
          ],
          "text": "Leukocyte esterase [Presence] in Urine by Test strip"
        },
        "text": {
          "status": "generated",
          "div": "<div xmlns=\"http://www.w3.org/1999/xhtml\"><table class=\"hl7__eu__lab__report\"><tr><th>Test</th><th>25-Nov-2016</th><th>Reference&#xA0;Range</th><th>Unit</th></tr><tr><td>Leukocyte esterase [Presence] in Urine by Test strip</td></tr></table></div>"
        },
        "status": "final",
        "subject": {
          "reference": "urn:uuid:13ebdda7-8034-411d-b998-065c7a68044f",
          "display": "Maria Nohlmans"
        },
        "effectiveDateTime": "2016-11-25T04:35:39Z",
        "specimen": {
          "reference": "urn:uuid:8f325641-c4b1-4dcb-8545-592f5d68d166"
        }
      }
    },
    {
      "fullUrl": "urn:uuid:a33d8e6d-145a-4952-9434-f90a7900d13b",
      "resource": {
        "resourceType": "Device",
        "id": "a33d8e6d-145a-4952-9434-f90a7900d13b",
        "deviceName": [
          {
            "name": "SYNDERAI Synthetic Generator",
            "type": "manufacturer-name"
          }
        ],
        "version": [
          {
            "value": "5.0"
          }
        ],
        "text": {
          "status": "generated",
          "div": "<div xmlns=\"http://www.w3.org/1999/xhtml\">SYNDERAI Synthetic Generator v5.0</div>"
        },
        "status": "active\"",
        "distinctIdentifier": "synderai-generator-50",
        "manufacturer": "SYNDERAI Project"
      }
    },
    {
      "fullUrl": "urn:uuid:61165077-310a-44c2-b71d-3b7db54e0f71",
      "resource": {
        "resourceType": "Provenance",
        "id": "61165077-310a-44c2-b71d-3b7db54e0f71",
        "target": [
          {
            "reference": "Patient/13ebdda7-8034-411d-b998-065c7a68044f"
          },
          {
            "reference": "Bundle/456cbc5d-06a2-46b3-9bae-bc8e22757136"
          },
          {
            "reference": "Composition/ccdaf027-ac99-4f2a-b246-07783de10be0"
          },
          {
            "reference": "PractitionerRole/8259c33a-c4a6-4100-9d1d-77237106e2f5"
          },
          {
            "reference": "Practitioner/d981cc8a-fc7a-47fd-9849-cb0d01559578"
          },
          {
            "reference": "PractitionerRole/ec810135-5da2-4331-8b7b-0cb15b429e43"
          },
          {
            "reference": "Organization/4fbb930a-7bd0-4a90-ad1c-0143a9525a32"
          }
        ],
        "activity": {
          "text": "Synthetic Example Data Generation"
        },
        "policy": [
          "https://synderai.net/synderai-synthetic-data-policy"
        ],
        "agent": [
          {
            "type": {
              "text": "author"
            },
            "who": {
              "reference": "Device/a33d8e6d-145a-4952-9434-f90a7900d13b"
            }
          }
        ],
        "reason": [
          {
            "text": "Interoperability Testing and Training (non-clinical use)"
          }
        ],
        "text": {
          "status": "generated",
          "div": "<div xmlns=\"http://www.w3.org/1999/xhtml\">Provenance for SYNDERAI Synthetic Example Data Resource</div>"
        },
        "recorded": "2016-11-25T05:35:39Z"
      }
    },
    {
      "fullUrl": "urn:uuid:8259c33a-c4a6-4100-9d1d-77237106e2f5",
      "resource": {
        "resourceType": "PractitionerRole",
        "id": "8259c33a-c4a6-4100-9d1d-77237106e2f5",
        "meta": {
          "profile": [
            "http://hl7.eu/fhir/base/StructureDefinition/practitionerRole-eu"
          ]
        },
        "text": {
          "status": "generated",
          "div": "<div xmlns=\"http://www.w3.org/1999/xhtml\">Laboratory Role Id: 8259c33a-c4a6-4100-9d1d-77237106e2f5</div>"
        },
        "practitioner": {
          "reference": "urn:uuid:d981cc8a-fc7a-47fd-9849-cb0d01559578"
        }
      }
    },
    {
      "fullUrl": "urn:uuid:d981cc8a-fc7a-47fd-9849-cb0d01559578",
      "resource": {
        "resourceType": "Practitioner",
        "id": "d981cc8a-fc7a-47fd-9849-cb0d01559578",
        "meta": {
          "profile": [
            "http://hl7.eu/fhir/base/StructureDefinition/practitioner-eu"
          ]
        },
        "identifier": [
          {
            "assigner": {
              "display": "HL7 Europe"
            },
            "system": "urn:oid:2.16.840.1.113883.2.51.999",
            "value": "4bbbba85-9c95-4c61-b302-2e2438606457"
          }
        ],
        "name": [
          {
            "prefix": [
              "dr"
            ],
            "given": [
              "Ex"
            ],
            "family": "Ample"
          }
        ],
        "address": [
          {
            "line": [
              "Laboratoire Central Européenne",
              "Boulevard du Jardin Botanique 32"
            ],
            "postalCode": "1000",
            "city": "Brussels",
            "country": "Belgium"
          }
        ],
        "text": {
          "status": "generated",
          "div": "<div xmlns=\"http://www.w3.org/1999/xhtml\">Laboratory: Laboratoire Central Européenne, 1000 Brussels, Belgium</div>"
        }
      }
    }
  ],
  "type": "document",
  "timestamp": "2016-11-25T05:35:39Z"
}
