{
  "resourceType": "Bundle",
  "id": "95f0bf30-9086-40c8-b5e7-b6daee3736a3",
  "meta": {
    "profile": [
      "http://hl7.eu/fhir/laboratory/StructureDefinition/Bundle-eu-lab"
    ]
  },
  "identifier": {
    "assigner": {
      "display": "HL7 Europe"
    },
    "system": "urn:oid:2.16.840.1.113883.2.51.999",
    "value": "9c08fae1-d800-493c-a720-6d5ef0e6d6f4"
  },
  "entry": [
    {
      "fullUrl": "urn:uuid:e4e7e3cd-fd3d-4d7b-b24e-db4fa4b538d9",
      "resource": {
        "resourceType": "Composition",
        "id": "e4e7e3cd-fd3d-4d7b-b24e-db4fa4b538d9",
        "meta": {
          "profile": [
            "http://hl7.eu/fhir/laboratory/StructureDefinition/Composition-eu-lab"
          ]
        },
        "identifier": {
          "assigner": {
            "display": "HL7 Europe"
          },
          "system": "urn:oid:2.16.840.1.113883.2.51.999",
          "value": "ac57aaad-0819-470c-abbd-cfd66228e54a"
        },
        "author": [
          {
            "reference": "urn:uuid:f89c7762-251f-46d4-bf97-76e3efccb49a"
          }
        ],
        "category": [
          {
            "coding": [
              {
                "code": "26436-6",
                "system": "http://loinc.org",
                "display": "Laboratory studies (set)"
              }
            ]
          }
        ],
        "type": {
          "coding": [
            {
              "code": "11502-2",
              "system": "http://loinc.org",
              "display": "Laboratory report"
            }
          ],
          "text": "Laboratory Report"
        },
        "section": [
          {
            "code": {
              "coding": [
                {
                  "code": "26436-6",
                  "system": "http://loinc.org",
                  "display": "Laboratory studies (set)"
                }
              ],
              "text": "Laboratory studies"
            },
            "section": [
              {
                "code": {
                  "coding": [
                    {
                      "code": "$18719-5",
                      "system": "http://loinc.org",
                      "display": "Chemistry studies (set)"
                    }
                  ],
                  "text": "Chemistry"
                },
                "entry": [
                  {
                    "reference": "urn:uuid:4b9bbe46-3670-4f7d-b5f9-9af718366232"
                  },
                  {
                    "reference": "urn:uuid:588d1ac2-7de2-4fec-888e-8e6f9e83e595"
                  },
                  {
                    "reference": "urn:uuid:d006e801-0a05-4aab-acf9-2b8e6805505c"
                  },
                  {
                    "reference": "urn:uuid:7edebad6-8cf9-41d9-996a-89c14080c71d"
                  },
                  {
                    "reference": "urn:uuid:9ec9bec6-7318-42f8-9aa6-94343b861df3"
                  },
                  {
                    "reference": "urn:uuid:f18aa434-8585-40bf-8048-9a844b26b8be"
                  },
                  {
                    "reference": "urn:uuid:2a55ad12-9bca-412f-935a-04bcc8af1539"
                  },
                  {
                    "reference": "urn:uuid:fde32696-3fc5-43e4-a049-a783bb8e95ab"
                  },
                  {
                    "reference": "urn:uuid:d8b3d2a6-acda-4a1e-a80f-ab644583d888"
                  }
                ],
                "text": {
                  "status": "generated",
                  "div": "<div xmlns=\"http://www.w3.org/1999/xhtml\"><h3>Chemistry</h3><table class=\"hl7__eu__lab__report\"><thead><tr><th>Test</th><th>02-APR-2025</th><th>Reference&#xA0;Range</th><th>Unit</th></tr></thead><tbody><tr><td>Hemoglobin A1c/Hemoglobin.total in Blood</td><td><strong>5.9 H</strong></td><td>3.8 - 5.7</td><td>%</td></tr><tr><td>Glucose [Mass/volume] in Blood</td><td>86.9</td><td>70 - 140</td><td>mg/dL</td></tr><tr><td>Urea nitrogen [Mass/volume] in Blood</td><td>15.1</td><td>7 - 20</td><td>mg/dL</td></tr><tr><td>Creatinine [Mass/volume] in Blood</td><td><strong>0.7 L</strong></td><td>0.9 - 1.3</td><td>mg/dL</td></tr><tr><td>Calcium [Mass/volume] in Blood</td><td>9.5</td><td>8.5 - 10.5</td><td>mg/dL</td></tr><tr><td>Sodium [Moles/volume] in Blood</td><td>139.0</td><td>135 - 145</td><td>mmol/L</td></tr><tr><td>Potassium [Moles/volume] in Blood</td><td>4.2</td><td>3.5 - 5.3</td><td>mmol/L</td></tr><tr><td>Chloride [Moles/volume] in Blood</td><td><strong>110.7 H</strong></td><td>98 - 109</td><td>mmol/L</td></tr><tr><td>Carbon dioxide, total [Moles/volume] in Blood</td><td>24.7</td><td>22 - 32</td><td>mmol/L</td></tr></tbody></table></div>"
                },
                "title": "Chemistry"
              }
            ],
            "title": "Laboratory Report"
          },
          {
            "text": {
              "status": "generated",
              "div": "<div xmlns=\"http://www.w3.org/1999/xhtml\"><h3>Annotation</h3><table class=\"hl7__eu__lab__report\"><tr><th>Conclusion and Recommendations based on this report and previous findings known to us</th></tr><tr><td>The patient shows mildly elevated HbA1c, suggesting impaired glucose metabolism or prediabetes, though current glucose is normal. Creatinine is slightly below the reference range, which may be due to reduced muscle mass in elderly patients and is usually not clinically significant. Chloride is mildly elevated, which could reflect mild dehydration or compensation for acid-base balance. Other parameters are within normal limits. No acute abnormalities detected; recommend monitoring glucose metabolism and clinical correlation for electrolyte findings.</td></tr></table></div>"
            },
            "code": {
              "coding": [
                {
                  "system": "http://loinc.org",
                  "code": "48767-8",
                  "display": "Annotation comment"
                }
              ]
            },
            "title": "Annotation comment"
          }
        ],
        "status": "final",
        "subject": {
          "reference": "urn:uuid:fc7b1c8f-41c7-4f81-b206-afdc06cdfe7e",
          "display": "Lazăr Florea"
        },
        "date": "2025-04-02T15:56:29Z",
        "title": "Laboratory Report",
        "confidentiality": "N"
      }
    },
    {
      "fullUrl": "urn:uuid:369b8e3a-ccb2-4a12-b00d-e3a4dbc3b064",
      "resource": {
        "resourceType": "DiagnosticReport",
        "id": "369b8e3a-ccb2-4a12-b00d-e3a4dbc3b064",
        "meta": {
          "profile": [
            "http://hl7.eu/fhir/laboratory/StructureDefinition/DiagnosticReport-eu-lab"
          ]
        },
        "identifier": [
          {
            "assigner": {
              "display": "HL7 Europe"
            },
            "system": "urn:oid:2.16.840.1.113883.2.51.999",
            "value": "f7fcafa3-7d44-4758-9719-02c8224ca415"
          }
        ],
        "extension": [
          {
            "url": "http://hl7.org/fhir/5.0/StructureDefinition/extension-DiagnosticReport.composition",
            "valueReference": {
              "reference": "urn:uuid:ac57aaad-0819-470c-abbd-cfd66228e54a"
            }
          }
        ],
        "category": [
          {
            "coding": [
              {
                "code": "26436-6",
                "system": "http://loinc.org",
                "display": "Laboratory studies (set)"
              }
            ]
          }
        ],
        "specimen": [
          {
            "reference": "urn:uuid:69570995-4702-4b83-9ad8-f9abdd66cbcf"
          }
        ],
        "result": [
          {
            "reference": "urn:uuid:4b9bbe46-3670-4f7d-b5f9-9af718366232"
          },
          {
            "reference": "urn:uuid:588d1ac2-7de2-4fec-888e-8e6f9e83e595"
          },
          {
            "reference": "urn:uuid:d006e801-0a05-4aab-acf9-2b8e6805505c"
          },
          {
            "reference": "urn:uuid:7edebad6-8cf9-41d9-996a-89c14080c71d"
          },
          {
            "reference": "urn:uuid:9ec9bec6-7318-42f8-9aa6-94343b861df3"
          },
          {
            "reference": "urn:uuid:f18aa434-8585-40bf-8048-9a844b26b8be"
          },
          {
            "reference": "urn:uuid:2a55ad12-9bca-412f-935a-04bcc8af1539"
          },
          {
            "reference": "urn:uuid:fde32696-3fc5-43e4-a049-a783bb8e95ab"
          },
          {
            "reference": "urn:uuid:d8b3d2a6-acda-4a1e-a80f-ab644583d888"
          }
        ],
        "status": "registered",
        "code": {
          "coding": [
            {
              "code": "11502-2",
              "system": "http://loinc.org",
              "display": "Laboratory report"
            }
          ]
        },
        "subject": {
          "reference": "urn:uuid:fc7b1c8f-41c7-4f81-b206-afdc06cdfe7e",
          "display": "Lazăr Florea"
        }
      }
    },
    {
      "fullUrl": "urn:uuid:fc7b1c8f-41c7-4f81-b206-afdc06cdfe7e",
      "resource": {
        "resourceType": "Patient",
        "id": "fc7b1c8f-41c7-4f81-b206-afdc06cdfe7e",
        "meta": {
          "security": [
            {
              "system": "http://terminology.hl7.org/CodeSystem/v3-ActReason",
              "code": "HTEST"
            },
            {
              "system": "http://terminology.hl7.org/CodeSystem/v3-ActReason",
              "code": "TRAIN"
            }
          ],
          "tag": [
            {
              "system": "https://synderai.net/fhir/CodeSystem/tags",
              "code": "synthetic",
              "display": "SYNDERAI Synthetic data"
            }
          ],
          "profile": [
            "http://hl7.eu/fhir/base/StructureDefinition/patient-eu-core"
          ]
        },
        "identifier": [
          {
            "type": {
              "coding": [
                {
                  "code": "PT",
                  "system": "http://terminology.hl7.org/CodeSystem/v2-0203"
                }
              ]
            },
            "system": "http://ec.europa.eu/identifier/eci",
            "value": "8693-862290-8"
          },
          {
            "type": {
              "coding": [
                {
                  "code": "MR",
                  "system": "http://terminology.hl7.org/CodeSystem/v2-0203"
                }
              ]
            },
            "system": "http://local.setting.eu/identifier",
            "value": "602fbbf5-967b-6d86-a533-5cec24b13e71"
          }
        ],
        "name": [
          {
            "family": "Florea"
          },
          {
            "given": [
              "Lazăr"
            ]
          },
          {
            "text": "Lazăr Florea"
          }
        ],
        "address": [
          {
            "line": [
              "Drumul Grațian Nistor"
            ],
            "use": "home",
            "type": "physical",
            "postalCode": "265300",
            "city": "Lupeni",
            "country": "Romania"
          }
        ],
        "telecom": [
          {
            "system": "phone",
            "value": "0753 950 380"
          }
        ],
        "extension": [
          {
            "url": "http://hl7.org/fhir/StructureDefinition/patient-nationality",
            "valueCodeableConcept": {
              "coding": [
                {
                  "code": "RO",
                  "system": "http://hl7.org/fhir/ValueSet/country"
                }
              ]
            }
          }
        ],
        "text": {
          "status": "generated",
          "div": "<div xmlns=\"http://www.w3.org/1999/xhtml\"><table class=\"hl7__ips\"><tr><td>Lazăr Florea</td><td>male</td><td>10-Feb-1946</td></tr></table></div>"
        },
        "gender": "male",
        "birthDate": "1946-02-10"
      }
    },
    {
      "fullUrl": "urn:uuid:67b9fcad-91e6-4e76-8295-4faed36b8ce9",
      "resource": {
        "resourceType": "ServiceRequest",
        "id": "67b9fcad-91e6-4e76-8295-4faed36b8ce9",
        "meta": {
          "profile": [
            "http://hl7.eu/fhir/laboratory/StructureDefinition/ServiceRequest-eu-lab"
          ]
        },
        "identifier": [
          {
            "system": "http://example.org",
            "value": "066a823d-0e7b-4a8c-a887-af65c724af2c"
          }
        ],
        "specimen": [
          {
            "reference": "urn:uuid:69570995-4702-4b83-9ad8-f9abdd66cbcf"
          }
        ],
        "reasonCode": [
          {
            "coding": [
              {
                "code": "197927001",
                "system": "http://snomed.info/sct",
                "display": "Recurrent urinary tract infection"
              }
            ]
          },
          {
            "coding": [
              {
                "code": "414545008",
                "system": "http://snomed.info/sct",
                "display": "Ischemic heart disease"
              }
            ]
          },
          {
            "coding": [
              {
                "code": "237602007",
                "system": "http://snomed.info/sct",
                "display": "Metabolic syndrome X"
              }
            ]
          },
          {
            "coding": [
              {
                "code": "271737000",
                "system": "http://snomed.info/sct",
                "display": "Anemia"
              }
            ]
          },
          {
            "coding": [
              {
                "code": "15777000",
                "system": "http://snomed.info/sct",
                "display": "Prediabetes"
              }
            ]
          },
          {
            "coding": [
              {
                "code": "59621000",
                "system": "http://snomed.info/sct",
                "display": "Essential hypertension"
              }
            ]
          },
          {
            "coding": [
              {
                "code": "40055000",
                "system": "http://snomed.info/sct",
                "display": "Chronic sinusitis"
              }
            ]
          }
        ],
        "status": "active",
        "intent": "order",
        "code": {
          "coding": [
            {
              "code": "108252007",
              "system": "http://snomed.info/sct",
              "display": "Laboratory procedure"
            }
          ]
        },
        "subject": {
          "reference": "urn:uuid:fc7b1c8f-41c7-4f81-b206-afdc06cdfe7e",
          "display": "Lazăr Florea"
        },
        "requester": {
          "reference": "urn:uuid:390002b8-dca6-48fa-86b3-2e816ac7a023"
        }
      }
    },
    {
      "fullUrl": "urn:uuid:390002b8-dca6-48fa-86b3-2e816ac7a023",
      "resource": {
        "resourceType": "PractitionerRole",
        "id": "390002b8-dca6-48fa-86b3-2e816ac7a023",
        "meta": {
          "profile": [
            "http://hl7.eu/fhir/base/StructureDefinition/practitionerRole-eu"
          ]
        },
        "text": {
          "status": "generated",
          "div": "<div xmlns=\"http://www.w3.org/1999/xhtml\">Provider Role Id: 390002b8-dca6-48fa-86b3-2e816ac7a023</div>"
        },
        "organization": {
          "reference": "urn:uuid:92ee2cce-e03f-4c98-9634-56abc2f1d8ce"
        }
      }
    },
    {
      "fullUrl": "urn:uuid:92ee2cce-e03f-4c98-9634-56abc2f1d8ce",
      "resource": {
        "resourceType": "Organization",
        "id": "92ee2cce-e03f-4c98-9634-56abc2f1d8ce",
        "meta": {
          "profile": [
            "http://hl7.eu/fhir/base/StructureDefinition/organization-eu"
          ]
        },
        "identifier": [
          {
            "assigner": {
              "display": "HL7 Europe"
            },
            "system": "urn:oid:2.16.840.1.113883.2.51.999",
            "value": "6489bb28-8a8c-444e-aaf3-99c24d428efc"
          }
        ],
        "address": [
          {
            "line": [
              "Strada 1 Decembrie 1918 137 A"
            ],
            "city": "Petroșani",
            "postalCode": "332019",
            "country": "Romania"
          }
        ],
        "text": {
          "status": "generated",
          "div": "<div xmlns=\"http://www.w3.org/1999/xhtml\">Provider Organization: Spitalul de Urgență</div>"
        },
        "name": "Spitalul de Urgență"
      }
    },
    {
      "fullUrl": "urn:uuid:69570995-4702-4b83-9ad8-f9abdd66cbcf",
      "resource": {
        "resourceType": "Specimen",
        "id": "69570995-4702-4b83-9ad8-f9abdd66cbcf",
        "meta": {
          "profile": [
            "http://hl7.eu/fhir/laboratory/StructureDefinition/Specimen-eu-lab"
          ]
        },
        "collection": {
          "collectedDateTime": "2025-04-02"
        },
        "text": {
          "status": "generated",
          "div": "<div xmlns=\"http://www.w3.org/1999/xhtml\"><table class=\"hl7__eu__lab__report\"><tr><th>Specimen</th><th>Collection Date</th></tr><tr><td>Whole blood specimen (specimen)</td><td><span class=\"nb\">02-Apr-2025</span></td></tr></table></div>"
        },
        "type": {
          "coding": [
            {
              "code": "258580003",
              "system": "http://snomed.info/sct",
              "display": "Whole blood specimen (specimen)"
            }
          ]
        }
      }
    },
    {
      "fullUrl": "urn:uuid:4b9bbe46-3670-4f7d-b5f9-9af718366232",
      "resource": {
        "resourceType": "Observation",
        "id": "4b9bbe46-3670-4f7d-b5f9-9af718366232",
        "meta": {
          "profile": [
            "http://hl7.eu/fhir/laboratory/StructureDefinition/Observation-resultslab-eu-lab"
          ]
        },
        "performer": [
          {
            "display": "The Central European Lab"
          }
        ],
        "category": [
          {
            "coding": [
              {
                "system": "http://terminology.hl7.org/CodeSystem/observation-category",
                "code": "laboratory"
              }
            ]
          }
        ],
        "code": {
          "coding": [
            {
              "code": "4548-4",
              "system": "http://loinc.org",
              "display": "Hemoglobin A1c/Hemoglobin.total in Blood"
            }
          ],
          "text": "Hemoglobin A1c/Hemoglobin.total in Blood"
        },
        "valueQuantity": {
          "system": "http://unitsofmeasure.org",
          "value": 5.9,
          "unit": "%",
          "code": "%"
        },
        "referenceRange": [
          {
            "low": {
              "value": 3.8,
              "code": "%",
              "system": "http://unitsofmeasure.org"
            }
          },
          {
            "high": {
              "value": 5.7,
              "code": "%",
              "system": "http://unitsofmeasure.org"
            }
          }
        ],
        "interpretation": [
          {
            "coding": [
              {
                "code": "H",
                "system": "http://terminology.hl7.org/CodeSystem/v3-ObservationInterpretation",
                "display": "High"
              }
            ]
          }
        ],
        "text": {
          "status": "generated",
          "div": "<div xmlns=\"http://www.w3.org/1999/xhtml\"><table class=\"hl7__eu__lab__report\"><tr><th>Test</th><th>02-Apr-2025</th><th>Reference&#xA0;Range</th><th>Unit</th></tr><tr><td>Hemoglobin A1c/Hemoglobin.total in Blood</td><td>5.9</td><td>3.8 - 5.7</td><td>H</td><td>%</td></tr></table></div>"
        },
        "status": "final",
        "subject": {
          "reference": "urn:uuid:fc7b1c8f-41c7-4f81-b206-afdc06cdfe7e",
          "display": "Lazăr Florea"
        },
        "effectiveDateTime": "2025-04-02T13:56:29Z",
        "specimen": {
          "reference": "urn:uuid:69570995-4702-4b83-9ad8-f9abdd66cbcf"
        }
      }
    },
    {
      "fullUrl": "urn:uuid:588d1ac2-7de2-4fec-888e-8e6f9e83e595",
      "resource": {
        "resourceType": "Observation",
        "id": "588d1ac2-7de2-4fec-888e-8e6f9e83e595",
        "meta": {
          "profile": [
            "http://hl7.eu/fhir/laboratory/StructureDefinition/Observation-resultslab-eu-lab"
          ]
        },
        "performer": [
          {
            "display": "The Central European Lab"
          }
        ],
        "category": [
          {
            "coding": [
              {
                "system": "http://terminology.hl7.org/CodeSystem/observation-category",
                "code": "laboratory"
              }
            ]
          }
        ],
        "code": {
          "coding": [
            {
              "code": "2339-0",
              "system": "http://loinc.org",
              "display": "Glucose [Mass/volume] in Blood"
            }
          ],
          "text": "Glucose [Mass/volume] in Blood"
        },
        "valueQuantity": {
          "system": "http://unitsofmeasure.org",
          "value": 86.9,
          "unit": "mg/dL",
          "code": "mg/dL"
        },
        "referenceRange": [
          {
            "low": {
              "value": 70,
              "code": "mg/dL",
              "system": "http://unitsofmeasure.org"
            }
          },
          {
            "high": {
              "value": 140,
              "code": "mg/dL",
              "system": "http://unitsofmeasure.org"
            }
          }
        ],
        "text": {
          "status": "generated",
          "div": "<div xmlns=\"http://www.w3.org/1999/xhtml\"><table class=\"hl7__eu__lab__report\"><tr><th>Test</th><th>02-Apr-2025</th><th>Reference&#xA0;Range</th><th>Unit</th></tr><tr><td>Glucose [Mass/volume] in Blood</td><td>86.9</td><td>70 - 140</td><td></td><td>mg/dL</td></tr></table></div>"
        },
        "status": "final",
        "subject": {
          "reference": "urn:uuid:fc7b1c8f-41c7-4f81-b206-afdc06cdfe7e",
          "display": "Lazăr Florea"
        },
        "effectiveDateTime": "2025-04-02T13:56:29Z",
        "specimen": {
          "reference": "urn:uuid:69570995-4702-4b83-9ad8-f9abdd66cbcf"
        }
      }
    },
    {
      "fullUrl": "urn:uuid:d006e801-0a05-4aab-acf9-2b8e6805505c",
      "resource": {
        "resourceType": "Observation",
        "id": "d006e801-0a05-4aab-acf9-2b8e6805505c",
        "meta": {
          "profile": [
            "http://hl7.eu/fhir/laboratory/StructureDefinition/Observation-resultslab-eu-lab"
          ]
        },
        "performer": [
          {
            "display": "The Central European Lab"
          }
        ],
        "category": [
          {
            "coding": [
              {
                "system": "http://terminology.hl7.org/CodeSystem/observation-category",
                "code": "laboratory"
              }
            ]
          }
        ],
        "code": {
          "coding": [
            {
              "code": "6299-2",
              "system": "http://loinc.org",
              "display": "Urea nitrogen [Mass/volume] in Blood"
            }
          ],
          "text": "Urea nitrogen [Mass/volume] in Blood"
        },
        "valueQuantity": {
          "system": "http://unitsofmeasure.org",
          "value": 15.1,
          "unit": "mg/dL",
          "code": "mg/dL"
        },
        "referenceRange": [
          {
            "low": {
              "value": 7,
              "code": "mg/dL",
              "system": "http://unitsofmeasure.org"
            }
          },
          {
            "high": {
              "value": 20,
              "code": "mg/dL",
              "system": "http://unitsofmeasure.org"
            }
          }
        ],
        "text": {
          "status": "generated",
          "div": "<div xmlns=\"http://www.w3.org/1999/xhtml\"><table class=\"hl7__eu__lab__report\"><tr><th>Test</th><th>02-Apr-2025</th><th>Reference&#xA0;Range</th><th>Unit</th></tr><tr><td>Urea nitrogen [Mass/volume] in Blood</td><td>15.1</td><td>7 - 20</td><td></td><td>mg/dL</td></tr></table></div>"
        },
        "status": "final",
        "subject": {
          "reference": "urn:uuid:fc7b1c8f-41c7-4f81-b206-afdc06cdfe7e",
          "display": "Lazăr Florea"
        },
        "effectiveDateTime": "2025-04-02T13:56:29Z",
        "specimen": {
          "reference": "urn:uuid:69570995-4702-4b83-9ad8-f9abdd66cbcf"
        }
      }
    },
    {
      "fullUrl": "urn:uuid:7edebad6-8cf9-41d9-996a-89c14080c71d",
      "resource": {
        "resourceType": "Observation",
        "id": "7edebad6-8cf9-41d9-996a-89c14080c71d",
        "meta": {
          "profile": [
            "http://hl7.eu/fhir/laboratory/StructureDefinition/Observation-resultslab-eu-lab"
          ]
        },
        "performer": [
          {
            "display": "The Central European Lab"
          }
        ],
        "category": [
          {
            "coding": [
              {
                "system": "http://terminology.hl7.org/CodeSystem/observation-category",
                "code": "laboratory"
              }
            ]
          }
        ],
        "code": {
          "coding": [
            {
              "code": "38483-4",
              "system": "http://loinc.org",
              "display": "Creatinine [Mass/volume] in Blood"
            }
          ],
          "text": "Creatinine [Mass/volume] in Blood"
        },
        "valueQuantity": {
          "system": "http://unitsofmeasure.org",
          "value": 0.7,
          "unit": "mg/dL",
          "code": "mg/dL"
        },
        "referenceRange": [
          {
            "low": {
              "value": 0.9,
              "code": "mg/dL",
              "system": "http://unitsofmeasure.org"
            }
          },
          {
            "high": {
              "value": 1.3,
              "code": "mg/dL",
              "system": "http://unitsofmeasure.org"
            }
          }
        ],
        "interpretation": [
          {
            "coding": [
              {
                "code": "L",
                "system": "http://terminology.hl7.org/CodeSystem/v3-ObservationInterpretation",
                "display": "Low"
              }
            ]
          }
        ],
        "text": {
          "status": "generated",
          "div": "<div xmlns=\"http://www.w3.org/1999/xhtml\"><table class=\"hl7__eu__lab__report\"><tr><th>Test</th><th>02-Apr-2025</th><th>Reference&#xA0;Range</th><th>Unit</th></tr><tr><td>Creatinine [Mass/volume] in Blood</td><td>0.7</td><td>0.9 - 1.3</td><td>L</td><td>mg/dL</td></tr></table></div>"
        },
        "status": "final",
        "subject": {
          "reference": "urn:uuid:fc7b1c8f-41c7-4f81-b206-afdc06cdfe7e",
          "display": "Lazăr Florea"
        },
        "effectiveDateTime": "2025-04-02T13:56:29Z",
        "specimen": {
          "reference": "urn:uuid:69570995-4702-4b83-9ad8-f9abdd66cbcf"
        }
      }
    },
    {
      "fullUrl": "urn:uuid:9ec9bec6-7318-42f8-9aa6-94343b861df3",
      "resource": {
        "resourceType": "Observation",
        "id": "9ec9bec6-7318-42f8-9aa6-94343b861df3",
        "meta": {
          "profile": [
            "http://hl7.eu/fhir/laboratory/StructureDefinition/Observation-resultslab-eu-lab"
          ]
        },
        "performer": [
          {
            "display": "The Central European Lab"
          }
        ],
        "category": [
          {
            "coding": [
              {
                "system": "http://terminology.hl7.org/CodeSystem/observation-category",
                "code": "laboratory"
              }
            ]
          }
        ],
        "code": {
          "coding": [
            {
              "code": "49765-1",
              "system": "http://loinc.org",
              "display": "Calcium [Mass/volume] in Blood"
            }
          ],
          "text": "Calcium [Mass/volume] in Blood"
        },
        "valueQuantity": {
          "system": "http://unitsofmeasure.org",
          "value": 9.5,
          "unit": "mg/dL",
          "code": "mg/dL"
        },
        "referenceRange": [
          {
            "low": {
              "value": 8.5,
              "code": "mg/dL",
              "system": "http://unitsofmeasure.org"
            }
          },
          {
            "high": {
              "value": 10.5,
              "code": "mg/dL",
              "system": "http://unitsofmeasure.org"
            }
          }
        ],
        "text": {
          "status": "generated",
          "div": "<div xmlns=\"http://www.w3.org/1999/xhtml\"><table class=\"hl7__eu__lab__report\"><tr><th>Test</th><th>02-Apr-2025</th><th>Reference&#xA0;Range</th><th>Unit</th></tr><tr><td>Calcium [Mass/volume] in Blood</td><td>9.5</td><td>8.5 - 10.5</td><td></td><td>mg/dL</td></tr></table></div>"
        },
        "status": "final",
        "subject": {
          "reference": "urn:uuid:fc7b1c8f-41c7-4f81-b206-afdc06cdfe7e",
          "display": "Lazăr Florea"
        },
        "effectiveDateTime": "2025-04-02T13:56:29Z",
        "specimen": {
          "reference": "urn:uuid:69570995-4702-4b83-9ad8-f9abdd66cbcf"
        }
      }
    },
    {
      "fullUrl": "urn:uuid:f18aa434-8585-40bf-8048-9a844b26b8be",
      "resource": {
        "resourceType": "Observation",
        "id": "f18aa434-8585-40bf-8048-9a844b26b8be",
        "meta": {
          "profile": [
            "http://hl7.eu/fhir/laboratory/StructureDefinition/Observation-resultslab-eu-lab"
          ]
        },
        "performer": [
          {
            "display": "The Central European Lab"
          }
        ],
        "category": [
          {
            "coding": [
              {
                "system": "http://terminology.hl7.org/CodeSystem/observation-category",
                "code": "laboratory"
              }
            ]
          }
        ],
        "code": {
          "coding": [
            {
              "code": "2947-0",
              "system": "http://loinc.org",
              "display": "Sodium [Moles/volume] in Blood"
            }
          ],
          "text": "Sodium [Moles/volume] in Blood"
        },
        "valueQuantity": {
          "system": "http://unitsofmeasure.org",
          "value": 139,
          "unit": "mmol/L",
          "code": "mmol/L"
        },
        "referenceRange": [
          {
            "low": {
              "value": 135,
              "code": "mmol/L",
              "system": "http://unitsofmeasure.org"
            }
          },
          {
            "high": {
              "value": 145,
              "code": "mmol/L",
              "system": "http://unitsofmeasure.org"
            }
          }
        ],
        "text": {
          "status": "generated",
          "div": "<div xmlns=\"http://www.w3.org/1999/xhtml\"><table class=\"hl7__eu__lab__report\"><tr><th>Test</th><th>02-Apr-2025</th><th>Reference&#xA0;Range</th><th>Unit</th></tr><tr><td>Sodium [Moles/volume] in Blood</td><td>139.0</td><td>135 - 145</td><td></td><td>mmol/L</td></tr></table></div>"
        },
        "status": "final",
        "subject": {
          "reference": "urn:uuid:fc7b1c8f-41c7-4f81-b206-afdc06cdfe7e",
          "display": "Lazăr Florea"
        },
        "effectiveDateTime": "2025-04-02T13:56:29Z",
        "specimen": {
          "reference": "urn:uuid:69570995-4702-4b83-9ad8-f9abdd66cbcf"
        }
      }
    },
    {
      "fullUrl": "urn:uuid:2a55ad12-9bca-412f-935a-04bcc8af1539",
      "resource": {
        "resourceType": "Observation",
        "id": "2a55ad12-9bca-412f-935a-04bcc8af1539",
        "meta": {
          "profile": [
            "http://hl7.eu/fhir/laboratory/StructureDefinition/Observation-resultslab-eu-lab"
          ]
        },
        "performer": [
          {
            "display": "The Central European Lab"
          }
        ],
        "category": [
          {
            "coding": [
              {
                "system": "http://terminology.hl7.org/CodeSystem/observation-category",
                "code": "laboratory"
              }
            ]
          }
        ],
        "code": {
          "coding": [
            {
              "code": "6298-4",
              "system": "http://loinc.org",
              "display": "Potassium [Moles/volume] in Blood"
            }
          ],
          "text": "Potassium [Moles/volume] in Blood"
        },
        "valueQuantity": {
          "system": "http://unitsofmeasure.org",
          "value": 4.2,
          "unit": "mmol/L",
          "code": "mmol/L"
        },
        "referenceRange": [
          {
            "low": {
              "value": 3.5,
              "code": "mmol/L",
              "system": "http://unitsofmeasure.org"
            }
          },
          {
            "high": {
              "value": 5.3,
              "code": "mmol/L",
              "system": "http://unitsofmeasure.org"
            }
          }
        ],
        "text": {
          "status": "generated",
          "div": "<div xmlns=\"http://www.w3.org/1999/xhtml\"><table class=\"hl7__eu__lab__report\"><tr><th>Test</th><th>02-Apr-2025</th><th>Reference&#xA0;Range</th><th>Unit</th></tr><tr><td>Potassium [Moles/volume] in Blood</td><td>4.2</td><td>3.5 - 5.3</td><td></td><td>mmol/L</td></tr></table></div>"
        },
        "status": "final",
        "subject": {
          "reference": "urn:uuid:fc7b1c8f-41c7-4f81-b206-afdc06cdfe7e",
          "display": "Lazăr Florea"
        },
        "effectiveDateTime": "2025-04-02T13:56:29Z",
        "specimen": {
          "reference": "urn:uuid:69570995-4702-4b83-9ad8-f9abdd66cbcf"
        }
      }
    },
    {
      "fullUrl": "urn:uuid:fde32696-3fc5-43e4-a049-a783bb8e95ab",
      "resource": {
        "resourceType": "Observation",
        "id": "fde32696-3fc5-43e4-a049-a783bb8e95ab",
        "meta": {
          "profile": [
            "http://hl7.eu/fhir/laboratory/StructureDefinition/Observation-resultslab-eu-lab"
          ]
        },
        "performer": [
          {
            "display": "The Central European Lab"
          }
        ],
        "category": [
          {
            "coding": [
              {
                "system": "http://terminology.hl7.org/CodeSystem/observation-category",
                "code": "laboratory"
              }
            ]
          }
        ],
        "code": {
          "coding": [
            {
              "code": "2069-3",
              "system": "http://loinc.org",
              "display": "Chloride [Moles/volume] in Blood"
            }
          ],
          "text": "Chloride [Moles/volume] in Blood"
        },
        "valueQuantity": {
          "system": "http://unitsofmeasure.org",
          "value": 110.7,
          "unit": "mmol/L",
          "code": "mmol/L"
        },
        "referenceRange": [
          {
            "low": {
              "value": 98,
              "code": "mmol/L",
              "system": "http://unitsofmeasure.org"
            }
          },
          {
            "high": {
              "value": 109,
              "code": "mmol/L",
              "system": "http://unitsofmeasure.org"
            }
          }
        ],
        "interpretation": [
          {
            "coding": [
              {
                "code": "H",
                "system": "http://terminology.hl7.org/CodeSystem/v3-ObservationInterpretation",
                "display": "High"
              }
            ]
          }
        ],
        "text": {
          "status": "generated",
          "div": "<div xmlns=\"http://www.w3.org/1999/xhtml\"><table class=\"hl7__eu__lab__report\"><tr><th>Test</th><th>02-Apr-2025</th><th>Reference&#xA0;Range</th><th>Unit</th></tr><tr><td>Chloride [Moles/volume] in Blood</td><td>110.7</td><td>98 - 109</td><td>H</td><td>mmol/L</td></tr></table></div>"
        },
        "status": "final",
        "subject": {
          "reference": "urn:uuid:fc7b1c8f-41c7-4f81-b206-afdc06cdfe7e",
          "display": "Lazăr Florea"
        },
        "effectiveDateTime": "2025-04-02T13:56:29Z",
        "specimen": {
          "reference": "urn:uuid:69570995-4702-4b83-9ad8-f9abdd66cbcf"
        }
      }
    },
    {
      "fullUrl": "urn:uuid:d8b3d2a6-acda-4a1e-a80f-ab644583d888",
      "resource": {
        "resourceType": "Observation",
        "id": "d8b3d2a6-acda-4a1e-a80f-ab644583d888",
        "meta": {
          "profile": [
            "http://hl7.eu/fhir/laboratory/StructureDefinition/Observation-resultslab-eu-lab"
          ]
        },
        "performer": [
          {
            "display": "The Central European Lab"
          }
        ],
        "category": [
          {
            "coding": [
              {
                "system": "http://terminology.hl7.org/CodeSystem/observation-category",
                "code": "laboratory"
              }
            ]
          }
        ],
        "code": {
          "coding": [
            {
              "code": "20565-8",
              "system": "http://loinc.org",
              "display": "Carbon dioxide, total [Moles/volume] in Blood"
            }
          ],
          "text": "Carbon dioxide, total [Moles/volume] in Blood"
        },
        "valueQuantity": {
          "system": "http://unitsofmeasure.org",
          "value": 24.7,
          "unit": "mmol/L",
          "code": "mmol/L"
        },
        "referenceRange": [
          {
            "low": {
              "value": 22,
              "code": "mmol/L",
              "system": "http://unitsofmeasure.org"
            }
          },
          {
            "high": {
              "value": 32,
              "code": "mmol/L",
              "system": "http://unitsofmeasure.org"
            }
          }
        ],
        "text": {
          "status": "generated",
          "div": "<div xmlns=\"http://www.w3.org/1999/xhtml\"><table class=\"hl7__eu__lab__report\"><tr><th>Test</th><th>02-Apr-2025</th><th>Reference&#xA0;Range</th><th>Unit</th></tr><tr><td>Carbon dioxide, total [Moles/volume] in Blood</td><td>24.7</td><td>22 - 32</td><td></td><td>mmol/L</td></tr></table></div>"
        },
        "status": "final",
        "subject": {
          "reference": "urn:uuid:fc7b1c8f-41c7-4f81-b206-afdc06cdfe7e",
          "display": "Lazăr Florea"
        },
        "effectiveDateTime": "2025-04-02T13:56:29Z",
        "specimen": {
          "reference": "urn:uuid:69570995-4702-4b83-9ad8-f9abdd66cbcf"
        }
      }
    },
    {
      "fullUrl": "urn:uuid:3f87b42e-a50b-46e3-bb19-2185d70d8356",
      "resource": {
        "resourceType": "Device",
        "id": "3f87b42e-a50b-46e3-bb19-2185d70d8356",
        "deviceName": [
          {
            "name": "SYNDERAI Synthetic Generator",
            "type": "manufacturer-name"
          }
        ],
        "version": [
          {
            "value": "5.0"
          }
        ],
        "text": {
          "status": "generated",
          "div": "<div xmlns=\"http://www.w3.org/1999/xhtml\">SYNDERAI Synthetic Generator v5.0</div>"
        },
        "status": "active\"",
        "distinctIdentifier": "synderai-generator-50",
        "manufacturer": "SYNDERAI Project"
      }
    },
    {
      "fullUrl": "urn:uuid:4e3556f8-c91a-46b3-9300-f4a878ca260a",
      "resource": {
        "resourceType": "Provenance",
        "id": "4e3556f8-c91a-46b3-9300-f4a878ca260a",
        "target": [
          {
            "reference": "Patient/fc7b1c8f-41c7-4f81-b206-afdc06cdfe7e"
          },
          {
            "reference": "Bundle/95f0bf30-9086-40c8-b5e7-b6daee3736a3"
          },
          {
            "reference": "Composition/e4e7e3cd-fd3d-4d7b-b24e-db4fa4b538d9"
          },
          {
            "reference": "PractitionerRole/f89c7762-251f-46d4-bf97-76e3efccb49a"
          },
          {
            "reference": "Practitioner/9d64d0d8-0c87-411e-a7be-eee6ae66c68a"
          },
          {
            "reference": "PractitionerRole/390002b8-dca6-48fa-86b3-2e816ac7a023"
          },
          {
            "reference": "Organization/92ee2cce-e03f-4c98-9634-56abc2f1d8ce"
          }
        ],
        "activity": {
          "text": "Synthetic Example Data Generation"
        },
        "policy": [
          "https://synderai.net/synderai-synthetic-data-policy"
        ],
        "agent": [
          {
            "type": {
              "text": "author"
            },
            "who": {
              "reference": "Device/3f87b42e-a50b-46e3-bb19-2185d70d8356"
            }
          }
        ],
        "reason": [
          {
            "text": "Interoperability Testing and Training (non-clinical use)"
          }
        ],
        "text": {
          "status": "generated",
          "div": "<div xmlns=\"http://www.w3.org/1999/xhtml\">Provenance for SYNDERAI Synthetic Example Data Resource</div>"
        },
        "recorded": "2025-04-02T15:56:29Z"
      }
    },
    {
      "fullUrl": "urn:uuid:f89c7762-251f-46d4-bf97-76e3efccb49a",
      "resource": {
        "resourceType": "PractitionerRole",
        "id": "f89c7762-251f-46d4-bf97-76e3efccb49a",
        "meta": {
          "profile": [
            "http://hl7.eu/fhir/base/StructureDefinition/practitionerRole-eu"
          ]
        },
        "text": {
          "status": "generated",
          "div": "<div xmlns=\"http://www.w3.org/1999/xhtml\">Laboratory Role Id: f89c7762-251f-46d4-bf97-76e3efccb49a</div>"
        },
        "practitioner": {
          "reference": "urn:uuid:9d64d0d8-0c87-411e-a7be-eee6ae66c68a"
        }
      }
    },
    {
      "fullUrl": "urn:uuid:9d64d0d8-0c87-411e-a7be-eee6ae66c68a",
      "resource": {
        "resourceType": "Practitioner",
        "id": "9d64d0d8-0c87-411e-a7be-eee6ae66c68a",
        "meta": {
          "profile": [
            "http://hl7.eu/fhir/base/StructureDefinition/practitioner-eu"
          ]
        },
        "identifier": [
          {
            "assigner": {
              "display": "HL7 Europe"
            },
            "system": "urn:oid:2.16.840.1.113883.2.51.999",
            "value": "fc99ba58-0040-453e-8bd1-e1de05586316"
          }
        ],
        "name": [
          {
            "prefix": [
              "dr"
            ],
            "given": [
              "Ex"
            ],
            "family": "Ample"
          }
        ],
        "address": [
          {
            "line": [
              "Laboratoire Central Européenne",
              "Boulevard du Jardin Botanique 32"
            ],
            "postalCode": "1000",
            "city": "Brussels",
            "country": "Belgium"
          }
        ],
        "text": {
          "status": "generated",
          "div": "<div xmlns=\"http://www.w3.org/1999/xhtml\">Laboratory: Laboratoire Central Européenne, 1000 Brussels, Belgium</div>"
        }
      }
    }
  ],
  "type": "document",
  "timestamp": "2025-04-02T15:56:29Z"
}
